myownaccuracy,respcorrs,minNrPractice,considerNrTrials,Instr_resp.keys,Instr_resp.rt,taskGoresp.keys,taskGoresp.rt,warmup_resp.keys,warmup_resp.corr,warmup_resp.rt,myownaccuracyCORR,trials.thisRepN,trials.thisTrialN,trials.thisN,trials.thisIndex,trials.ran,first_character,second_character,Cue,left_categ,centleft_categ,centright_categ,right_categ,corr_ans,trial_cond,switch_cond,cuedCharacter,obj_category,image,participant,date,expName,psychopyVersion,OS,frameRate,task_resp.keys,task_resp.corr,task_resp.rt,task_loop.thisRepN,task_loop.thisTrialN,task_loop.thisN,task_loop.thisIndex,task_loop.ran
1,[],10,10,space,17.634,space,72.278,2,1,0.708,1,0,0,0,0,1,stimuli/m5.jpg,stimuli/m2.jpg,1,stimuli/Outdoor activity & sport item.png,stimuli/Hand labour tool & accessory.png,stimuli/Kitchen & utensil.png,stimuli/Electronic device & accessory.png,2,1,1,stimuli/m5.jpg,Hand labour tool & accessory,stimuli/objects/handrake01a.jpg,1,2021-04-08_12h03.16.344,premceCat2_ses-02_part-01_label-phase1,2020.2.9,Win32,60,,,,,,,,
0,[],,,,,,,1,0,1.632,0,0,1,1,1,1,stimuli/m2.jpg,stimuli/m5.jpg,2,stimuli/Outdoor activity & sport item.png,stimuli/Electronic device & accessory.png,stimuli/Kitchen & utensil.png,stimuli/Hand labour tool & accessory.png,4,1,1,stimuli/m5.jpg,Hand labour tool & accessory,stimuli/objects/jumpingjack.jpg,1,2021-04-08_12h03.16.344,premceCat2_ses-02_part-01_label-phase1,2020.2.9,Win32,60,,,,,,,,
0,[],,,,,,,1,0,1.164,0,0,2,2,2,1,stimuli/m2.jpg,stimuli/m5.jpg,1,stimuli/Kitchen & utensil.png,stimuli/Hand labour tool & accessory.png,stimuli/Outdoor activity & sport item.png,stimuli/Electronic device & accessory.png,3,1,1,stimuli/m2.jpg,Outdoor activity & sport item,stimuli/objects/racquetballracket.jpg,1,2021-04-08_12h03.16.344,premceCat2_ses-02_part-01_label-phase1,2020.2.9,Win32,60,,,,,,,,
1,[],,,,,,,4,1,1.477,1,0,3,3,3,1,stimuli/m2.jpg,stimuli/m5.jpg,1,stimuli/Electronic device & accessory.png,stimuli/Hand labour tool & accessory.png,stimuli/Kitchen & utensil.png,stimuli/Outdoor activity & sport item.png,4,1,1,stimuli/m2.jpg,Outdoor activity & sport item,stimuli/objects/racquetballracket.jpg,1,2021-04-08_12h03.16.344,premceCat2_ses-02_part-01_label-phase1,2020.2.9,Win32,60,,,,,,,,
1,[],,,,,,,1,1,0.833,1,0,4,4,4,1,stimuli/m2.jpg,stimuli/m5.jpg,1,stimuli/Outdoor activity & sport item.png,stimuli/Kitchen & utensil.png,stimuli/Hand labour tool & accessory.png,stimuli/Electronic device & accessory.png,1,1,1,stimuli/m2.jpg,Outdoor activity & sport item,stimuli/objects/crosscountryski.jpg,1,2021-04-08_12h03.16.344,premceCat2_ses-02_part-01_label-phase1,2020.2.9,Win32,60,,,,,,,,
1,[],,,,,,,1,1,0.707,1,0,5,5,5,1,stimuli/m2.jpg,stimuli/m5.jpg,1,stimuli/Outdoor activity & sport item.png,stimuli/Electronic device & accessory.png,stimuli/Hand labour tool & accessory.png,stimuli/Kitchen & utensil.png,1,1,1,stimuli/m2.jpg,Outdoor activity & sport item,stimuli/objects/crosscountryski.jpg,1,2021-04-08_12h03.16.344,premceCat2_ses-02_part-01_label-phase1,2020.2.9,Win32,60,,,,,,,,
0,[],,,,,,,2,0,1.323,0,0,6,6,6,1,stimuli/m5.jpg,stimuli/m2.jpg,1,stimuli/Outdoor activity & sport item.png,stimuli/Electronic device & accessory.png,stimuli/Hand labour tool & accessory.png,stimuli/Kitchen & utensil.png,3,1,1,stimuli/m5.jpg,Hand labour tool & accessory,stimuli/objects/jumpingjack.jpg,1,2021-04-08_12h03.16.344,premceCat2_ses-02_part-01_label-phase1,2020.2.9,Win32,60,,,,,,,,
0,[],,,,,,,3,0,0.585,0,0,7,7,7,1,stimuli/m2.jpg,stimuli/m5.jpg,2,stimuli/Outdoor activity & sport item.png,stimuli/Electronic device & accessory.png,stimuli/Hand labour tool & accessory.png,stimuli/Kitchen & utensil.png,4,0,1,stimuli/m5.jpg,Kitchen & utensil,stimuli/objects/jug.jpg,1,2021-04-08_12h03.16.344,premceCat2_ses-02_part-01_label-phase1,2020.2.9,Win32,60,,,,,,,,
0,[],,,,,,,4,0,1.194,0,0,8,8,8,1,stimuli/m5.jpg,stimuli/m2.jpg,1,stimuli/Outdoor activity & sport item.png,stimuli/Hand labour tool & accessory.png,stimuli/Electronic device & accessory.png,stimuli/Kitchen & utensil.png,2,1,1,stimuli/m5.jpg,Hand labour tool & accessory,stimuli/objects/pitchfork.jpg,1,2021-04-08_12h03.16.344,premceCat2_ses-02_part-01_label-phase1,2020.2.9,Win32,60,,,,,,,,
0,[],,,,,,,4,0,1.19,0,0,9,9,9,1,stimuli/m5.jpg,stimuli/m2.jpg,2,stimuli/Kitchen & utensil.png,stimuli/Hand labour tool & accessory.png,stimuli/Electronic device & accessory.png,stimuli/Outdoor activity & sport item.png,2,0,1,stimuli/m2.jpg,Hand labour tool & accessory,stimuli/objects/boxcutter03a.jpg,1,2021-04-08_12h03.16.344,premceCat2_ses-02_part-01_label-phase1,2020.2.9,Win32,60,,,,,,,,
0,[],,,,,,,1,0,1.151,0,0,10,10,10,1,stimuli/m5.jpg,stimuli/m2.jpg,1,stimuli/Kitchen & utensil.png,stimuli/Outdoor activity & sport item.png,stimuli/Electronic device & accessory.png,stimuli/Hand labour tool & accessory.png,4,1,1,stimuli/m5.jpg,Hand labour tool & accessory,stimuli/objects/gavel.jpg,1,2021-04-08_12h03.16.344,premceCat2_ses-02_part-01_label-phase1,2020.2.9,Win32,60,,,,,,,,
0,[],,,,,,,3,0,1.456,0,0,11,11,11,1,stimuli/m5.jpg,stimuli/m2.jpg,1,stimuli/Kitchen & utensil.png,stimuli/Hand labour tool & accessory.png,stimuli/Electronic device & accessory.png,stimuli/Outdoor activity & sport item.png,4,0,1,stimuli/m5.jpg,Outdoor activity & sport item,stimuli/objects/swing.jpg,1,2021-04-08_12h03.16.344,premceCat2_ses-02_part-01_label-phase1,2020.2.9,Win32,60,,,,,,,,
1,[],,,,,,,1,1,0.96,1,0,12,12,12,1,stimuli/m5.jpg,stimuli/m2.jpg,2,stimuli/Outdoor activity & sport item.png,stimuli/Electronic device & accessory.png,stimuli/Kitchen & utensil.png,stimuli/Hand labour tool & accessory.png,1,1,1,stimuli/m2.jpg,Outdoor activity & sport item,stimuli/objects/bicycle.jpg,1,2021-04-08_12h03.16.344,premceCat2_ses-02_part-01_label-phase1,2020.2.9,Win32,60,,,,,,,,
0,[],,,,,,,4,0,1.65,0,0,13,13,13,1,stimuli/m2.jpg,stimuli/m5.jpg,1,stimuli/Electronic device & accessory.png,stimuli/Outdoor activity & sport item.png,stimuli/Hand labour tool & accessory.png,stimuli/Kitchen & utensil.png,2,1,1,stimuli/m2.jpg,Outdoor activity & sport item,stimuli/objects/racquetballracket.jpg,1,2021-04-08_12h03.16.344,premceCat2_ses-02_part-01_label-phase1,2020.2.9,Win32,60,,,,,,,,
0,[],,,,,,,1,0,1.526,0,0,14,14,14,1,stimuli/m5.jpg,stimuli/m2.jpg,1,stimuli/Hand labour tool & accessory.png,stimuli/Outdoor activity & sport item.png,stimuli/Kitchen & utensil.png,stimuli/Electronic device & accessory.png,3,0,1,stimuli/m5.jpg,Kitchen & utensil,stimuli/objects/freezer02.jpg,1,2021-04-08_12h03.16.344,premceCat2_ses-02_part-01_label-phase1,2020.2.9,Win32,60,,,,,,,,
0,[],,,,,,,4,0,1.412,0,0,15,15,15,1,stimuli/m2.jpg,stimuli/m5.jpg,1,stimuli/Kitchen & utensil.png,stimuli/Hand labour tool & accessory.png,stimuli/Electronic device & accessory.png,stimuli/Outdoor activity & sport item.png,2,0,1,stimuli/m2.jpg,Hand labour tool & accessory,stimuli/objects/handrake01a.jpg,1,2021-04-08_12h03.16.344,premceCat2_ses-02_part-01_label-phase1,2020.2.9,Win32,60,,,,,,,,
0,[],,,,,,,3,0,1.415,0,0,16,16,16,1,stimuli/m5.jpg,stimuli/m2.jpg,2,stimuli/Hand labour tool & accessory.png,stimuli/Outdoor activity & sport item.png,stimuli/Kitchen & utensil.png,stimuli/Electronic device & accessory.png,2,1,1,stimuli/m2.jpg,Outdoor activity & sport item,stimuli/objects/rollerblade.jpg,1,2021-04-08_12h03.16.344,premceCat2_ses-02_part-01_label-phase1,2020.2.9,Win32,60,,,,,,,,
1,[],,,,,,,1,1,1.223,1,0,17,17,17,1,stimuli/m2.jpg,stimuli/m5.jpg,2,stimuli/Hand labour tool & accessory.png,stimuli/Kitchen & utensil.png,stimuli/Electronic device & accessory.png,stimuli/Outdoor activity & sport item.png,1,1,1,stimuli/m5.jpg,Hand labour tool & accessory,stimuli/objects/hedgetrimmer.jpg,1,2021-04-08_12h03.16.344,premceCat2_ses-02_part-01_label-phase1,2020.2.9,Win32,60,,,,,,,,
0,[],,,,,,,2,0,1.021,0,0,18,18,18,1,stimuli/m5.jpg,stimuli/m2.jpg,1,stimuli/Hand labour tool & accessory.png,stimuli/Outdoor activity & sport item.png,stimuli/Electronic device & accessory.png,stimuli/Kitchen & utensil.png,1,1,1,stimuli/m5.jpg,Hand labour tool & accessory,stimuli/objects/jumpingjack.jpg,1,2021-04-08_12h03.16.344,premceCat2_ses-02_part-01_label-phase1,2020.2.9,Win32,60,,,,,,,,
0,[],,,,,,,,,,0,,,,,,stimuli/m2.jpg,stimuli/m5.jpg,2,stimuli/Electronic device & accessory.png,stimuli/Kitchen & utensil.png,stimuli/Hand labour tool & accessory.png,stimuli/Outdoor activity & sport item.png,2,0,2,stimuli/m5.jpg,Kitchen & utensil,stimuli/objects/travelmug.jpg,1,2021-04-08_12h03.16.344,premceCat2_ses-02_part-01_label-phase1,2020.2.9,Win32,60,1,0,1.195,0,0,0,0,1
1,[],,,,,,,,,,1,,,,,,stimuli/m2.jpg,stimuli/m5.jpg,1,stimuli/Kitchen & utensil.png,stimuli/Outdoor activity & sport item.png,stimuli/Electronic device & accessory.png,stimuli/Hand labour tool & accessory.png,2,1,2,stimuli/m2.jpg,Outdoor activity & sport item,stimuli/objects/swimgoggles.jpg,1,2021-04-08_12h03.16.344,premceCat2_ses-02_part-01_label-phase1,2020.2.9,Win32,60,2,1,0.885,0,1,1,1,1
0,[1],,,,,,,,,,1,,,,,,stimuli/m2.jpg,stimuli/m5.jpg,2,stimuli/Electronic device & accessory.png,stimuli/Hand labour tool & accessory.png,stimuli/Outdoor activity & sport item.png,stimuli/Kitchen & utensil.png,3,0,2,stimuli/m5.jpg,Outdoor activity & sport item,stimuli/objects/outdoorheater.jpg,1,2021-04-08_12h03.16.344,premceCat2_ses-02_part-01_label-phase1,2020.2.9,Win32,60,4,0,0.92,0,2,2,2,1
0,[1],,,,,,,,,,0,,,,,,stimuli/m2.jpg,stimuli/m5.jpg,2,stimuli/Kitchen & utensil.png,stimuli/Hand labour tool & accessory.png,stimuli/Electronic device & accessory.png,stimuli/Outdoor activity & sport item.png,2,1,2,stimuli/m5.jpg,Hand labour tool & accessory,stimuli/objects/adjustablewrench01b.jpg,1,2021-04-08_12h03.16.344,premceCat2_ses-02_part-01_label-phase1,2020.2.9,Win32,60,3,0,1.041,0,3,3,3,1
0,"[1,0]",,,,,,,,,,0,,,,,,stimuli/m2.jpg,stimuli/m5.jpg,1,stimuli/Kitchen & utensil.png,stimuli/Hand labour tool & accessory.png,stimuli/Electronic device & accessory.png,stimuli/Outdoor activity & sport item.png,3,0,2,stimuli/m2.jpg,Electronic device & accessory,stimuli/objects/phonejack.jpg,1,2021-04-08_12h03.16.344,premceCat2_ses-02_part-01_label-phase1,2020.2.9,Win32,60,4,0,1.123,0,4,4,4,1
0,"[1,0]",,,,,,,,,,0,,,,,,stimuli/m5.jpg,stimuli/m2.jpg,2,stimuli/Hand labour tool & accessory.png,stimuli/Electronic device & accessory.png,stimuli/Kitchen & utensil.png,stimuli/Outdoor activity & sport item.png,4,1,2,stimuli/m2.jpg,Outdoor activity & sport item,stimuli/objects/patioumbrella.jpg,1,2021-04-08_12h03.16.344,premceCat2_ses-02_part-01_label-phase1,2020.2.9,Win32,60,2,0,1.04,0,5,5,5,1
0,"[1,0,0]",,,,,,,,,,0,,,,,,stimuli/m5.jpg,stimuli/m2.jpg,1,stimuli/Electronic device & accessory.png,stimuli/Outdoor activity & sport item.png,stimuli/Kitchen & utensil.png,stimuli/Hand labour tool & accessory.png,1,0,2,stimuli/m5.jpg,Electronic device & accessory,stimuli/objects/wire.jpg,1,2021-04-08_12h03.16.344,premceCat2_ses-02_part-01_label-phase1,2020.2.9,Win32,60,3,0,1.799,0,6,6,6,1
0,"[1,0,0]",,,,,,,,,,0,,,,,,stimuli/m2.jpg,stimuli/m5.jpg,2,stimuli/Electronic device & accessory.png,stimuli/Kitchen & utensil.png,stimuli/Outdoor activity & sport item.png,stimuli/Hand labour tool & accessory.png,2,0,2,stimuli/m5.jpg,Kitchen & utensil,stimuli/objects/cowbell.jpg,1,2021-04-08_12h03.16.344,premceCat2_ses-02_part-01_label-phase1,2020.2.9,Win32,60,1,0,1.175,0,7,7,7,1
1,"[1,0,0]",,,,,,,,,,1,,,,,,stimuli/m5.jpg,stimuli/m2.jpg,2,stimuli/Outdoor activity & sport item.png,stimuli/Hand labour tool & accessory.png,stimuli/Kitchen & utensil.png,stimuli/Electronic device & accessory.png,1,1,2,stimuli/m2.jpg,Outdoor activity & sport item,stimuli/objects/baseball01a.jpg,1,2021-04-08_12h03.16.344,premceCat2_ses-02_part-01_label-phase1,2020.2.9,Win32,60,1,1,1.831,0,8,8,8,1
0,"[1,0,0,1]",,,,,,,,,,0,,,,,,stimuli/m2.jpg,stimuli/m5.jpg,1,stimuli/Electronic device & accessory.png,stimuli/Hand labour tool & accessory.png,stimuli/Kitchen & utensil.png,stimuli/Outdoor activity & sport item.png,4,1,2,stimuli/m2.jpg,Outdoor activity & sport item,stimuli/objects/bikehelmet.jpg,1,2021-04-08_12h03.16.344,premceCat2_ses-02_part-01_label-phase1,2020.2.9,Win32,60,3,0,1.327,0,9,9,9,1
1,"[1,0,0,1,0]",,,,,,,,,,1,,,,,,stimuli/m2.jpg,stimuli/m5.jpg,1,stimuli/Electronic device & accessory.png,stimuli/Outdoor activity & sport item.png,stimuli/Hand labour tool & accessory.png,stimuli/Kitchen & utensil.png,2,1,2,stimuli/m2.jpg,Outdoor activity & sport item,stimuli/objects/canoepaddle02.jpg,1,2021-04-08_12h03.16.344,premceCat2_ses-02_part-01_label-phase1,2020.2.9,Win32,60,2,1,2.022,0,10,10,10,1
0,"[1,0,0,1,0,1]",,,,,,,,,,0,,,,,,stimuli/m5.jpg,stimuli/m2.jpg,1,stimuli/Electronic device & accessory.png,stimuli/Outdoor activity & sport item.png,stimuli/Hand labour tool & accessory.png,stimuli/Kitchen & utensil.png,3,1,2,stimuli/m5.jpg,Hand labour tool & accessory,stimuli/objects/leafrake.jpg,1,2021-04-08_12h03.16.344,premceCat2_ses-02_part-01_label-phase1,2020.2.9,Win32,60,4,0,2.021,0,11,11,11,1
0,"[1,0,0,1,0,1,0]",,,,,,,,,,0,,,,,,stimuli/m2.jpg,stimuli/m5.jpg,2,stimuli/Kitchen & utensil.png,stimuli/Hand labour tool & accessory.png,stimuli/Outdoor activity & sport item.png,stimuli/Electronic device & accessory.png,2,1,2,stimuli/m5.jpg,Hand labour tool & accessory,stimuli/objects/lawnmower.jpg,1,2021-04-08_12h03.16.344,premceCat2_ses-02_part-01_label-phase1,2020.2.9,Win32,60,3,0,1.198,0,12,12,12,1
1,"[1,0,0,1,0,1,0,0]",,,,,,,,,,1,,,,,,stimuli/m5.jpg,stimuli/m2.jpg,2,stimuli/Kitchen & utensil.png,stimuli/Outdoor activity & sport item.png,stimuli/Hand labour tool & accessory.png,stimuli/Electronic device & accessory.png,2,1,2,stimuli/m2.jpg,Outdoor activity & sport item,stimuli/objects/reflector.jpg,1,2021-04-08_12h03.16.344,premceCat2_ses-02_part-01_label-phase1,2020.2.9,Win32,60,2,1,0.822,0,13,13,13,1
