myownaccuracy,respcorrs,minNrPractice,considerNrTrials,Instr_resp.keys,Instr_resp.rt,key_resp_2.keys,key_resp_2.rt,Instruction_loop.thisRepN,Instruction_loop.thisTrialN,Instruction_loop.thisN,Instruction_loop.thisIndex,Instruction_loop.ran,slides,participant,date,expName,psychopyVersion,OS,frameRate,key_resp_3.keys,key_resp_3.rt,taskGoresp.keys,taskGoresp.rt,pract_resp.keys,pract_resp.corr,pract_resp.rt,myownaccuracyCORR,pract_loop.thisRepN,pract_loop.thisTrialN,pract_loop.thisN,pract_loop.thisIndex,pract_loop.ran,first_character,second_character,Cue,left_categ,centleft_categ,centright_categ,right_categ,corr_ans,trial_cond,switch_cond,cuedCharacter,corrCat,image,rep_resp.keys,rep_resp.rt,repeat_pract.thisRepN,repeat_pract.thisTrialN,repeat_pract.thisN,repeat_pract.thisIndex,repeat_pract.ran,task_resp.keys,task_resp.corr,task_resp.rt,task_loop.thisRepN,task_loop.thisTrialN,task_loop.thisN,task_loop.thisIndex,task_loop.ran,obj_category,rep_resp_2.keys,rep_resp_2.rt,repeat_task2.thisRepN,repeat_task2.thisTrialN,repeat_task2.thisN,repeat_task2.thisIndex,repeat_task2.ran
[],[],10,10,space,8.642,space,8.071,0,0,0,0,1,stimuli/slide1.png,1,2021-04-07_11h06.26.151,premceCat2_ses-01_part-01_label-phase1,2020.2.9,Win32,60,,,,,,,,,,,,,,,,,,,,,,,,,,,,,,,,,,,,,,,,,,,,,,,,,
,,,,,,space,38.126,0,1,1,1,1,stimuli/slide2.png,1,2021-04-07_11h06.26.151,premceCat2_ses-01_part-01_label-phase1,2020.2.9,Win32,60,,,,,,,,,,,,,,,,,,,,,,,,,,,,,,,,,,,,,,,,,,,,,,,,,
,,,,,,space,33.585,0,2,2,2,1,stimuli/slide3.png,1,2021-04-07_11h06.26.151,premceCat2_ses-01_part-01_label-phase1,2020.2.9,Win32,60,,,,,,,,,,,,,,,,,,,,,,,,,,,,,,,,,,,,,,,,,,,,,,,,,
,,,,,,space,2.418,0,3,3,3,1,stimuli/slide4.png,1,2021-04-07_11h06.26.151,premceCat2_ses-01_part-01_label-phase1,2020.2.9,Win32,60,,,,,,,,,,,,,,,,,,,,,,,,,,,,,,,,,,,,,,,,,,,,,,,,,
,,,,,,space,2.986,0,4,4,4,1,stimuli/slide5.png,1,2021-04-07_11h06.26.151,premceCat2_ses-01_part-01_label-phase1,2020.2.9,Win32,60,,,,,,,,,,,,,,,,,,,,,,,,,,,,,,,,,,,,,,,,,,,,,,,,,
,,,,,,space,4.572,0,5,5,5,1,stimuli/slide6.png,1,2021-04-07_11h06.26.151,premceCat2_ses-01_part-01_label-phase1,2020.2.9,Win32,60,,,,,,,,,,,,,,,,,,,,,,,,,,,,,,,,,,,,,,,,,,,,,,,,,
0,[],,,,,,,,,,,,,1,2021-04-07_11h06.26.151,premceCat2_ses-01_part-01_label-phase1,2020.2.9,Win32,60,space,106.307,space,26.807,3,0,0.629,0,0,0,0,0,1,stimuli/m1.jpg,stimuli/m4.jpg,2,stimuli/Stationary & school supply.png,stimuli/Vehicle.png,stimuli/Gamestoy & entertainment.png,stimuli/Clothing.png,4,1,0,stimuli/m4.jpg,Clothing,stimuli/objects/sneaker03b.jpg,,,,,,,,,,,,,,,,,,,,,,,
0,[0],,,,,,,,,,,,,1,2021-04-07_11h06.26.151,premceCat2_ses-01_part-01_label-phase1,2020.2.9,Win32,60,,,,,2,0,0.833,0,0,1,1,1,1,stimuli/m1.jpg,stimuli/m4.jpg,2,stimuli/Stationary & school supply.png,stimuli/Clothing.png,stimuli/Vehicle.png,stimuli/Gamestoy & entertainment.png,1,0,0,stimuli/m4.jpg,Stationary & school supply,stimuli/objects/paperclip01b.jpg,,,,,,,,,,,,,,,,,,,,,,,
0,[0],,,,,,,,,,,,,1,2021-04-07_11h06.26.151,premceCat2_ses-01_part-01_label-phase1,2020.2.9,Win32,60,,,,,1,0,0.523,0,0,2,2,2,1,stimuli/m1.jpg,stimuli/m4.jpg,1,stimuli/Vehicle.png,stimuli/Stationary & school supply.png,stimuli/Clothing.png,stimuli/Gamestoy & entertainment.png,2,1,0,stimuli/m1.jpg,Stationary & school supply,stimuli/objects/protractor.jpg,,,,,,,,,,,,,,,,,,,,,,,
0,"[0,0]",,,,,,,,,,,,,1,2021-04-07_11h06.26.151,premceCat2_ses-01_part-01_label-phase1,2020.2.9,Win32,60,,,,,2,0,0.687,0,0,3,3,3,1,stimuli/m4.jpg,stimuli/m1.jpg,1,stimuli/Stationary & school supply.png,stimuli/Vehicle.png,stimuli/Gamestoy & entertainment.png,stimuli/Clothing.png,4,1,0,stimuli/m4.jpg,Clothing,stimuli/objects/hikingshoe01.jpg,,,,,,,,,,,,,,,,,,,,,,,
0,"[0,0,0]",,,,,,,,,,,,,1,2021-04-07_11h06.26.151,premceCat2_ses-01_part-01_label-phase1,2020.2.9,Win32,60,,,,,1,0,0.811,0,0,4,4,4,1,stimuli/m1.jpg,stimuli/m4.jpg,1,stimuli/Clothing.png,stimuli/Stationary & school supply.png,stimuli/Vehicle.png,stimuli/Gamestoy & entertainment.png,2,1,0,stimuli/m1.jpg,Stationary & school supply,stimuli/objects/book01b.jpg,,,,,,,,,,,,,,,,,,,,,,,
0,"[0,0,0,0]",,,,,,,,,,,,,1,2021-04-07_11h06.26.151,premceCat2_ses-01_part-01_label-phase1,2020.2.9,Win32,60,,,,,2,0,1,0,0,5,5,5,1,stimuli/m4.jpg,stimuli/m1.jpg,1,stimuli/Stationary & school supply.png,stimuli/Gamestoy & entertainment.png,stimuli/Vehicle.png,stimuli/Clothing.png,4,1,0,stimuli/m4.jpg,Clothing,stimuli/objects/shoelace.jpg,,,,,,,,,,,,,,,,,,,,,,,
0,"[0,0,0,0,0]",,,,,,,,,,,,,1,2021-04-07_11h06.26.151,premceCat2_ses-01_part-01_label-phase1,2020.2.9,Win32,60,,,,,4,0,1.119,0,0,6,6,6,1,stimuli/m1.jpg,stimuli/m4.jpg,2,stimuli/Clothing.png,stimuli/Stationary & school supply.png,stimuli/Vehicle.png,stimuli/Gamestoy & entertainment.png,1,1,0,stimuli/m4.jpg,Clothing,stimuli/objects/moccasin.jpg,,,,,,,,,,,,,,,,,,,,,,,
1,"[0,0,0,0,0,0]",,,,,,,,,,,,,1,2021-04-07_11h06.26.151,premceCat2_ses-01_part-01_label-phase1,2020.2.9,Win32,60,,,,,2,1,0.886,1,0,7,7,7,1,stimuli/m1.jpg,stimuli/m4.jpg,2,stimuli/Gamestoy & entertainment.png,stimuli/Clothing.png,stimuli/Stationary & school supply.png,stimuli/Vehicle.png,2,1,0,stimuli/m4.jpg,Clothing,stimuli/objects/waders.jpg,,,,,,,,,,,,,,,,,,,,,,,
1,"[0,0,0,0,0,0,1]",,,,,,,,,,,,,1,2021-04-07_11h06.26.151,premceCat2_ses-01_part-01_label-phase1,2020.2.9,Win32,60,,,,,3,1,0.69,1,0,8,8,8,1,stimuli/m4.jpg,stimuli/m1.jpg,2,stimuli/Vehicle.png,stimuli/Gamestoy & entertainment.png,stimuli/Stationary & school supply.png,stimuli/Clothing.png,3,1,0,stimuli/m1.jpg,Stationary & school supply,stimuli/objects/eraser.jpg,,,,,,,,,,,,,,,,,,,,,,,
1,"[0,0,0,0,0,0,1,1]",,,,,,,,,,,,,1,2021-04-07_11h06.26.151,premceCat2_ses-01_part-01_label-phase1,2020.2.9,Win32,60,,,,,1,1,1.154,1,0,9,9,9,1,stimuli/m4.jpg,stimuli/m1.jpg,2,stimuli/Stationary & school supply.png,stimuli/Vehicle.png,stimuli/Clothing.png,stimuli/Gamestoy & entertainment.png,1,1,0,stimuli/m1.jpg,Stationary & school supply,stimuli/objects/fountainpen.jpg,,,,,,,,,,,,,,,,,,,,,,,
1,"[0,0,0,0,0,0,1,1,1]",,,,,,,,,,,,,1,2021-04-07_11h06.26.151,premceCat2_ses-01_part-01_label-phase1,2020.2.9,Win32,60,,,,,2,1,0.733,1,0,10,10,10,1,stimuli/m4.jpg,stimuli/m1.jpg,1,stimuli/Vehicle.png,stimuli/Clothing.png,stimuli/Stationary & school supply.png,stimuli/Gamestoy & entertainment.png,2,1,0,stimuli/m4.jpg,Clothing,stimuli/objects/visor.jpg,,,,,,,,,,,,,,,,,,,,,,,
1,"[0,0,0,0,0,0,1,1,1,1]",,,,,,,,,,,,,1,2021-04-07_11h06.26.151,premceCat2_ses-01_part-01_label-phase1,2020.2.9,Win32,60,,,,,2,1,0.648,1,0,11,11,11,1,stimuli/m4.jpg,stimuli/m1.jpg,1,stimuli/Stationary & school supply.png,stimuli/Clothing.png,stimuli/Vehicle.png,stimuli/Gamestoy & entertainment.png,2,1,0,stimuli/m4.jpg,Clothing,stimuli/objects/mitten04.jpg,,,,,,,,,,,,,,,,,,,,,,,
1,"[0,0,0,0,0,0,1,1,1,1,1]",,,,,,,,,,,,,1,2021-04-07_11h06.26.151,premceCat2_ses-01_part-01_label-phase1,2020.2.9,Win32,60,,,,,2,1,0.669,1,0,12,12,12,1,stimuli/m4.jpg,stimuli/m1.jpg,2,stimuli/Clothing.png,stimuli/Stationary & school supply.png,stimuli/Vehicle.png,stimuli/Gamestoy & entertainment.png,2,1,0,stimuli/m1.jpg,Stationary & school supply,stimuli/objects/notebook03a.jpg,,,,,,,,,,,,,,,,,,,,,,,
0,"[0,0,0,0,0,0,1,1,1,1,1,1]",,,,,,,,,,,,,1,2021-04-07_11h06.26.151,premceCat2_ses-01_part-01_label-phase1,2020.2.9,Win32,60,,,,,2,0,0.655,1,0,13,13,13,1,stimuli/m4.jpg,stimuli/m1.jpg,1,stimuli/Vehicle.png,stimuli/Clothing.png,stimuli/Gamestoy & entertainment.png,stimuli/Stationary & school supply.png,1,0,0,stimuli/m4.jpg,Vehicle,stimuli/objects/locomotive.jpg,,,,,,,,,,,,,,,,,,,,,,,
1,"[0,0,0,0,0,0,1,1,1,1,1,1]",,,,,,,,,,,,,1,2021-04-07_11h06.26.151,premceCat2_ses-01_part-01_label-phase1,2020.2.9,Win32,60,,,,,2,1,0.672,1,0,14,14,14,1,stimuli/m4.jpg,stimuli/m1.jpg,2,stimuli/Gamestoy & entertainment.png,stimuli/Stationary & school supply.png,stimuli/Vehicle.png,stimuli/Clothing.png,2,1,0,stimuli/m1.jpg,Stationary & school supply,stimuli/objects/mechanicalpencil02.jpg,,,,,,,,,,,,,,,,,,,,,,,
0,"[0,0,0,0,0,0,1,1,1,1,1,1,1]",,,,,,,,,,,,,1,2021-04-07_11h06.26.151,premceCat2_ses-01_part-01_label-phase1,2020.2.9,Win32,60,,,,,2,0,1.286,1,0,15,15,15,1,stimuli/m4.jpg,stimuli/m1.jpg,1,stimuli/Gamestoy & entertainment.png,stimuli/Clothing.png,stimuli/Stationary & school supply.png,stimuli/Vehicle.png,1,0,0,stimuli/m4.jpg,Gamestoy & entertainment,stimuli/objects/rattle.jpg,,,,,,,,,,,,,,,,,,,,,,,
0,"[0,0,0,0,0,0,1,1,1,1,1,1,1]",,,,,,,,,,,,,1,2021-04-07_11h06.26.151,premceCat2_ses-01_part-01_label-phase1,2020.2.9,Win32,60,,,,,2,0,1.036,0,0,16,16,16,1,stimuli/m4.jpg,stimuli/m1.jpg,1,stimuli/Gamestoy & entertainment.png,stimuli/Vehicle.png,stimuli/Stationary & school supply.png,stimuli/Clothing.png,4,1,0,stimuli/m4.jpg,Clothing,stimuli/objects/sheriffhat.jpg,,,,,,,,,,,,,,,,,,,,,,,
1,"[0,0,0,0,0,0,1,1,1,1,1,1,1,0]",,,,,,,,,,,,,1,2021-04-07_11h06.26.151,premceCat2_ses-01_part-01_label-phase1,2020.2.9,Win32,60,,,,,2,1,0.627,1,0,17,17,17,1,stimuli/m4.jpg,stimuli/m1.jpg,1,stimuli/Gamestoy & entertainment.png,stimuli/Clothing.png,stimuli/Vehicle.png,stimuli/Stationary & school supply.png,2,1,0,stimuli/m4.jpg,Clothing,stimuli/objects/jeans01.jpg,,,,,,,,,,,,,,,,,,,,,,,
,,,,,,,,,,,,,,1,2021-04-07_11h06.26.151,premceCat2_ses-01_part-01_label-phase1,2020.2.9,Win32,60,,,,,,,,,,,,,,,,,,,,,,,,,,,n,43.193,0,0,0,0,1,,,,,,,,,,,,,,,,
0,"[0,0,0,0,0,0,1,1,1,1,1,1,1,0,1]",,,,,,,,,,,,,1,2021-04-07_11h06.26.151,premceCat2_ses-01_part-01_label-phase1,2020.2.9,Win32,60,,,,,,,,0,,,,,,stimuli/m2.jpg,stimuli/m5.jpg,2,stimuli/Outdoor activity & sport item.png,stimuli/Hand labour tool & accessory.png,stimuli/Electronic device & accessory.png,stimuli/Kitchen & utensil.png,2,1,1,stimuli/m5.jpg,,stimuli/objects/jumpingjack.jpg,,,,,,,,3,0,0.619,0,0,0,0,1,Hand labour tool & accessory,,,,,,,
0,"[0,0,0,0,0,0,1,1,1,1,1,1,1,0,1,0]",,,,,,,,,,,,,1,2021-04-07_11h06.26.151,premceCat2_ses-01_part-01_label-phase1,2020.2.9,Win32,60,,,,,,,,0,,,,,,stimuli/m2.jpg,stimuli/m5.jpg,2,stimuli/Hand labour tool & accessory.png,stimuli/Outdoor activity & sport item.png,stimuli/Electronic device & accessory.png,stimuli/Kitchen & utensil.png,1,1,1,stimuli/m5.jpg,,stimuli/objects/boxcutter03a.jpg,,,,,,,,2,0,1.235,0,1,1,1,1,Hand labour tool & accessory,,,,,,,
0,"[0,0,0,0,0,0,1,1,1,1,1,1,1,0,1,0,0]",,,,,,,,,,,,,1,2021-04-07_11h06.26.151,premceCat2_ses-01_part-01_label-phase1,2020.2.9,Win32,60,,,,,,,,0,,,,,,stimuli/m2.jpg,stimuli/m5.jpg,1,stimuli/Hand labour tool & accessory.png,stimuli/Kitchen & utensil.png,stimuli/Electronic device & accessory.png,stimuli/Outdoor activity & sport item.png,2,0,1,stimuli/m2.jpg,,stimuli/objects/huntingknife.jpg,,,,,,,,1,0,1.105,0,2,2,2,1,Kitchen & utensil,,,,,,,
0,"[0,0,0,0,0,0,1,1,1,1,1,1,1,0,1,0,0]",,,,,,,,,,,,,1,2021-04-07_11h06.26.151,premceCat2_ses-01_part-01_label-phase1,2020.2.9,Win32,60,,,,,,,,0,,,,,,stimuli/m5.jpg,stimuli/m2.jpg,2,stimuli/Kitchen & utensil.png,stimuli/Electronic device & accessory.png,stimuli/Hand labour tool & accessory.png,stimuli/Outdoor activity & sport item.png,4,1,1,stimuli/m2.jpg,,stimuli/objects/footballhelmet.jpg,,,,,,,,1,0,0.637,0,3,3,3,1,Outdoor activity & sport item,,,,,,,
1,"[0,0,0,0,0,0,1,1,1,1,1,1,1,0,1,0,0,0]",,,,,,,,,,,,,1,2021-04-07_11h06.26.151,premceCat2_ses-01_part-01_label-phase1,2020.2.9,Win32,60,,,,,,,,1,,,,,,stimuli/m5.jpg,stimuli/m2.jpg,1,stimuli/Outdoor activity & sport item.png,stimuli/Hand labour tool & accessory.png,stimuli/Kitchen & utensil.png,stimuli/Electronic device & accessory.png,2,1,1,stimuli/m5.jpg,,stimuli/objects/handrake01a.jpg,,,,,,,,2,1,1.122,0,4,4,4,1,Hand labour tool & accessory,,,,,,,
0,"[0,0,0,0,0,0,1,1,1,1,1,1,1,0,1,0,0,0,1]",,,,,,,,,,,,,1,2021-04-07_11h06.26.151,premceCat2_ses-01_part-01_label-phase1,2020.2.9,Win32,60,,,,,,,,0,,,,,,stimuli/m2.jpg,stimuli/m5.jpg,1,stimuli/Outdoor activity & sport item.png,stimuli/Electronic device & accessory.png,stimuli/Hand labour tool & accessory.png,stimuli/Kitchen & utensil.png,1,1,1,stimuli/m2.jpg,,stimuli/objects/crosscountryski.jpg,,,,,,,,4,0,0.405,0,5,5,5,1,Outdoor activity & sport item,,,,,,,
0,"[0,0,0,0,0,0,1,1,1,1,1,1,1,0,1,0,0,0,1,0]",,,,,,,,,,,,,1,2021-04-07_11h06.26.151,premceCat2_ses-01_part-01_label-phase1,2020.2.9,Win32,60,,,,,,,,0,,,,,,stimuli/m5.jpg,stimuli/m2.jpg,2,stimuli/Hand labour tool & accessory.png,stimuli/Electronic device & accessory.png,stimuli/Outdoor activity & sport item.png,stimuli/Kitchen & utensil.png,2,0,1,stimuli/m2.jpg,,stimuli/objects/television.jpg,,,,,,,,4,0,1.818,0,6,6,6,1,Electronic device & accessory,,,,,,,
0,"[0,0,0,0,0,0,1,1,1,1,1,1,1,0,1,0,0,0,1,0]",,,,,,,,,,,,,1,2021-04-07_11h06.26.151,premceCat2_ses-01_part-01_label-phase1,2020.2.9,Win32,60,,,,,,,,0,,,,,,stimuli/m5.jpg,stimuli/m2.jpg,2,stimuli/Kitchen & utensil.png,stimuli/Outdoor activity & sport item.png,stimuli/Hand labour tool & accessory.png,stimuli/Electronic device & accessory.png,2,1,1,stimuli/m2.jpg,,stimuli/objects/hose.jpg,,,,,,,,3,0,1.353,0,7,7,7,1,Outdoor activity & sport item,,,,,,,
1,"[0,0,0,0,0,0,1,1,1,1,1,1,1,0,1,0,0,0,1,0,0]",,,,,,,,,,,,,1,2021-04-07_11h06.26.151,premceCat2_ses-01_part-01_label-phase1,2020.2.9,Win32,60,,,,,,,,1,,,,,,stimuli/m2.jpg,stimuli/m5.jpg,2,stimuli/Hand labour tool & accessory.png,stimuli/Electronic device & accessory.png,stimuli/Kitchen & utensil.png,stimuli/Outdoor activity & sport item.png,1,1,1,stimuli/m5.jpg,,stimuli/objects/solderingiron.jpg,,,,,,,,1,1,0.754,0,8,8,8,1,Hand labour tool & accessory,,,,,,,
1,"[0,0,0,0,0,0,1,1,1,1,1,1,1,0,1,0,0,0,1,0,0,1]",,,,,,,,,,,,,1,2021-04-07_11h06.26.151,premceCat2_ses-01_part-01_label-phase1,2020.2.9,Win32,60,,,,,,,,1,,,,,,stimuli/m2.jpg,stimuli/m5.jpg,2,stimuli/Electronic device & accessory.png,stimuli/Kitchen & utensil.png,stimuli/Hand labour tool & accessory.png,stimuli/Outdoor activity & sport item.png,3,1,1,stimuli/m5.jpg,,stimuli/objects/gavel.jpg,,,,,,,,3,1,1.39,0,9,9,9,1,Hand labour tool & accessory,,,,,,,
0,"[0,0,0,0,0,0,1,1,1,1,1,1,1,0,1,0,0,0,1,0,0,1,1]",,,,,,,,,,,,,1,2021-04-07_11h06.26.151,premceCat2_ses-01_part-01_label-phase1,2020.2.9,Win32,60,,,,,,,,0,,,,,,stimuli/m5.jpg,stimuli/m2.jpg,1,stimuli/Kitchen & utensil.png,stimuli/Electronic device & accessory.png,stimuli/Outdoor activity & sport item.png,stimuli/Hand labour tool & accessory.png,4,1,1,stimuli/m5.jpg,,stimuli/objects/boxcutter03a.jpg,,,,,,,,1,0,1.535,0,10,10,10,1,Hand labour tool & accessory,,,,,,,
0,"[0,0,0,0,0,0,1,1,1,1,1,1,1,0,1,0,0,0,1,0,0,1,1,0]",,,,,,,,,,,,,1,2021-04-07_11h06.26.151,premceCat2_ses-01_part-01_label-phase1,2020.2.9,Win32,60,,,,,,,,0,,,,,,stimuli/m2.jpg,stimuli/m5.jpg,2,stimuli/Electronic device & accessory.png,stimuli/Hand labour tool & accessory.png,stimuli/Outdoor activity & sport item.png,stimuli/Kitchen & utensil.png,1,0,1,stimuli/m5.jpg,,stimuli/objects/walkietalkie.jpg,,,,,,,,2,0,1.304,0,11,11,11,1,Electronic device & accessory,,,,,,,
0,"[0,0,0,0,0,0,1,1,1,1,1,1,1,0,1,0,0,0,1,0,0,1,1,0]",,,,,,,,,,,,,1,2021-04-07_11h06.26.151,premceCat2_ses-01_part-01_label-phase1,2020.2.9,Win32,60,,,,,,,,0,,,,,,stimuli/m2.jpg,stimuli/m5.jpg,1,stimuli/Kitchen & utensil.png,stimuli/Electronic device & accessory.png,stimuli/Hand labour tool & accessory.png,stimuli/Outdoor activity & sport item.png,1,0,1,stimuli/m2.jpg,,stimuli/objects/coffeemaker.jpg,,,,,,,,4,0,0.937,0,12,12,12,1,Kitchen & utensil,,,,,,,
1,"[0,0,0,0,0,0,1,1,1,1,1,1,1,0,1,0,0,0,1,0,0,1,1,0]",,,,,,,,,,,,,1,2021-04-07_11h06.26.151,premceCat2_ses-01_part-01_label-phase1,2020.2.9,Win32,60,,,,,,,,1,,,,,,stimuli/m5.jpg,stimuli/m2.jpg,2,stimuli/Outdoor activity & sport item.png,stimuli/Electronic device & accessory.png,stimuli/Kitchen & utensil.png,stimuli/Hand labour tool & accessory.png,1,1,1,stimuli/m2.jpg,,stimuli/objects/bicycle.jpg,,,,,,,,1,1,1.783,0,13,13,13,1,Outdoor activity & sport item,,,,,,,
0,"[0,0,0,0,0,0,1,1,1,1,1,1,1,0,1,0,0,0,1,0,0,1,1,0,1]",,,,,,,,,,,,,1,2021-04-07_11h06.26.151,premceCat2_ses-01_part-01_label-phase1,2020.2.9,Win32,60,,,,,,,,0,,,,,,stimuli/m2.jpg,stimuli/m5.jpg,1,stimuli/Kitchen & utensil.png,stimuli/Outdoor activity & sport item.png,stimuli/Electronic device & accessory.png,stimuli/Hand labour tool & accessory.png,2,1,1,stimuli/m2.jpg,,stimuli/objects/punchingbag.jpg,,,,,,,,3,0,1.57,0,14,14,14,1,Outdoor activity & sport item,,,,,,,
0,"[0,0,0,0,0,0,1,1,1,1,1,1,1,0,1,0,0,0,1,0,0,1,1,0,1,0]",,,,,,,,,,,,,1,2021-04-07_11h06.26.151,premceCat2_ses-01_part-01_label-phase1,2020.2.9,Win32,60,,,,,,,,0,,,,,,stimuli/m5.jpg,stimuli/m2.jpg,1,stimuli/Electronic device & accessory.png,stimuli/Outdoor activity & sport item.png,stimuli/Hand labour tool & accessory.png,stimuli/Kitchen & utensil.png,2,0,1,stimuli/m5.jpg,,stimuli/objects/footballhelmet.jpg,,,,,,,,3,0,1.377,0,15,15,15,1,Outdoor activity & sport item,,,,,,,
0,"[0,0,0,0,0,0,1,1,1,1,1,1,1,0,1,0,0,0,1,0,0,1,1,0,1,0]",,,,,,,,,,,,,1,2021-04-07_11h06.26.151,premceCat2_ses-01_part-01_label-phase1,2020.2.9,Win32,60,,,,,,,,0,,,,,,stimuli/m5.jpg,stimuli/m2.jpg,1,stimuli/Kitchen & utensil.png,stimuli/Hand labour tool & accessory.png,stimuli/Electronic device & accessory.png,stimuli/Outdoor activity & sport item.png,4,0,1,stimuli/m5.jpg,,stimuli/objects/swing.jpg,,,,,,,,2,0,1.017,0,16,16,16,1,Outdoor activity & sport item,,,,,,,
1,"[0,0,0,0,0,0,1,1,1,1,1,1,1,0,1,0,0,0,1,0,0,1,1,0,1,0]",,,,,,,,,,,,,1,2021-04-07_11h06.26.151,premceCat2_ses-01_part-01_label-phase1,2020.2.9,Win32,60,,,,,,,,1,,,,,,stimuli/m2.jpg,stimuli/m5.jpg,2,stimuli/Hand labour tool & accessory.png,stimuli/Electronic device & accessory.png,stimuli/Outdoor activity & sport item.png,stimuli/Kitchen & utensil.png,1,1,1,stimuli/m5.jpg,,stimuli/objects/pitchfork.jpg,,,,,,,,1,1,1.167,0,17,17,17,1,Hand labour tool & accessory,,,,,,,
0,"[0,0,0,0,0,0,1,1,1,1,1,1,1,0,1,0,0,0,1,0,0,1,1,0,1,0,1]",,,,,,,,,,,,,1,2021-04-07_11h06.26.151,premceCat2_ses-01_part-01_label-phase1,2020.2.9,Win32,60,,,,,,,,0,,,,,,stimuli/m5.jpg,stimuli/m2.jpg,2,stimuli/Hand labour tool & accessory.png,stimuli/Outdoor activity & sport item.png,stimuli/Electronic device & accessory.png,stimuli/Kitchen & utensil.png,2,1,1,stimuli/m2.jpg,,stimuli/objects/bicycle.jpg,,,,,,,,4,0,0.859,0,18,18,18,1,Outdoor activity & sport item,,,,,,,
0,"[0,0,0,0,0,0,1,1,1,1,1,1,1,0,1,0,0,0,1,0,0,1,1,0,1,0,1,0]",,,,,,,,,,,,,1,2021-04-07_11h06.26.151,premceCat2_ses-01_part-01_label-phase1,2020.2.9,Win32,60,,,,,,,,0,,,,,,stimuli/m5.jpg,stimuli/m2.jpg,1,stimuli/Hand labour tool & accessory.png,stimuli/Outdoor activity & sport item.png,stimuli/Kitchen & utensil.png,stimuli/Electronic device & accessory.png,3,0,1,stimuli/m5.jpg,,stimuli/objects/freezer02.jpg,,,,,,,,2,0,0.844,0,19,19,19,1,Kitchen & utensil,,,,,,,
0,"[0,0,0,0,0,0,1,1,1,1,1,1,1,0,1,0,0,0,1,0,0,1,1,0,1,0,1,0]",,,,,,,,,,,,,1,2021-04-07_11h06.26.151,premceCat2_ses-01_part-01_label-phase1,2020.2.9,Win32,60,,,,,,,,0,,,,,,stimuli/m2.jpg,stimuli/m5.jpg,1,stimuli/Kitchen & utensil.png,stimuli/Hand labour tool & accessory.png,stimuli/Electronic device & accessory.png,stimuli/Outdoor activity & sport item.png,2,0,1,stimuli/m2.jpg,,stimuli/objects/handrake01a.jpg,,,,,,,,1,0,1.52,0,20,20,20,1,Hand labour tool & accessory,,,,,,,
0,"[0,0,0,0,0,0,1,1,1,1,1,1,1,0,1,0,0,0,1,0,0,1,1,0,1,0,1,0]",,,,,,,,,,,,,1,2021-04-07_11h06.26.151,premceCat2_ses-01_part-01_label-phase1,2020.2.9,Win32,60,,,,,,,,0,,,,,,stimuli/m5.jpg,stimuli/m2.jpg,1,stimuli/Outdoor activity & sport item.png,stimuli/Electronic device & accessory.png,stimuli/Hand labour tool & accessory.png,stimuli/Kitchen & utensil.png,3,1,1,stimuli/m5.jpg,,stimuli/objects/jumpingjack.jpg,,,,,,,,1,0,1.371,0,21,21,21,1,Hand labour tool & accessory,,,,,,,
0,"[0,0,0,0,0,0,1,1,1,1,1,1,1,0,1,0,0,0,1,0,0,1,1,0,1,0,1,0,0]",,,,,,,,,,,,,1,2021-04-07_11h06.26.151,premceCat2_ses-01_part-01_label-phase1,2020.2.9,Win32,60,,,,,,,,0,,,,,,stimuli/m5.jpg,stimuli/m2.jpg,2,stimuli/Electronic device & accessory.png,stimuli/Kitchen & utensil.png,stimuli/Hand labour tool & accessory.png,stimuli/Outdoor activity & sport item.png,4,1,1,stimuli/m2.jpg,,stimuli/objects/bicycle.jpg,,,,,,,,2,0,0.853,0,22,22,22,1,Outdoor activity & sport item,,,,,,,
1,"[0,0,0,0,0,0,1,1,1,1,1,1,1,0,1,0,0,0,1,0,0,1,1,0,1,0,1,0,0,0]",,,,,,,,,,,,,1,2021-04-07_11h06.26.151,premceCat2_ses-01_part-01_label-phase1,2020.2.9,Win32,60,,,,,,,,1,,,,,,stimuli/m5.jpg,stimuli/m2.jpg,1,stimuli/Hand labour tool & accessory.png,stimuli/Outdoor activity & sport item.png,stimuli/Electronic device & accessory.png,stimuli/Kitchen & utensil.png,1,1,1,stimuli/m5.jpg,,stimuli/objects/jumpingjack.jpg,,,,,,,,1,1,1.072,0,23,23,23,1,Hand labour tool & accessory,,,,,,,
0,"[0,0,0,0,0,0,1,1,1,1,1,1,1,0,1,0,0,0,1,0,0,1,1,0,1,0,1,0,0,0,1]",,,,,,,,,,,,,1,2021-04-07_11h06.26.151,premceCat2_ses-01_part-01_label-phase1,2020.2.9,Win32,60,,,,,,,,1,,,,,,stimuli/m2.jpg,stimuli/m5.jpg,2,stimuli/Outdoor activity & sport item.png,stimuli/Electronic device & accessory.png,stimuli/Hand labour tool & accessory.png,stimuli/Kitchen & utensil.png,4,0,1,stimuli/m5.jpg,,stimuli/objects/jug.jpg,,,,,,,,2,0,2.013,0,24,24,24,1,Kitchen & utensil,,,,,,,
1,"[0,0,0,0,0,0,1,1,1,1,1,1,1,0,1,0,0,0,1,0,0,1,1,0,1,0,1,0,0,0,1]",,,,,,,,,,,,,1,2021-04-07_11h06.26.151,premceCat2_ses-01_part-01_label-phase1,2020.2.9,Win32,60,,,,,,,,1,,,,,,stimuli/m2.jpg,stimuli/m5.jpg,1,stimuli/Electronic device & accessory.png,stimuli/Hand labour tool & accessory.png,stimuli/Kitchen & utensil.png,stimuli/Outdoor activity & sport item.png,4,1,1,stimuli/m2.jpg,,stimuli/objects/racquetballracket.jpg,,,,,,,,4,1,0.836,0,25,25,25,1,Outdoor activity & sport item,,,,,,,
1,"[0,0,0,0,0,0,1,1,1,1,1,1,1,0,1,0,0,0,1,0,0,1,1,0,1,0,1,0,0,0,1,1]",,,,,,,,,,,,,1,2021-04-07_11h06.26.151,premceCat2_ses-01_part-01_label-phase1,2020.2.9,Win32,60,,,,,,,,1,,,,,,stimuli/m2.jpg,stimuli/m5.jpg,2,stimuli/Kitchen & utensil.png,stimuli/Outdoor activity & sport item.png,stimuli/Electronic device & accessory.png,stimuli/Hand labour tool & accessory.png,4,1,1,stimuli/m5.jpg,,stimuli/objects/jumpingjack.jpg,,,,,,,,4,1,1.442,0,26,26,26,1,Hand labour tool & accessory,,,,,,,
0,"[0,0,0,0,0,0,1,1,1,1,1,1,1,0,1,0,0,0,1,0,0,1,1,0,1,0,1,0,0,0,1,1,1]",,,,,,,,,,,,,1,2021-04-07_11h06.26.151,premceCat2_ses-01_part-01_label-phase1,2020.2.9,Win32,60,,,,,,,,0,,,,,,stimuli/m2.jpg,stimuli/m5.jpg,2,stimuli/Hand labour tool & accessory.png,stimuli/Kitchen & utensil.png,stimuli/Electronic device & accessory.png,stimuli/Outdoor activity & sport item.png,1,1,1,stimuli/m5.jpg,,stimuli/objects/hedgetrimmer.jpg,,,,,,,,3,0,1.334,0,27,27,27,1,Hand labour tool & accessory,,,,,,,
0,"[0,0,0,0,0,0,1,1,1,1,1,1,1,0,1,0,0,0,1,0,0,1,1,0,1,0,1,0,0,0,1,1,1,0]",,,,,,,,,,,,,1,2021-04-07_11h06.26.151,premceCat2_ses-01_part-01_label-phase1,2020.2.9,Win32,60,,,,,,,,0,,,,,,stimuli/m5.jpg,stimuli/m2.jpg,1,stimuli/Kitchen & utensil.png,stimuli/Outdoor activity & sport item.png,stimuli/Electronic device & accessory.png,stimuli/Hand labour tool & accessory.png,4,1,1,stimuli/m5.jpg,,stimuli/objects/gavel.jpg,,,,,,,,1,0,1.266,0,28,28,28,1,Hand labour tool & accessory,,,,,,,
1,"[0,0,0,0,0,0,1,1,1,1,1,1,1,0,1,0,0,0,1,0,0,1,1,0,1,0,1,0,0,0,1,1,1,0,0]",,,,,,,,,,,,,1,2021-04-07_11h06.26.151,premceCat2_ses-01_part-01_label-phase1,2020.2.9,Win32,60,,,,,,,,1,,,,,,stimuli/m2.jpg,stimuli/m5.jpg,2,stimuli/Electronic device & accessory.png,stimuli/Hand labour tool & accessory.png,stimuli/Kitchen & utensil.png,stimuli/Outdoor activity & sport item.png,2,1,1,stimuli/m5.jpg,,stimuli/objects/gavel.jpg,,,,,,,,2,1,1.59,0,29,29,29,1,Hand labour tool & accessory,,,,,,,
0,"[0,0,0,0,0,0,1,1,1,1,1,1,1,0,1,0,0,0,1,0,0,1,1,0,1,0,1,0,0,0,1,1,1,0,0,1]",,,,,,,,,,,,,1,2021-04-07_11h06.26.151,premceCat2_ses-01_part-01_label-phase1,2020.2.9,Win32,60,,,,,,,,0,,,,,,stimuli/m2.jpg,stimuli/m5.jpg,1,stimuli/Kitchen & utensil.png,stimuli/Hand labour tool & accessory.png,stimuli/Outdoor activity & sport item.png,stimuli/Electronic device & accessory.png,3,1,1,stimuli/m2.jpg,,stimuli/objects/racquetballracket.jpg,,,,,,,,1,0,0.822,0,30,30,30,1,Outdoor activity & sport item,,,,,,,
1,"[0,0,0,0,0,0,1,1,1,1,1,1,1,0,1,0,0,0,1,0,0,1,1,0,1,0,1,0,0,0,1,1,1,0,0,1,0]",,,,,,,,,,,,,1,2021-04-07_11h06.26.151,premceCat2_ses-01_part-01_label-phase1,2020.2.9,Win32,60,,,,,,,,1,,,,,,stimuli/m5.jpg,stimuli/m2.jpg,2,stimuli/Kitchen & utensil.png,stimuli/Electronic device & accessory.png,stimuli/Outdoor activity & sport item.png,stimuli/Hand labour tool & accessory.png,3,1,1,stimuli/m2.jpg,,stimuli/objects/punchingbag.jpg,,,,,,,,3,1,1.54,0,31,31,31,1,Outdoor activity & sport item,,,,,,,
1,"[0,0,0,0,0,0,1,1,1,1,1,1,1,0,1,0,0,0,1,0,0,1,1,0,1,0,1,0,0,0,1,1,1,0,0,1,0,1]",,,,,,,,,,,,,1,2021-04-07_11h06.26.151,premceCat2_ses-01_part-01_label-phase1,2020.2.9,Win32,60,,,,,,,,1,,,,,,stimuli/m2.jpg,stimuli/m5.jpg,2,stimuli/Outdoor activity & sport item.png,stimuli/Hand labour tool & accessory.png,stimuli/Kitchen & utensil.png,stimuli/Electronic device & accessory.png,4,0,1,stimuli/m5.jpg,,stimuli/objects/camera01a.jpg,,,,,,,,4,1,0.896,0,32,32,32,1,Electronic device & accessory,,,,,,,
0,"[0,0,0,0,0,0,1,1,1,1,1,1,1,0,1,0,0,0,1,0,0,1,1,0,1,0,1,0,0,0,1,1,1,0,0,1,0,1]",,,,,,,,,,,,,1,2021-04-07_11h06.26.151,premceCat2_ses-01_part-01_label-phase1,2020.2.9,Win32,60,,,,,,,,0,,,,,,stimuli/m2.jpg,stimuli/m5.jpg,2,stimuli/Outdoor activity & sport item.png,stimuli/Electronic device & accessory.png,stimuli/Kitchen & utensil.png,stimuli/Hand labour tool & accessory.png,4,1,1,stimuli/m5.jpg,,stimuli/objects/jumpingjack.jpg,,,,,,,,2,0,1.465,0,33,33,33,1,Hand labour tool & accessory,,,,,,,
0,"[0,0,0,0,0,0,1,1,1,1,1,1,1,0,1,0,0,0,1,0,0,1,1,0,1,0,1,0,0,0,1,1,1,0,0,1,0,1,0]",,,,,,,,,,,,,1,2021-04-07_11h06.26.151,premceCat2_ses-01_part-01_label-phase1,2020.2.9,Win32,60,,,,,,,,0,,,,,,stimuli/m2.jpg,stimuli/m5.jpg,1,stimuli/Electronic device & accessory.png,stimuli/Kitchen & utensil.png,stimuli/Outdoor activity & sport item.png,stimuli/Hand labour tool & accessory.png,3,1,1,stimuli/m2.jpg,,stimuli/objects/swing.jpg,,,,,,,,2,0,1.41,0,34,34,34,1,Outdoor activity & sport item,,,,,,,
0,"[0,0,0,0,0,0,1,1,1,1,1,1,1,0,1,0,0,0,1,0,0,1,1,0,1,0,1,0,0,0,1,1,1,0,0,1,0,1,0,0]",,,,,,,,,,,,,1,2021-04-07_11h06.26.151,premceCat2_ses-01_part-01_label-phase1,2020.2.9,Win32,60,,,,,,,,0,,,,,,stimuli/m5.jpg,stimuli/m2.jpg,1,stimuli/Hand labour tool & accessory.png,stimuli/Kitchen & utensil.png,stimuli/Outdoor activity & sport item.png,stimuli/Electronic device & accessory.png,1,1,1,stimuli/m5.jpg,,stimuli/objects/pitchfork.jpg,,,,,,,,3,0,1.609,0,35,35,35,1,Hand labour tool & accessory,,,,,,,
1,"[0,0,0,0,0,0,1,1,1,1,1,1,1,0,1,0,0,0,1,0,0,1,1,0,1,0,1,0,0,0,1,1,1,0,0,1,0,1,0,0,0]",,,,,,,,,,,,,1,2021-04-07_11h06.26.151,premceCat2_ses-01_part-01_label-phase1,2020.2.9,Win32,60,,,,,,,,1,,,,,,stimuli/m2.jpg,stimuli/m5.jpg,1,stimuli/Electronic device & accessory.png,stimuli/Outdoor activity & sport item.png,stimuli/Hand labour tool & accessory.png,stimuli/Kitchen & utensil.png,2,1,1,stimuli/m2.jpg,,stimuli/objects/racquetballracket.jpg,,,,,,,,2,1,2.143,0,36,36,36,1,Outdoor activity & sport item,,,,,,,
1,"[0,0,0,0,0,0,1,1,1,1,1,1,1,0,1,0,0,0,1,0,0,1,1,0,1,0,1,0,0,0,1,1,1,0,0,1,0,1,0,0,0,1]",,,,,,,,,,,,,1,2021-04-07_11h06.26.151,premceCat2_ses-01_part-01_label-phase1,2020.2.9,Win32,60,,,,,,,,1,,,,,,stimuli/m2.jpg,stimuli/m5.jpg,1,stimuli/Outdoor activity & sport item.png,stimuli/Hand labour tool & accessory.png,stimuli/Electronic device & accessory.png,stimuli/Kitchen & utensil.png,1,1,1,stimuli/m2.jpg,,stimuli/objects/telescope.jpg,,,,,,,,1,1,1.549,0,37,37,37,1,Outdoor activity & sport item,,,,,,,
1,"[0,0,0,0,0,0,1,1,1,1,1,1,1,0,1,0,0,0,1,0,0,1,1,0,1,0,1,0,0,0,1,1,1,0,0,1,0,1,0,0,0,1,1]",,,,,,,,,,,,,1,2021-04-07_11h06.26.151,premceCat2_ses-01_part-01_label-phase1,2020.2.9,Win32,60,,,,,,,,1,,,,,,stimuli/m5.jpg,stimuli/m2.jpg,2,stimuli/Hand labour tool & accessory.png,stimuli/Kitchen & utensil.png,stimuli/Electronic device & accessory.png,stimuli/Outdoor activity & sport item.png,4,1,1,stimuli/m2.jpg,,stimuli/objects/footballhelmet.jpg,,,,,,,,4,1,1.398,0,38,38,38,1,Outdoor activity & sport item,,,,,,,
0,"[0,0,0,0,0,0,1,1,1,1,1,1,1,0,1,0,0,0,1,0,0,1,1,0,1,0,1,0,0,0,1,1,1,0,0,1,0,1,0,0,0,1,1,1]",,,,,,,,,,,,,1,2021-04-07_11h06.26.151,premceCat2_ses-01_part-01_label-phase1,2020.2.9,Win32,60,,,,,,,,0,,,,,,stimuli/m5.jpg,stimuli/m2.jpg,2,stimuli/Kitchen & utensil.png,stimuli/Hand labour tool & accessory.png,stimuli/Outdoor activity & sport item.png,stimuli/Electronic device & accessory.png,3,1,1,stimuli/m2.jpg,,stimuli/objects/swing.jpg,,,,,,,,2,0,1.804,0,39,39,39,1,Outdoor activity & sport item,,,,,,,
1,"[0,0,0,0,0,0,1,1,1,1,1,1,1,0,1,0,0,0,1,0,0,1,1,0,1,0,1,0,0,0,1,1,1,0,0,1,0,1,0,0,0,1,1,1,0]",,,,,,,,,,,,,1,2021-04-07_11h06.26.151,premceCat2_ses-01_part-01_label-phase1,2020.2.9,Win32,60,,,,,,,,1,,,,,,stimuli/m5.jpg,stimuli/m2.jpg,1,stimuli/Outdoor activity & sport item.png,stimuli/Hand labour tool & accessory.png,stimuli/Electronic device & accessory.png,stimuli/Kitchen & utensil.png,2,1,1,stimuli/m5.jpg,,stimuli/objects/pitchfork.jpg,,,,,,,,2,1,0.736,0,40,40,40,1,Hand labour tool & accessory,,,,,,,
1,"[0,0,0,0,0,0,1,1,1,1,1,1,1,0,1,0,0,0,1,0,0,1,1,0,1,0,1,0,0,0,1,1,1,0,0,1,0,1,0,0,0,1,1,1,0,1]",,,,,,,,,,,,,1,2021-04-07_11h06.26.151,premceCat2_ses-01_part-01_label-phase1,2020.2.9,Win32,60,,,,,,,,1,,,,,,stimuli/m2.jpg,stimuli/m5.jpg,1,stimuli/Hand labour tool & accessory.png,stimuli/Outdoor activity & sport item.png,stimuli/Electronic device & accessory.png,stimuli/Kitchen & utensil.png,2,1,1,stimuli/m2.jpg,,stimuli/objects/footballhelmet.jpg,,,,,,,,2,1,1.612,0,41,41,41,1,Outdoor activity & sport item,,,,,,,
1,"[0,0,0,0,0,0,1,1,1,1,1,1,1,0,1,0,0,0,1,0,0,1,1,0,1,0,1,0,0,0,1,1,1,0,0,1,0,1,0,0,0,1,1,1,0,1,1]",,,,,,,,,,,,,1,2021-04-07_11h06.26.151,premceCat2_ses-01_part-01_label-phase1,2020.2.9,Win32,60,,,,,,,,1,,,,,,stimuli/m5.jpg,stimuli/m2.jpg,2,stimuli/Hand labour tool & accessory.png,stimuli/Outdoor activity & sport item.png,stimuli/Kitchen & utensil.png,stimuli/Electronic device & accessory.png,2,1,1,stimuli/m2.jpg,,stimuli/objects/rollerblade.jpg,,,,,,,,2,1,0.569,0,42,42,42,1,Outdoor activity & sport item,,,,,,,
1,"[0,0,0,0,0,0,1,1,1,1,1,1,1,0,1,0,0,0,1,0,0,1,1,0,1,0,1,0,0,0,1,1,1,0,0,1,0,1,0,0,0,1,1,1,0,1,1,1]",,,,,,,,,,,,,1,2021-04-07_11h06.26.151,premceCat2_ses-01_part-01_label-phase1,2020.2.9,Win32,60,,,,,,,,1,,,,,,stimuli/m2.jpg,stimuli/m5.jpg,1,stimuli/Outdoor activity & sport item.png,stimuli/Kitchen & utensil.png,stimuli/Hand labour tool & accessory.png,stimuli/Electronic device & accessory.png,1,1,1,stimuli/m2.jpg,,stimuli/objects/crosscountryski.jpg,,,,,,,,1,1,0.904,0,43,43,43,1,Outdoor activity & sport item,,,,,,,
1,"[0,0,0,0,0,0,1,1,1,1,1,1,1,0,1,0,0,0,1,0,0,1,1,0,1,0,1,0,0,0,1,1,1,0,0,1,0,1,0,0,0,1,1,1,0,1,1,1,1]",,,,,,,,,,,,,1,2021-04-07_11h06.26.151,premceCat2_ses-01_part-01_label-phase1,2020.2.9,Win32,60,,,,,,,,1,,,,,,stimuli/m5.jpg,stimuli/m2.jpg,1,stimuli/Kitchen & utensil.png,stimuli/Outdoor activity & sport item.png,stimuli/Hand labour tool & accessory.png,stimuli/Electronic device & accessory.png,3,1,1,stimuli/m5.jpg,,stimuli/objects/solderingiron.jpg,,,,,,,,3,1,1.109,0,44,44,44,1,Hand labour tool & accessory,,,,,,,
0,"[0,0,0,0,0,0,1,1,1,1,1,1,1,0,1,0,0,0,1,0,0,1,1,0,1,0,1,0,0,0,1,1,1,0,0,1,0,1,0,0,0,1,1,1,0,1,1,1,1,1]",,,,,,,,,,,,,1,2021-04-07_11h06.26.151,premceCat2_ses-01_part-01_label-phase1,2020.2.9,Win32,60,,,,,,,,1,,,,,,stimuli/m5.jpg,stimuli/m2.jpg,2,stimuli/Kitchen & utensil.png,stimuli/Hand labour tool & accessory.png,stimuli/Electronic device & accessory.png,stimuli/Outdoor activity & sport item.png,2,0,1,stimuli/m2.jpg,,stimuli/objects/boxcutter03a.jpg,,,,,,,,4,0,1.959,0,45,45,45,1,Hand labour tool & accessory,,,,,,,
0,"[0,0,0,0,0,0,1,1,1,1,1,1,1,0,1,0,0,0,1,0,0,1,1,0,1,0,1,0,0,0,1,1,1,0,0,1,0,1,0,0,0,1,1,1,0,1,1,1,1,1]",,,,,,,,,,,,,1,2021-04-07_11h06.26.151,premceCat2_ses-01_part-01_label-phase1,2020.2.9,Win32,60,,,,,,,,0,,,,,,stimuli/m2.jpg,stimuli/m5.jpg,2,stimuli/Kitchen & utensil.png,stimuli/Electronic device & accessory.png,stimuli/Hand labour tool & accessory.png,stimuli/Outdoor activity & sport item.png,3,1,1,stimuli/m5.jpg,,stimuli/objects/gavel.jpg,,,,,,,,4,0,1.866,0,46,46,46,1,Hand labour tool & accessory,,,,,,,
0,"[0,0,0,0,0,0,1,1,1,1,1,1,1,0,1,0,0,0,1,0,0,1,1,0,1,0,1,0,0,0,1,1,1,0,0,1,0,1,0,0,0,1,1,1,0,1,1,1,1,1,0]",,,,,,,,,,,,,1,2021-04-07_11h06.26.151,premceCat2_ses-01_part-01_label-phase1,2020.2.9,Win32,60,,,,,,,,0,,,,,,stimuli/m5.jpg,stimuli/m2.jpg,2,stimuli/Outdoor activity & sport item.png,stimuli/Hand labour tool & accessory.png,stimuli/Kitchen & utensil.png,stimuli/Electronic device & accessory.png,4,0,1,stimuli/m2.jpg,,stimuli/objects/jack.jpg,,,,,,,,1,0,1.559,0,47,47,47,1,Electronic device & accessory,,,,,,,
,,,,,,,,,,,,,,1,2021-04-07_11h06.26.151,premceCat2_ses-01_part-01_label-phase1,2020.2.9,Win32,60,,,,,,,,,,,,,,,,,,,,,,,,,,,,,,,,,,,,,,,,,,,n,45.604,0,0,0,0,1
