"","X.56","X.55","X.54","X.53","X.52","X.51","X.50","X.49","X.48","X.47","X.46","X.45","X.44","X.43","X.42","X.41","X.40","X.39","X.38","X.37","X.36","X.35","X.34","X.33","X.32","X.31","X.30","X.29","X.28","X.27","X.26","X.25","X.24","X.23","X.22","X.21","X.20","X.19","X.18","X.17","X.16","X.15","X.14","X.13","X.12","X.11","X.10","X.9","X.8","X.7","X.6","X.5","X.4","X.3","X.2","X.1","X","instructions_loop.thisRepN","instructions_loop.thisTrialN","instructions_loop.thisN","instructions_loop.thisIndex","instructions_loop.ran","text1","text2","text3","participant","date","expName","psychopyVersion","OS","frameRate","key_resp_2.keys","key_resp_2.rt","key_resp_3.keys","key_resp_3.rt","recog_resp.keys","recog_resp.rt","conf_resp.keys","conf_resp.rt","recog_loop.thisRepN","recog_loop.thisTrialN","recog_loop.thisN","recog_loop.thisIndex","recog_loop.ran","images","corr_ans","type","order","resp_assoc.keys","resp_assoc.rt","assoc_loop.thisRepN","assoc_loop.thisTrialN","assoc_loop.thisN","assoc_loop.thisIndex","assoc_loop.ran","key_resp_break.keys","key_resp_break.rt","list_loop.thisRepN","list_loop.thisTrialN","list_loop.thisN","list_loop.thisIndex","list_loop.ran","recog_list"
"1",1,1,1,1,1,1,1,1,1,1,1,1,1,1,1,1,1,1,1,1,1,1,1,1,1,1,1,1,1,1,1,1,1,1,1,1,1,1,1,1,1,1,1,1,1,1,1,1,1,1,1,1,1,1,1,1,1,0,0,0,0,1,"Welcome to the last phase of this experiment!",".","Please press the space bar to continue",1,"2021-04-08_16h59.52.507","premceCat2_ses-02_part-02_label-phase2","2020.2.10","Win32",60,"",NA,"",NA,"",NA,NA,NA,NA,NA,NA,NA,NA,"","","",NA,"",NA,NA,NA,NA,NA,NA,"",NA,NA,NA,NA,NA,NA,""
"2",2,2,2,2,2,2,2,2,2,2,2,2,2,2,2,2,2,2,2,2,2,2,2,2,2,2,2,2,2,2,2,2,2,2,2,2,2,2,2,2,2,2,2,2,2,2,2,2,2,2,2,2,2,2,2,2,2,0,1,1,1,1,".","In this phase, you will see some objects. 

For each object, you should indicate whether you have seen it before during the experiment.

Press LEFT ARROW for YES
Press RIGHT ARROW for NO

","Please press the space bar to continue ",1,"2021-04-08_16h59.52.507","premceCat2_ses-02_part-02_label-phase2","2020.2.10","Win32",60,"",NA,"",NA,"",NA,NA,NA,NA,NA,NA,NA,NA,"","","",NA,"",NA,NA,NA,NA,NA,NA,"",NA,NA,NA,NA,NA,NA,""
"3",3,3,3,3,3,3,3,3,3,3,3,3,3,3,3,3,3,3,3,3,3,3,3,3,3,3,3,3,3,3,3,3,3,3,3,3,3,3,3,3,3,3,3,3,3,3,3,3,3,3,3,3,3,3,3,3,3,0,2,2,2,1,".","After that, you will be asked how confident you are of your choice.

Please rate the confidence in your choice with the numbers from 1 to 4 of your keyboard. 

The numbers correspond to:

1 = Very unsure
2 = Unsure
3 = Sure
4 = Very Sure","Please press the space bar to continue",1,"2021-04-08_16h59.52.507","premceCat2_ses-02_part-02_label-phase2","2020.2.10","Win32",60,"",NA,"",NA,"",NA,NA,NA,NA,NA,NA,NA,NA,"","","",NA,"",NA,NA,NA,NA,NA,NA,"",NA,NA,NA,NA,NA,NA,""
"4",4,4,4,4,4,4,4,4,4,4,4,4,4,4,4,4,4,4,4,4,4,4,4,4,4,4,4,4,4,4,4,4,4,4,4,4,4,4,4,4,4,4,4,4,4,4,4,4,4,4,4,4,4,4,4,4,4,NA,NA,NA,NA,NA,"","","",1,"2021-04-08_16h59.52.507","premceCat2_ses-02_part-02_label-phase2","2020.2.10","Win32",60,"space",15.913,"space",42.243,"right",5.911,3,2.314,0,0,0,20,1,"stimuli/objects/laptop01a.jpg","right","new",21,"",NA,NA,NA,NA,NA,NA,"",NA,NA,NA,NA,NA,NA,""
"5",5,5,5,5,5,5,5,5,5,5,5,5,5,5,5,5,5,5,5,5,5,5,5,5,5,5,5,5,5,5,5,5,5,5,5,5,5,5,5,5,5,5,5,5,5,5,5,5,5,5,5,5,5,5,5,5,5,NA,NA,NA,NA,NA,"","","",1,"2021-04-08_16h59.52.507","premceCat2_ses-02_part-02_label-phase2","2020.2.10","Win32",60,"",NA,"",NA,"right",2.805,3,0.729,0,1,1,93,1,"stimuli/objects/icepack.jpg","right","new",94,"",NA,NA,NA,NA,NA,NA,"",NA,NA,NA,NA,NA,NA,""
"6",6,6,6,6,6,6,6,6,6,6,6,6,6,6,6,6,6,6,6,6,6,6,6,6,6,6,6,6,6,6,6,6,6,6,6,6,6,6,6,6,6,6,6,6,6,6,6,6,6,6,6,6,6,6,6,6,6,NA,NA,NA,NA,NA,"","","",1,"2021-04-08_16h59.52.507","premceCat2_ses-02_part-02_label-phase2","2020.2.10","Win32",60,"",NA,"",NA,"left",1.198,3,0.426,NA,NA,NA,NA,NA,"","","",NA,"left",6.137,0,0,0,0,1,"",NA,NA,NA,NA,NA,NA,""
"7",7,7,7,7,7,7,7,7,7,7,7,7,7,7,7,7,7,7,7,7,7,7,7,7,7,7,7,7,7,7,7,7,7,7,7,7,7,7,7,7,7,7,7,7,7,7,7,7,7,7,7,7,7,7,7,7,7,NA,NA,NA,NA,NA,"","","",1,"2021-04-08_16h59.52.507","premceCat2_ses-02_part-02_label-phase2","2020.2.10","Win32",60,"",NA,"",NA,"",NA,NA,NA,0,2,2,6,1,"stimuli/objects/saladspinner.jpg","left","old",7,"",NA,NA,NA,NA,NA,NA,"",NA,NA,NA,NA,NA,NA,""
"8",8,8,8,8,8,8,8,8,8,8,8,8,8,8,8,8,8,8,8,8,8,8,8,8,8,8,8,8,8,8,8,8,8,8,8,8,8,8,8,8,8,8,8,8,8,8,8,8,8,8,8,8,8,8,8,8,8,NA,NA,NA,NA,NA,"","","",1,"2021-04-08_16h59.52.507","premceCat2_ses-02_part-02_label-phase2","2020.2.10","Win32",60,"",NA,"",NA,"right",1.396,3,0.758,0,3,3,30,1,"stimuli/objects/printer02.jpg","right","new",31,"",NA,NA,NA,NA,NA,NA,"",NA,NA,NA,NA,NA,NA,""
"9",9,9,9,9,9,9,9,9,9,9,9,9,9,9,9,9,9,9,9,9,9,9,9,9,9,9,9,9,9,9,9,9,9,9,9,9,9,9,9,9,9,9,9,9,9,9,9,9,9,9,9,9,9,9,9,9,9,NA,NA,NA,NA,NA,"","","",1,"2021-04-08_16h59.52.507","premceCat2_ses-02_part-02_label-phase2","2020.2.10","Win32",60,"",NA,"",NA,"left",2.695,2,0.894,NA,NA,NA,NA,NA,"","","",NA,"right",2.021,0,0,0,0,1,"",NA,NA,NA,NA,NA,NA,""
"10",10,10,10,10,10,10,10,10,10,10,10,10,10,10,10,10,10,10,10,10,10,10,10,10,10,10,10,10,10,10,10,10,10,10,10,10,10,10,10,10,10,10,10,10,10,10,10,10,10,10,10,10,10,10,10,10,10,NA,NA,NA,NA,NA,"","","",1,"2021-04-08_16h59.52.507","premceCat2_ses-02_part-02_label-phase2","2020.2.10","Win32",60,"",NA,"",NA,"",NA,NA,NA,0,4,4,89,1,"stimuli/objects/ducttape.jpg","right","new",90,"",NA,NA,NA,NA,NA,NA,"",NA,NA,NA,NA,NA,NA,""
"11",11,11,11,11,11,11,11,11,11,11,11,11,11,11,11,11,11,11,11,11,11,11,11,11,11,11,11,11,11,11,11,11,11,11,11,11,11,11,11,11,11,11,11,11,11,11,11,11,11,11,11,11,11,11,11,11,11,NA,NA,NA,NA,NA,"","","",1,"2021-04-08_16h59.52.507","premceCat2_ses-02_part-02_label-phase2","2020.2.10","Win32",60,"",NA,"",NA,"right",1.707,2,0.597,0,5,5,92,1,"stimuli/objects/carjack.jpg","right","new",93,"",NA,NA,NA,NA,NA,NA,"",NA,NA,NA,NA,NA,NA,""
"12",12,12,12,12,12,12,12,12,12,12,12,12,12,12,12,12,12,12,12,12,12,12,12,12,12,12,12,12,12,12,12,12,12,12,12,12,12,12,12,12,12,12,12,12,12,12,12,12,12,12,12,12,12,12,12,12,12,NA,NA,NA,NA,NA,"","","",1,"2021-04-08_16h59.52.507","premceCat2_ses-02_part-02_label-phase2","2020.2.10","Win32",60,"",NA,"",NA,"left",1.341,3,0.423,NA,NA,NA,NA,NA,"","","",NA,"right",0.788,0,0,0,0,1,"",NA,NA,NA,NA,NA,NA,""
"13",13,13,13,13,13,13,13,13,13,13,13,13,13,13,13,13,13,13,13,13,13,13,13,13,13,13,13,13,13,13,13,13,13,13,13,13,13,13,13,13,13,13,13,13,13,13,13,13,13,13,13,13,13,13,13,13,13,NA,NA,NA,NA,NA,"","","",1,"2021-04-08_16h59.52.507","premceCat2_ses-02_part-02_label-phase2","2020.2.10","Win32",60,"",NA,"",NA,"",NA,NA,NA,0,6,6,21,1,"stimuli/objects/paintbrush01.jpg","right","new",22,"",NA,NA,NA,NA,NA,NA,"",NA,NA,NA,NA,NA,NA,""
"14",14,14,14,14,14,14,14,14,14,14,14,14,14,14,14,14,14,14,14,14,14,14,14,14,14,14,14,14,14,14,14,14,14,14,14,14,14,14,14,14,14,14,14,14,14,14,14,14,14,14,14,14,14,14,14,14,14,NA,NA,NA,NA,NA,"","","",1,"2021-04-08_16h59.52.507","premceCat2_ses-02_part-02_label-phase2","2020.2.10","Win32",60,"",NA,"",NA,"left",1.287,4,0.362,NA,NA,NA,NA,NA,"","","",NA,"left",1.631,0,0,0,0,1,"",NA,NA,NA,NA,NA,NA,""
"15",15,15,15,15,15,15,15,15,15,15,15,15,15,15,15,15,15,15,15,15,15,15,15,15,15,15,15,15,15,15,15,15,15,15,15,15,15,15,15,15,15,15,15,15,15,15,15,15,15,15,15,15,15,15,15,15,15,NA,NA,NA,NA,NA,"","","",1,"2021-04-08_16h59.52.507","premceCat2_ses-02_part-02_label-phase2","2020.2.10","Win32",60,"",NA,"",NA,"",NA,NA,NA,0,7,7,48,1,"stimuli/objects/woodenspoon.jpg","left","old",49,"",NA,NA,NA,NA,NA,NA,"",NA,NA,NA,NA,NA,NA,""
"16",16,16,16,16,16,16,16,16,16,16,16,16,16,16,16,16,16,16,16,16,16,16,16,16,16,16,16,16,16,16,16,16,16,16,16,16,16,16,16,16,16,16,16,16,16,16,16,16,16,16,16,16,16,16,16,16,16,NA,NA,NA,NA,NA,"","","",1,"2021-04-08_16h59.52.507","premceCat2_ses-02_part-02_label-phase2","2020.2.10","Win32",60,"",NA,"",NA,"left",2.334,3,1.249,NA,NA,NA,NA,NA,"","","",NA,"left",1.661,0,0,0,0,1,"",NA,NA,NA,NA,NA,NA,""
"17",17,17,17,17,17,17,17,17,17,17,17,17,17,17,17,17,17,17,17,17,17,17,17,17,17,17,17,17,17,17,17,17,17,17,17,17,17,17,17,17,17,17,17,17,17,17,17,17,17,17,17,17,17,17,17,17,17,NA,NA,NA,NA,NA,"","","",1,"2021-04-08_16h59.52.507","premceCat2_ses-02_part-02_label-phase2","2020.2.10","Win32",60,"",NA,"",NA,"",NA,NA,NA,0,8,8,84,1,"stimuli/objects/catchermask.jpg","left","old",85,"",NA,NA,NA,NA,NA,NA,"",NA,NA,NA,NA,NA,NA,""
"18",18,18,18,18,18,18,18,18,18,18,18,18,18,18,18,18,18,18,18,18,18,18,18,18,18,18,18,18,18,18,18,18,18,18,18,18,18,18,18,18,18,18,18,18,18,18,18,18,18,18,18,18,18,18,18,18,18,NA,NA,NA,NA,NA,"","","",1,"2021-04-08_16h59.52.507","premceCat2_ses-02_part-02_label-phase2","2020.2.10","Win32",60,"",NA,"",NA,"right",1.985,2,0.904,0,9,9,40,1,"stimuli/objects/sledgehammer.jpg","left","old",41,"",NA,NA,NA,NA,NA,NA,"",NA,NA,NA,NA,NA,NA,""
"19",19,19,19,19,19,19,19,19,19,19,19,19,19,19,19,19,19,19,19,19,19,19,19,19,19,19,19,19,19,19,19,19,19,19,19,19,19,19,19,19,19,19,19,19,19,19,19,19,19,19,19,19,19,19,19,19,19,NA,NA,NA,NA,NA,"","","",1,"2021-04-08_16h59.52.507","premceCat2_ses-02_part-02_label-phase2","2020.2.10","Win32",60,"",NA,"",NA,"left",2.122,2,0.521,NA,NA,NA,NA,NA,"","","",NA,"right",1.99,0,0,0,0,1,"",NA,NA,NA,NA,NA,NA,""
"20",20,20,20,20,20,20,20,20,20,20,20,20,20,20,20,20,20,20,20,20,20,20,20,20,20,20,20,20,20,20,20,20,20,20,20,20,20,20,20,20,20,20,20,20,20,20,20,20,20,20,20,20,20,20,20,20,20,NA,NA,NA,NA,NA,"","","",1,"2021-04-08_16h59.52.507","premceCat2_ses-02_part-02_label-phase2","2020.2.10","Win32",60,"",NA,"",NA,"",NA,NA,NA,0,10,10,69,1,"stimuli/objects/cellphone.jpg","left","old",70,"",NA,NA,NA,NA,NA,NA,"",NA,NA,NA,NA,NA,NA,""
"21",21,21,21,21,21,21,21,21,21,21,21,21,21,21,21,21,21,21,21,21,21,21,21,21,21,21,21,21,21,21,21,21,21,21,21,21,21,21,21,21,21,21,21,21,21,21,21,21,21,21,21,21,21,21,21,21,21,NA,NA,NA,NA,NA,"","","",1,"2021-04-08_16h59.52.507","premceCat2_ses-02_part-02_label-phase2","2020.2.10","Win32",60,"",NA,"",NA,"left",1.6,3,0.344,NA,NA,NA,NA,NA,"","","",NA,"right",0.501,0,0,0,0,1,"",NA,NA,NA,NA,NA,NA,""
"22",22,22,22,22,22,22,22,22,22,22,22,22,22,22,22,22,22,22,22,22,22,22,22,22,22,22,22,22,22,22,22,22,22,22,22,22,22,22,22,22,22,22,22,22,22,22,22,22,22,22,22,22,22,22,22,22,22,NA,NA,NA,NA,NA,"","","",1,"2021-04-08_16h59.52.507","premceCat2_ses-02_part-02_label-phase2","2020.2.10","Win32",60,"",NA,"",NA,"",NA,NA,NA,0,11,11,10,1,"stimuli/objects/desktopcomputer.jpg","left","old",11,"",NA,NA,NA,NA,NA,NA,"",NA,NA,NA,NA,NA,NA,""
"23",23,23,23,23,23,23,23,23,23,23,23,23,23,23,23,23,23,23,23,23,23,23,23,23,23,23,23,23,23,23,23,23,23,23,23,23,23,23,23,23,23,23,23,23,23,23,23,23,23,23,23,23,23,23,23,23,23,NA,NA,NA,NA,NA,"","","",1,"2021-04-08_16h59.52.507","premceCat2_ses-02_part-02_label-phase2","2020.2.10","Win32",60,"",NA,"",NA,"left",1.4,3,0.346,NA,NA,NA,NA,NA,"","","",NA,"left",0.487,0,0,0,0,1,"",NA,NA,NA,NA,NA,NA,""
"24",24,24,24,24,24,24,24,24,24,24,24,24,24,24,24,24,24,24,24,24,24,24,24,24,24,24,24,24,24,24,24,24,24,24,24,24,24,24,24,24,24,24,24,24,24,24,24,24,24,24,24,24,24,24,24,24,24,NA,NA,NA,NA,NA,"","","",1,"2021-04-08_16h59.52.507","premceCat2_ses-02_part-02_label-phase2","2020.2.10","Win32",60,"",NA,"",NA,"",NA,NA,NA,0,12,12,28,1,"stimuli/objects/baseballbat.jpg","left","old",29,"",NA,NA,NA,NA,NA,NA,"",NA,NA,NA,NA,NA,NA,""
"25",25,25,25,25,25,25,25,25,25,25,25,25,25,25,25,25,25,25,25,25,25,25,25,25,25,25,25,25,25,25,25,25,25,25,25,25,25,25,25,25,25,25,25,25,25,25,25,25,25,25,25,25,25,25,25,25,25,NA,NA,NA,NA,NA,"","","",1,"2021-04-08_16h59.52.507","premceCat2_ses-02_part-02_label-phase2","2020.2.10","Win32",60,"",NA,"",NA,"right",0.993,4,0.57,0,13,13,22,1,"stimuli/objects/umbrella04.jpg","right","new",23,"",NA,NA,NA,NA,NA,NA,"",NA,NA,NA,NA,NA,NA,""
"26",26,26,26,26,26,26,26,26,26,26,26,26,26,26,26,26,26,26,26,26,26,26,26,26,26,26,26,26,26,26,26,26,26,26,26,26,26,26,26,26,26,26,26,26,26,26,26,26,26,26,26,26,26,26,26,26,26,NA,NA,NA,NA,NA,"","","",1,"2021-04-08_16h59.52.507","premceCat2_ses-02_part-02_label-phase2","2020.2.10","Win32",60,"",NA,"",NA,"right",1.301,3,0.391,0,14,14,110,1,"stimuli/objects/lock03a.jpg","right","new",111,"",NA,NA,NA,NA,NA,NA,"",NA,NA,NA,NA,NA,NA,""
"27",27,27,27,27,27,27,27,27,27,27,27,27,27,27,27,27,27,27,27,27,27,27,27,27,27,27,27,27,27,27,27,27,27,27,27,27,27,27,27,27,27,27,27,27,27,27,27,27,27,27,27,27,27,27,27,27,27,NA,NA,NA,NA,NA,"","","",1,"2021-04-08_16h59.52.507","premceCat2_ses-02_part-02_label-phase2","2020.2.10","Win32",60,"",NA,"",NA,"right",2.386,2,0.377,0,15,15,38,1,"stimuli/objects/soundmixer.jpg","right","new",39,"",NA,NA,NA,NA,NA,NA,"",NA,NA,NA,NA,NA,NA,""
"28",28,28,28,28,28,28,28,28,28,28,28,28,28,28,28,28,28,28,28,28,28,28,28,28,28,28,28,28,28,28,28,28,28,28,28,28,28,28,28,28,28,28,28,28,28,28,28,28,28,28,28,28,28,28,28,28,28,NA,NA,NA,NA,NA,"","","",1,"2021-04-08_16h59.52.507","premceCat2_ses-02_part-02_label-phase2","2020.2.10","Win32",60,"",NA,"",NA,"right",1.116,2,0.423,0,16,16,111,1,"stimuli/objects/speaker04.jpg","right","new",112,"",NA,NA,NA,NA,NA,NA,"",NA,NA,NA,NA,NA,NA,""
"29",29,29,29,29,29,29,29,29,29,29,29,29,29,29,29,29,29,29,29,29,29,29,29,29,29,29,29,29,29,29,29,29,29,29,29,29,29,29,29,29,29,29,29,29,29,29,29,29,29,29,29,29,29,29,29,29,29,NA,NA,NA,NA,NA,"","","",1,"2021-04-08_16h59.52.507","premceCat2_ses-02_part-02_label-phase2","2020.2.10","Win32",60,"",NA,"",NA,"left",1.678,2,0.417,NA,NA,NA,NA,NA,"","","",NA,"right",0.308,0,0,0,0,1,"",NA,NA,NA,NA,NA,NA,""
"30",30,30,30,30,30,30,30,30,30,30,30,30,30,30,30,30,30,30,30,30,30,30,30,30,30,30,30,30,30,30,30,30,30,30,30,30,30,30,30,30,30,30,30,30,30,30,30,30,30,30,30,30,30,30,30,30,30,NA,NA,NA,NA,NA,"","","",1,"2021-04-08_16h59.52.507","premceCat2_ses-02_part-02_label-phase2","2020.2.10","Win32",60,"",NA,"",NA,"",NA,NA,NA,0,17,17,72,1,"stimuli/objects/cclamp.jpg","right","new",73,"",NA,NA,NA,NA,NA,NA,"",NA,NA,NA,NA,NA,NA,""
"31",31,31,31,31,31,31,31,31,31,31,31,31,31,31,31,31,31,31,31,31,31,31,31,31,31,31,31,31,31,31,31,31,31,31,31,31,31,31,31,31,31,31,31,31,31,31,31,31,31,31,31,31,31,31,31,31,31,NA,NA,NA,NA,NA,"","","",1,"2021-04-08_16h59.52.507","premceCat2_ses-02_part-02_label-phase2","2020.2.10","Win32",60,"",NA,"",NA,"left",1.365,3,0.956,NA,NA,NA,NA,NA,"","","",NA,"left",0.445,0,0,0,0,1,"",NA,NA,NA,NA,NA,NA,""
"32",32,32,32,32,32,32,32,32,32,32,32,32,32,32,32,32,32,32,32,32,32,32,32,32,32,32,32,32,32,32,32,32,32,32,32,32,32,32,32,32,32,32,32,32,32,32,32,32,32,32,32,32,32,32,32,32,32,NA,NA,NA,NA,NA,"","","",1,"2021-04-08_16h59.52.507","premceCat2_ses-02_part-02_label-phase2","2020.2.10","Win32",60,"",NA,"",NA,"",NA,NA,NA,0,18,18,27,1,"stimuli/objects/downhillski.jpg","left","old",28,"",NA,NA,NA,NA,NA,NA,"",NA,NA,NA,NA,NA,NA,""
"33",33,33,33,33,33,33,33,33,33,33,33,33,33,33,33,33,33,33,33,33,33,33,33,33,33,33,33,33,33,33,33,33,33,33,33,33,33,33,33,33,33,33,33,33,33,33,33,33,33,33,33,33,33,33,33,33,33,NA,NA,NA,NA,NA,"","","",1,"2021-04-08_16h59.52.507","premceCat2_ses-02_part-02_label-phase2","2020.2.10","Win32",60,"",NA,"",NA,"right",1.615,2,0.517,0,19,19,55,1,"stimuli/objects/toolbox02.jpg","right","new",56,"",NA,NA,NA,NA,NA,NA,"",NA,NA,NA,NA,NA,NA,""
"34",34,34,34,34,34,34,34,34,34,34,34,34,34,34,34,34,34,34,34,34,34,34,34,34,34,34,34,34,34,34,34,34,34,34,34,34,34,34,34,34,34,34,34,34,34,34,34,34,34,34,34,34,34,34,34,34,34,NA,NA,NA,NA,NA,"","","",1,"2021-04-08_16h59.52.507","premceCat2_ses-02_part-02_label-phase2","2020.2.10","Win32",60,"",NA,"",NA,"left",1.756,4,1.268,NA,NA,NA,NA,NA,"","","",NA,"right",0.559,0,0,0,0,1,"",NA,NA,NA,NA,NA,NA,""
"35",35,35,35,35,35,35,35,35,35,35,35,35,35,35,35,35,35,35,35,35,35,35,35,35,35,35,35,35,35,35,35,35,35,35,35,35,35,35,35,35,35,35,35,35,35,35,35,35,35,35,35,35,35,35,35,35,35,NA,NA,NA,NA,NA,"","","",1,"2021-04-08_16h59.52.507","premceCat2_ses-02_part-02_label-phase2","2020.2.10","Win32",60,"",NA,"",NA,"",NA,NA,NA,0,20,20,47,1,"stimuli/objects/flooringstapler.jpg","left","old",48,"",NA,NA,NA,NA,NA,NA,"",NA,NA,NA,NA,NA,NA,""
"36",36,36,36,36,36,36,36,36,36,36,36,36,36,36,36,36,36,36,36,36,36,36,36,36,36,36,36,36,36,36,36,36,36,36,36,36,36,36,36,36,36,36,36,36,36,36,36,36,36,36,36,36,36,36,36,36,36,NA,NA,NA,NA,NA,"","","",1,"2021-04-08_16h59.52.507","premceCat2_ses-02_part-02_label-phase2","2020.2.10","Win32",60,"",NA,"",NA,"left",2.135,2,0.318,NA,NA,NA,NA,NA,"","","",NA,"left",0.285,0,0,0,0,1,"",NA,NA,NA,NA,NA,NA,""
"37",37,37,37,37,37,37,37,37,37,37,37,37,37,37,37,37,37,37,37,37,37,37,37,37,37,37,37,37,37,37,37,37,37,37,37,37,37,37,37,37,37,37,37,37,37,37,37,37,37,37,37,37,37,37,37,37,37,NA,NA,NA,NA,NA,"","","",1,"2021-04-08_16h59.52.507","premceCat2_ses-02_part-02_label-phase2","2020.2.10","Win32",60,"",NA,"",NA,"",NA,NA,NA,0,21,21,132,1,"stimuli/objects/expansioncard.jpg","left","old",133,"",NA,NA,NA,NA,NA,NA,"",NA,NA,NA,NA,NA,NA,""
"38",38,38,38,38,38,38,38,38,38,38,38,38,38,38,38,38,38,38,38,38,38,38,38,38,38,38,38,38,38,38,38,38,38,38,38,38,38,38,38,38,38,38,38,38,38,38,38,38,38,38,38,38,38,38,38,38,38,NA,NA,NA,NA,NA,"","","",1,"2021-04-08_16h59.52.507","premceCat2_ses-02_part-02_label-phase2","2020.2.10","Win32",60,"",NA,"",NA,"right",1.814,3,0.48,0,22,22,42,1,"stimuli/objects/snowshoe.jpg","right","new",43,"",NA,NA,NA,NA,NA,NA,"",NA,NA,NA,NA,NA,NA,""
"39",39,39,39,39,39,39,39,39,39,39,39,39,39,39,39,39,39,39,39,39,39,39,39,39,39,39,39,39,39,39,39,39,39,39,39,39,39,39,39,39,39,39,39,39,39,39,39,39,39,39,39,39,39,39,39,39,39,NA,NA,NA,NA,NA,"","","",1,"2021-04-08_16h59.52.507","premceCat2_ses-02_part-02_label-phase2","2020.2.10","Win32",60,"",NA,"",NA,"left",1.416,2,0.356,NA,NA,NA,NA,NA,"","","",NA,"left",1.933,0,0,0,0,1,"",NA,NA,NA,NA,NA,NA,""
"40",40,40,40,40,40,40,40,40,40,40,40,40,40,40,40,40,40,40,40,40,40,40,40,40,40,40,40,40,40,40,40,40,40,40,40,40,40,40,40,40,40,40,40,40,40,40,40,40,40,40,40,40,40,40,40,40,40,NA,NA,NA,NA,NA,"","","",1,"2021-04-08_16h59.52.507","premceCat2_ses-02_part-02_label-phase2","2020.2.10","Win32",60,"",NA,"",NA,"",NA,NA,NA,0,23,23,71,1,"stimuli/objects/faxmachine.jpg","right","new",72,"",NA,NA,NA,NA,NA,NA,"",NA,NA,NA,NA,NA,NA,""
"41",41,41,41,41,41,41,41,41,41,41,41,41,41,41,41,41,41,41,41,41,41,41,41,41,41,41,41,41,41,41,41,41,41,41,41,41,41,41,41,41,41,41,41,41,41,41,41,41,41,41,41,41,41,41,41,41,41,NA,NA,NA,NA,NA,"","","",1,"2021-04-08_16h59.52.507","premceCat2_ses-02_part-02_label-phase2","2020.2.10","Win32",60,"",NA,"",NA,"right",1.34,3,0.638,0,24,24,121,1,"stimuli/objects/ceilingspeaker.jpg","right","new",122,"",NA,NA,NA,NA,NA,NA,"",NA,NA,NA,NA,NA,NA,""
"42",42,42,42,42,42,42,42,42,42,42,42,42,42,42,42,42,42,42,42,42,42,42,42,42,42,42,42,42,42,42,42,42,42,42,42,42,42,42,42,42,42,42,42,42,42,42,42,42,42,42,42,42,42,42,42,42,42,NA,NA,NA,NA,NA,"","","",1,"2021-04-08_16h59.52.507","premceCat2_ses-02_part-02_label-phase2","2020.2.10","Win32",60,"",NA,"",NA,"right",1.128,3,0.294,0,25,25,106,1,"stimuli/objects/minifridge.jpg","right","new",107,"",NA,NA,NA,NA,NA,NA,"",NA,NA,NA,NA,NA,NA,""
"43",43,43,43,43,43,43,43,43,43,43,43,43,43,43,43,43,43,43,43,43,43,43,43,43,43,43,43,43,43,43,43,43,43,43,43,43,43,43,43,43,43,43,43,43,43,43,43,43,43,43,43,43,43,43,43,43,43,NA,NA,NA,NA,NA,"","","",1,"2021-04-08_16h59.52.507","premceCat2_ses-02_part-02_label-phase2","2020.2.10","Win32",60,"",NA,"",NA,"left",1.028,3,0.382,NA,NA,NA,NA,NA,"","","",NA,"left",0.466,0,0,0,0,1,"",NA,NA,NA,NA,NA,NA,""
"44",44,44,44,44,44,44,44,44,44,44,44,44,44,44,44,44,44,44,44,44,44,44,44,44,44,44,44,44,44,44,44,44,44,44,44,44,44,44,44,44,44,44,44,44,44,44,44,44,44,44,44,44,44,44,44,44,44,NA,NA,NA,NA,NA,"","","",1,"2021-04-08_16h59.52.507","premceCat2_ses-02_part-02_label-phase2","2020.2.10","Win32",60,"",NA,"",NA,"",NA,NA,NA,0,26,26,83,1,"stimuli/objects/kitchenscale01a.jpg","right","new",84,"",NA,NA,NA,NA,NA,NA,"",NA,NA,NA,NA,NA,NA,""
"45",45,45,45,45,45,45,45,45,45,45,45,45,45,45,45,45,45,45,45,45,45,45,45,45,45,45,45,45,45,45,45,45,45,45,45,45,45,45,45,45,45,45,45,45,45,45,45,45,45,45,45,45,45,45,45,45,45,NA,NA,NA,NA,NA,"","","",1,"2021-04-08_16h59.52.507","premceCat2_ses-02_part-02_label-phase2","2020.2.10","Win32",60,"",NA,"",NA,"right",1.273,4,0.961,0,27,27,73,1,"stimuli/objects/clock01a.jpg","right","new",74,"",NA,NA,NA,NA,NA,NA,"",NA,NA,NA,NA,NA,NA,""
"46",46,46,46,46,46,46,46,46,46,46,46,46,46,46,46,46,46,46,46,46,46,46,46,46,46,46,46,46,46,46,46,46,46,46,46,46,46,46,46,46,46,46,46,46,46,46,46,46,46,46,46,46,46,46,46,46,46,NA,NA,NA,NA,NA,"","","",1,"2021-04-08_16h59.52.507","premceCat2_ses-02_part-02_label-phase2","2020.2.10","Win32",60,"",NA,"",NA,"left",1.19,3,1.224,NA,NA,NA,NA,NA,"","","",NA,"left",0.425,0,0,0,0,1,"",NA,NA,NA,NA,NA,NA,""
"47",47,47,47,47,47,47,47,47,47,47,47,47,47,47,47,47,47,47,47,47,47,47,47,47,47,47,47,47,47,47,47,47,47,47,47,47,47,47,47,47,47,47,47,47,47,47,47,47,47,47,47,47,47,47,47,47,47,NA,NA,NA,NA,NA,"","","",1,"2021-04-08_16h59.52.507","premceCat2_ses-02_part-02_label-phase2","2020.2.10","Win32",60,"",NA,"",NA,"",NA,NA,NA,0,28,28,122,1,"stimuli/objects/atm.jpg","left","old",123,"",NA,NA,NA,NA,NA,NA,"",NA,NA,NA,NA,NA,NA,""
"48",48,48,48,48,48,48,48,48,48,48,48,48,48,48,48,48,48,48,48,48,48,48,48,48,48,48,48,48,48,48,48,48,48,48,48,48,48,48,48,48,48,48,48,48,48,48,48,48,48,48,48,48,48,48,48,48,48,NA,NA,NA,NA,NA,"","","",1,"2021-04-08_16h59.52.507","premceCat2_ses-02_part-02_label-phase2","2020.2.10","Win32",60,"",NA,"",NA,"left",1.477,4,0.391,NA,NA,NA,NA,NA,"","","",NA,"right",0.671,0,0,0,0,1,"",NA,NA,NA,NA,NA,NA,""
"49",49,49,49,49,49,49,49,49,49,49,49,49,49,49,49,49,49,49,49,49,49,49,49,49,49,49,49,49,49,49,49,49,49,49,49,49,49,49,49,49,49,49,49,49,49,49,49,49,49,49,49,49,49,49,49,49,49,NA,NA,NA,NA,NA,"","","",1,"2021-04-08_16h59.52.507","premceCat2_ses-02_part-02_label-phase2","2020.2.10","Win32",60,"",NA,"",NA,"",NA,NA,NA,0,29,29,14,1,"stimuli/objects/aircompressor.jpg","left","old",15,"",NA,NA,NA,NA,NA,NA,"",NA,NA,NA,NA,NA,NA,""
"50",50,50,50,50,50,50,50,50,50,50,50,50,50,50,50,50,50,50,50,50,50,50,50,50,50,50,50,50,50,50,50,50,50,50,50,50,50,50,50,50,50,50,50,50,50,50,50,50,50,50,50,50,50,50,50,50,50,NA,NA,NA,NA,NA,"","","",1,"2021-04-08_16h59.52.507","premceCat2_ses-02_part-02_label-phase2","2020.2.10","Win32",60,"",NA,"",NA,"right",2.353,3,0.601,0,30,30,86,1,"stimuli/objects/toasteroven.jpg","right","new",87,"",NA,NA,NA,NA,NA,NA,"",NA,NA,NA,NA,NA,NA,""
"51",51,51,51,51,51,51,51,51,51,51,51,51,51,51,51,51,51,51,51,51,51,51,51,51,51,51,51,51,51,51,51,51,51,51,51,51,51,51,51,51,51,51,51,51,51,51,51,51,51,51,51,51,51,51,51,51,51,NA,NA,NA,NA,NA,"","","",1,"2021-04-08_16h59.52.507","premceCat2_ses-02_part-02_label-phase2","2020.2.10","Win32",60,"",NA,"",NA,"left",1.386,4,0.339,NA,NA,NA,NA,NA,"","","",NA,"left",0.347,0,0,0,0,1,"",NA,NA,NA,NA,NA,NA,""
"52",52,52,52,52,52,52,52,52,52,52,52,52,52,52,52,52,52,52,52,52,52,52,52,52,52,52,52,52,52,52,52,52,52,52,52,52,52,52,52,52,52,52,52,52,52,52,52,52,52,52,52,52,52,52,52,52,52,NA,NA,NA,NA,NA,"","","",1,"2021-04-08_16h59.52.507","premceCat2_ses-02_part-02_label-phase2","2020.2.10","Win32",60,"",NA,"",NA,"",NA,NA,NA,0,31,31,88,1,"stimuli/objects/cork02.jpg","left","old",89,"",NA,NA,NA,NA,NA,NA,"",NA,NA,NA,NA,NA,NA,""
"53",53,53,53,53,53,53,53,53,53,53,53,53,53,53,53,53,53,53,53,53,53,53,53,53,53,53,53,53,53,53,53,53,53,53,53,53,53,53,53,53,53,53,53,53,53,53,53,53,53,53,53,53,53,53,53,53,53,NA,NA,NA,NA,NA,"","","",1,"2021-04-08_16h59.52.507","premceCat2_ses-02_part-02_label-phase2","2020.2.10","Win32",60,"",NA,"",NA,"right",1.744,3,0.336,0,32,32,59,1,"stimuli/objects/studiolight.jpg","right","new",60,"",NA,NA,NA,NA,NA,NA,"",NA,NA,NA,NA,NA,NA,""
"54",54,54,54,54,54,54,54,54,54,54,54,54,54,54,54,54,54,54,54,54,54,54,54,54,54,54,54,54,54,54,54,54,54,54,54,54,54,54,54,54,54,54,54,54,54,54,54,54,54,54,54,54,54,54,54,54,54,NA,NA,NA,NA,NA,"","","",1,"2021-04-08_16h59.52.507","premceCat2_ses-02_part-02_label-phase2","2020.2.10","Win32",60,"",NA,"",NA,"left",1.988,3,1.139,NA,NA,NA,NA,NA,"","","",NA,"right",0.285,0,0,0,0,1,"",NA,NA,NA,NA,NA,NA,""
"55",55,55,55,55,55,55,55,55,55,55,55,55,55,55,55,55,55,55,55,55,55,55,55,55,55,55,55,55,55,55,55,55,55,55,55,55,55,55,55,55,55,55,55,55,55,55,55,55,55,55,55,55,55,55,55,55,55,NA,NA,NA,NA,NA,"","","",1,"2021-04-08_16h59.52.507","premceCat2_ses-02_part-02_label-phase2","2020.2.10","Win32",60,"",NA,"",NA,"",NA,NA,NA,0,33,33,61,1,"stimuli/objects/weedwacker.jpg","left","old",62,"",NA,NA,NA,NA,NA,NA,"",NA,NA,NA,NA,NA,NA,""
"56",56,56,56,56,56,56,56,56,56,56,56,56,56,56,56,56,56,56,56,56,56,56,56,56,56,56,56,56,56,56,56,56,56,56,56,56,56,56,56,56,56,56,56,56,56,56,56,56,56,56,56,56,56,56,56,56,56,NA,NA,NA,NA,NA,"","","",1,"2021-04-08_16h59.52.507","premceCat2_ses-02_part-02_label-phase2","2020.2.10","Win32",60,"",NA,"",NA,"left",1.231,3,0.333,NA,NA,NA,NA,NA,"","","",NA,"left",0.31,0,0,0,0,1,"",NA,NA,NA,NA,NA,NA,""
"57",57,57,57,57,57,57,57,57,57,57,57,57,57,57,57,57,57,57,57,57,57,57,57,57,57,57,57,57,57,57,57,57,57,57,57,57,57,57,57,57,57,57,57,57,57,57,57,57,57,57,57,57,57,57,57,57,57,NA,NA,NA,NA,NA,"","","",1,"2021-04-08_16h59.52.507","premceCat2_ses-02_part-02_label-phase2","2020.2.10","Win32",60,"",NA,"",NA,"",NA,NA,NA,0,34,34,142,1,"stimuli/objects/funnel.jpg","left","old",143,"",NA,NA,NA,NA,NA,NA,"",NA,NA,NA,NA,NA,NA,""
"58",58,58,58,58,58,58,58,58,58,58,58,58,58,58,58,58,58,58,58,58,58,58,58,58,58,58,58,58,58,58,58,58,58,58,58,58,58,58,58,58,58,58,58,58,58,58,58,58,58,58,58,58,58,58,58,58,58,NA,NA,NA,NA,NA,"","","",1,"2021-04-08_16h59.52.507","premceCat2_ses-02_part-02_label-phase2","2020.2.10","Win32",60,"",NA,"",NA,"left",1.761,2,0.363,NA,NA,NA,NA,NA,"","","",NA,"right",0.547,0,0,0,0,1,"",NA,NA,NA,NA,NA,NA,""
"59",59,59,59,59,59,59,59,59,59,59,59,59,59,59,59,59,59,59,59,59,59,59,59,59,59,59,59,59,59,59,59,59,59,59,59,59,59,59,59,59,59,59,59,59,59,59,59,59,59,59,59,59,59,59,59,59,59,NA,NA,NA,NA,NA,"","","",1,"2021-04-08_16h59.52.507","premceCat2_ses-02_part-02_label-phase2","2020.2.10","Win32",60,"",NA,"",NA,"",NA,NA,NA,0,35,35,138,1,"stimuli/objects/taperecorder.jpg","right","new",139,"",NA,NA,NA,NA,NA,NA,"",NA,NA,NA,NA,NA,NA,""
"60",60,60,60,60,60,60,60,60,60,60,60,60,60,60,60,60,60,60,60,60,60,60,60,60,60,60,60,60,60,60,60,60,60,60,60,60,60,60,60,60,60,60,60,60,60,60,60,60,60,60,60,60,60,60,60,60,60,NA,NA,NA,NA,NA,"","","",1,"2021-04-08_16h59.52.507","premceCat2_ses-02_part-02_label-phase2","2020.2.10","Win32",60,"",NA,"",NA,"left",1.101,4,0.375,NA,NA,NA,NA,NA,"","","",NA,"right",3.27,0,0,0,0,1,"",NA,NA,NA,NA,NA,NA,""
"61",61,61,61,61,61,61,61,61,61,61,61,61,61,61,61,61,61,61,61,61,61,61,61,61,61,61,61,61,61,61,61,61,61,61,61,61,61,61,61,61,61,61,61,61,61,61,61,61,61,61,61,61,61,61,61,61,61,NA,NA,NA,NA,NA,"","","",1,"2021-04-08_16h59.52.507","premceCat2_ses-02_part-02_label-phase2","2020.2.10","Win32",60,"",NA,"",NA,"",NA,NA,NA,0,36,36,15,1,"stimuli/objects/spicerack.jpg","left","old",16,"",NA,NA,NA,NA,NA,NA,"",NA,NA,NA,NA,NA,NA,""
"62",62,62,62,62,62,62,62,62,62,62,62,62,62,62,62,62,62,62,62,62,62,62,62,62,62,62,62,62,62,62,62,62,62,62,62,62,62,62,62,62,62,62,62,62,62,62,62,62,62,62,62,62,62,62,62,62,62,NA,NA,NA,NA,NA,"","","",1,"2021-04-08_16h59.52.507","premceCat2_ses-02_part-02_label-phase2","2020.2.10","Win32",60,"",NA,"",NA,"right",1.951,3,0.377,0,37,37,141,1,"stimuli/objects/generator.jpg","right","new",142,"",NA,NA,NA,NA,NA,NA,"",NA,NA,NA,NA,NA,NA,""
"63",63,63,63,63,63,63,63,63,63,63,63,63,63,63,63,63,63,63,63,63,63,63,63,63,63,63,63,63,63,63,63,63,63,63,63,63,63,63,63,63,63,63,63,63,63,63,63,63,63,63,63,63,63,63,63,63,63,NA,NA,NA,NA,NA,"","","",1,"2021-04-08_16h59.52.507","premceCat2_ses-02_part-02_label-phase2","2020.2.10","Win32",60,"",NA,"",NA,"left",0.911,3,1.94,NA,NA,NA,NA,NA,"","","",NA,"right",0.243,0,0,0,0,1,"",NA,NA,NA,NA,NA,NA,""
"64",64,64,64,64,64,64,64,64,64,64,64,64,64,64,64,64,64,64,64,64,64,64,64,64,64,64,64,64,64,64,64,64,64,64,64,64,64,64,64,64,64,64,64,64,64,64,64,64,64,64,64,64,64,64,64,64,64,NA,NA,NA,NA,NA,"","","",1,"2021-04-08_16h59.52.507","premceCat2_ses-02_part-02_label-phase2","2020.2.10","Win32",60,"",NA,"",NA,"",NA,NA,NA,0,38,38,115,1,"stimuli/objects/boltcutter.jpg","left","old",116,"",NA,NA,NA,NA,NA,NA,"",NA,NA,NA,NA,NA,NA,""
"65",65,65,65,65,65,65,65,65,65,65,65,65,65,65,65,65,65,65,65,65,65,65,65,65,65,65,65,65,65,65,65,65,65,65,65,65,65,65,65,65,65,65,65,65,65,65,65,65,65,65,65,65,65,65,65,65,65,NA,NA,NA,NA,NA,"","","",1,"2021-04-08_16h59.52.507","premceCat2_ses-02_part-02_label-phase2","2020.2.10","Win32",60,"",NA,"",NA,"right",1.166,3,0.575,0,39,39,117,1,"stimuli/objects/videotape01b.jpg","right","new",118,"",NA,NA,NA,NA,NA,NA,"",NA,NA,NA,NA,NA,NA,""
"66",66,66,66,66,66,66,66,66,66,66,66,66,66,66,66,66,66,66,66,66,66,66,66,66,66,66,66,66,66,66,66,66,66,66,66,66,66,66,66,66,66,66,66,66,66,66,66,66,66,66,66,66,66,66,66,66,66,NA,NA,NA,NA,NA,"","","",1,"2021-04-08_16h59.52.507","premceCat2_ses-02_part-02_label-phase2","2020.2.10","Win32",60,"",NA,"",NA,"left",1.196,2,0.328,NA,NA,NA,NA,NA,"","","",NA,"right",0.265,0,0,0,0,1,"",NA,NA,NA,NA,NA,NA,""
"67",67,67,67,67,67,67,67,67,67,67,67,67,67,67,67,67,67,67,67,67,67,67,67,67,67,67,67,67,67,67,67,67,67,67,67,67,67,67,67,67,67,67,67,67,67,67,67,67,67,67,67,67,67,67,67,67,67,NA,NA,NA,NA,NA,"","","",1,"2021-04-08_16h59.52.507","premceCat2_ses-02_part-02_label-phase2","2020.2.10","Win32",60,"",NA,"",NA,"",NA,NA,NA,0,40,40,16,1,"stimuli/objects/pressurewasher.jpg","left","old",17,"",NA,NA,NA,NA,NA,NA,"",NA,NA,NA,NA,NA,NA,""
"68",68,68,68,68,68,68,68,68,68,68,68,68,68,68,68,68,68,68,68,68,68,68,68,68,68,68,68,68,68,68,68,68,68,68,68,68,68,68,68,68,68,68,68,68,68,68,68,68,68,68,68,68,68,68,68,68,68,NA,NA,NA,NA,NA,"","","",1,"2021-04-08_16h59.52.507","premceCat2_ses-02_part-02_label-phase2","2020.2.10","Win32",60,"",NA,"",NA,"right",1.665,2,0.908,0,41,41,66,1,"stimuli/objects/nailgun.jpg","right","new",67,"",NA,NA,NA,NA,NA,NA,"",NA,NA,NA,NA,NA,NA,""
"69",69,69,69,69,69,69,69,69,69,69,69,69,69,69,69,69,69,69,69,69,69,69,69,69,69,69,69,69,69,69,69,69,69,69,69,69,69,69,69,69,69,69,69,69,69,69,69,69,69,69,69,69,69,69,69,69,69,NA,NA,NA,NA,NA,"","","",1,"2021-04-08_16h59.52.507","premceCat2_ses-02_part-02_label-phase2","2020.2.10","Win32",60,"",NA,"",NA,"left",0.815,3,0.856,NA,NA,NA,NA,NA,"","","",NA,"left",0.809,0,0,0,0,1,"",NA,NA,NA,NA,NA,NA,""
"70",70,70,70,70,70,70,70,70,70,70,70,70,70,70,70,70,70,70,70,70,70,70,70,70,70,70,70,70,70,70,70,70,70,70,70,70,70,70,70,70,70,70,70,70,70,70,70,70,70,70,70,70,70,70,70,70,70,NA,NA,NA,NA,NA,"","","",1,"2021-04-08_16h59.52.507","premceCat2_ses-02_part-02_label-phase2","2020.2.10","Win32",60,"",NA,"",NA,"",NA,NA,NA,0,42,42,96,1,"stimuli/objects/golfbag.jpg","right","new",97,"",NA,NA,NA,NA,NA,NA,"",NA,NA,NA,NA,NA,NA,""
"71",71,71,71,71,71,71,71,71,71,71,71,71,71,71,71,71,71,71,71,71,71,71,71,71,71,71,71,71,71,71,71,71,71,71,71,71,71,71,71,71,71,71,71,71,71,71,71,71,71,71,71,71,71,71,71,71,71,NA,NA,NA,NA,NA,"","","",1,"2021-04-08_16h59.52.507","premceCat2_ses-02_part-02_label-phase2","2020.2.10","Win32",60,"",NA,"",NA,"left",1.107,4,0.361,NA,NA,NA,NA,NA,"","","",NA,"left",0.333,0,0,0,0,1,"",NA,NA,NA,NA,NA,NA,""
"72",72,72,72,72,72,72,72,72,72,72,72,72,72,72,72,72,72,72,72,72,72,72,72,72,72,72,72,72,72,72,72,72,72,72,72,72,72,72,72,72,72,72,72,72,72,72,72,72,72,72,72,72,72,72,72,72,72,NA,NA,NA,NA,NA,"","","",1,"2021-04-08_16h59.52.507","premceCat2_ses-02_part-02_label-phase2","2020.2.10","Win32",60,"",NA,"",NA,"",NA,NA,NA,0,43,43,127,1,"stimuli/objects/hockeygoaliepad.jpg","left","old",128,"",NA,NA,NA,NA,NA,NA,"",NA,NA,NA,NA,NA,NA,""
"73",73,73,73,73,73,73,73,73,73,73,73,73,73,73,73,73,73,73,73,73,73,73,73,73,73,73,73,73,73,73,73,73,73,73,73,73,73,73,73,73,73,73,73,73,73,73,73,73,73,73,73,73,73,73,73,73,73,NA,NA,NA,NA,NA,"","","",1,"2021-04-08_16h59.52.507","premceCat2_ses-02_part-02_label-phase2","2020.2.10","Win32",60,"",NA,"",NA,"left",1.032,4,0.991,NA,NA,NA,NA,NA,"","","",NA,"left",0.217,0,0,0,0,1,"",NA,NA,NA,NA,NA,NA,""
"74",74,74,74,74,74,74,74,74,74,74,74,74,74,74,74,74,74,74,74,74,74,74,74,74,74,74,74,74,74,74,74,74,74,74,74,74,74,74,74,74,74,74,74,74,74,74,74,74,74,74,74,74,74,74,74,74,74,NA,NA,NA,NA,NA,"","","",1,"2021-04-08_16h59.52.507","premceCat2_ses-02_part-02_label-phase2","2020.2.10","Win32",60,"",NA,"",NA,"",NA,NA,NA,0,44,44,70,1,"stimuli/objects/hourglass.jpg","left","old",71,"",NA,NA,NA,NA,NA,NA,"",NA,NA,NA,NA,NA,NA,""
"75",75,75,75,75,75,75,75,75,75,75,75,75,75,75,75,75,75,75,75,75,75,75,75,75,75,75,75,75,75,75,75,75,75,75,75,75,75,75,75,75,75,75,75,75,75,75,75,75,75,75,75,75,75,75,75,75,75,NA,NA,NA,NA,NA,"","","",1,"2021-04-08_16h59.52.507","premceCat2_ses-02_part-02_label-phase2","2020.2.10","Win32",60,"",NA,"",NA,"left",1.324,4,0.3,NA,NA,NA,NA,NA,"","","",NA,"right",1.455,0,0,0,0,1,"",NA,NA,NA,NA,NA,NA,""
"76",76,76,76,76,76,76,76,76,76,76,76,76,76,76,76,76,76,76,76,76,76,76,76,76,76,76,76,76,76,76,76,76,76,76,76,76,76,76,76,76,76,76,76,76,76,76,76,76,76,76,76,76,76,76,76,76,76,NA,NA,NA,NA,NA,"","","",1,"2021-04-08_16h59.52.507","premceCat2_ses-02_part-02_label-phase2","2020.2.10","Win32",60,"",NA,"",NA,"",NA,NA,NA,0,45,45,44,1,"stimuli/objects/level03a.jpg","left","old",45,"",NA,NA,NA,NA,NA,NA,"",NA,NA,NA,NA,NA,NA,""
"77",77,77,77,77,77,77,77,77,77,77,77,77,77,77,77,77,77,77,77,77,77,77,77,77,77,77,77,77,77,77,77,77,77,77,77,77,77,77,77,77,77,77,77,77,77,77,77,77,77,77,77,77,77,77,77,77,77,NA,NA,NA,NA,NA,"","","",1,"2021-04-08_16h59.52.507","premceCat2_ses-02_part-02_label-phase2","2020.2.10","Win32",60,"",NA,"",NA,"left",0.978,3,0.62,NA,NA,NA,NA,NA,"","","",NA,"right",1.012,0,0,0,0,1,"",NA,NA,NA,NA,NA,NA,""
"78",78,78,78,78,78,78,78,78,78,78,78,78,78,78,78,78,78,78,78,78,78,78,78,78,78,78,78,78,78,78,78,78,78,78,78,78,78,78,78,78,78,78,78,78,78,78,78,78,78,78,78,78,78,78,78,78,78,NA,NA,NA,NA,NA,"","","",1,"2021-04-08_16h59.52.507","premceCat2_ses-02_part-02_label-phase2","2020.2.10","Win32",60,"",NA,"",NA,"",NA,NA,NA,0,46,46,107,1,"stimuli/objects/waterbottle03.jpg","left","old",108,"",NA,NA,NA,NA,NA,NA,"",NA,NA,NA,NA,NA,NA,""
"79",79,79,79,79,79,79,79,79,79,79,79,79,79,79,79,79,79,79,79,79,79,79,79,79,79,79,79,79,79,79,79,79,79,79,79,79,79,79,79,79,79,79,79,79,79,79,79,79,79,79,79,79,79,79,79,79,79,NA,NA,NA,NA,NA,"","","",1,"2021-04-08_16h59.52.507","premceCat2_ses-02_part-02_label-phase2","2020.2.10","Win32",60,"",NA,"",NA,"left",0.971,4,0.278,NA,NA,NA,NA,NA,"","","",NA,"right",0.285,0,0,0,0,1,"",NA,NA,NA,NA,NA,NA,""
"80",80,80,80,80,80,80,80,80,80,80,80,80,80,80,80,80,80,80,80,80,80,80,80,80,80,80,80,80,80,80,80,80,80,80,80,80,80,80,80,80,80,80,80,80,80,80,80,80,80,80,80,80,80,80,80,80,80,NA,NA,NA,NA,NA,"","","",1,"2021-04-08_16h59.52.507","premceCat2_ses-02_part-02_label-phase2","2020.2.10","Win32",60,"",NA,"",NA,"",NA,NA,NA,0,47,47,52,1,"stimuli/objects/cookiecutter.jpg","left","old",53,"",NA,NA,NA,NA,NA,NA,"",NA,NA,NA,NA,NA,NA,""
"81",81,81,81,81,81,81,81,81,81,81,81,81,81,81,81,81,81,81,81,81,81,81,81,81,81,81,81,81,81,81,81,81,81,81,81,81,81,81,81,81,81,81,81,81,81,81,81,81,81,81,81,81,81,81,81,81,81,NA,NA,NA,NA,NA,"","","",1,"2021-04-08_16h59.52.507","premceCat2_ses-02_part-02_label-phase2","2020.2.10","Win32",60,"",NA,"",NA,"right",1.139,4,1.184,0,48,48,39,1,"stimuli/objects/sippycup.jpg","right","new",40,"",NA,NA,NA,NA,NA,NA,"",NA,NA,NA,NA,NA,NA,""
"82",82,82,82,82,82,82,82,82,82,82,82,82,82,82,82,82,82,82,82,82,82,82,82,82,82,82,82,82,82,82,82,82,82,82,82,82,82,82,82,82,82,82,82,82,82,82,82,82,82,82,82,82,82,82,82,82,82,NA,NA,NA,NA,NA,"","","",1,"2021-04-08_16h59.52.507","premceCat2_ses-02_part-02_label-phase2","2020.2.10","Win32",60,"",NA,"",NA,"left",1.753,2,0.33,NA,NA,NA,NA,NA,"","","",NA,"right",0.262,0,0,0,0,1,"",NA,NA,NA,NA,NA,NA,""
"83",83,83,83,83,83,83,83,83,83,83,83,83,83,83,83,83,83,83,83,83,83,83,83,83,83,83,83,83,83,83,83,83,83,83,83,83,83,83,83,83,83,83,83,83,83,83,83,83,83,83,83,83,83,83,83,83,83,NA,NA,NA,NA,NA,"","","",1,"2021-04-08_16h59.52.507","premceCat2_ses-02_part-02_label-phase2","2020.2.10","Win32",60,"",NA,"",NA,"",NA,NA,NA,0,49,49,50,1,"stimuli/objects/chisel02b.jpg","right","new",51,"",NA,NA,NA,NA,NA,NA,"",NA,NA,NA,NA,NA,NA,""
"84",84,84,84,84,84,84,84,84,84,84,84,84,84,84,84,84,84,84,84,84,84,84,84,84,84,84,84,84,84,84,84,84,84,84,84,84,84,84,84,84,84,84,84,84,84,84,84,84,84,84,84,84,84,84,84,84,84,NA,NA,NA,NA,NA,"","","",1,"2021-04-08_16h59.52.507","premceCat2_ses-02_part-02_label-phase2","2020.2.10","Win32",60,"",NA,"",NA,"left",1.117,2,0.315,NA,NA,NA,NA,NA,"","","",NA,"right",0.219,0,0,0,0,1,"",NA,NA,NA,NA,NA,NA,""
"85",85,85,85,85,85,85,85,85,85,85,85,85,85,85,85,85,85,85,85,85,85,85,85,85,85,85,85,85,85,85,85,85,85,85,85,85,85,85,85,85,85,85,85,85,85,85,85,85,85,85,85,85,85,85,85,85,85,NA,NA,NA,NA,NA,"","","",1,"2021-04-08_16h59.52.507","premceCat2_ses-02_part-02_label-phase2","2020.2.10","Win32",60,"",NA,"",NA,"",NA,NA,NA,0,50,50,65,1,"stimuli/objects/pipewrench.jpg","left","old",66,"",NA,NA,NA,NA,NA,NA,"",NA,NA,NA,NA,NA,NA,""
"86",86,86,86,86,86,86,86,86,86,86,86,86,86,86,86,86,86,86,86,86,86,86,86,86,86,86,86,86,86,86,86,86,86,86,86,86,86,86,86,86,86,86,86,86,86,86,86,86,86,86,86,86,86,86,86,86,86,NA,NA,NA,NA,NA,"","","",1,"2021-04-08_16h59.52.507","premceCat2_ses-02_part-02_label-phase2","2020.2.10","Win32",60,"",NA,"",NA,"left",1.474,2,0.319,NA,NA,NA,NA,NA,"","","",NA,"left",0.157,0,0,0,0,1,"",NA,NA,NA,NA,NA,NA,""
"87",87,87,87,87,87,87,87,87,87,87,87,87,87,87,87,87,87,87,87,87,87,87,87,87,87,87,87,87,87,87,87,87,87,87,87,87,87,87,87,87,87,87,87,87,87,87,87,87,87,87,87,87,87,87,87,87,87,NA,NA,NA,NA,NA,"","","",1,"2021-04-08_16h59.52.507","premceCat2_ses-02_part-02_label-phase2","2020.2.10","Win32",60,"",NA,"",NA,"",NA,NA,NA,0,51,51,8,1,"stimuli/objects/basketballhoop01.jpg","right","new",9,"",NA,NA,NA,NA,NA,NA,"",NA,NA,NA,NA,NA,NA,""
"88",88,88,88,88,88,88,88,88,88,88,88,88,88,88,88,88,88,88,88,88,88,88,88,88,88,88,88,88,88,88,88,88,88,88,88,88,88,88,88,88,88,88,88,88,88,88,88,88,88,88,88,88,88,88,88,88,88,NA,NA,NA,NA,NA,"","","",1,"2021-04-08_16h59.52.507","premceCat2_ses-02_part-02_label-phase2","2020.2.10","Win32",60,"",NA,"",NA,"left",0.97,4,0.279,NA,NA,NA,NA,NA,"","","",NA,"left",0.178,0,0,0,0,1,"",NA,NA,NA,NA,NA,NA,""
"89",89,89,89,89,89,89,89,89,89,89,89,89,89,89,89,89,89,89,89,89,89,89,89,89,89,89,89,89,89,89,89,89,89,89,89,89,89,89,89,89,89,89,89,89,89,89,89,89,89,89,89,89,89,89,89,89,89,NA,NA,NA,NA,NA,"","","",1,"2021-04-08_16h59.52.507","premceCat2_ses-02_part-02_label-phase2","2020.2.10","Win32",60,"",NA,"",NA,"",NA,NA,NA,0,52,52,130,1,"stimuli/objects/bikewheel.jpg","left","old",131,"",NA,NA,NA,NA,NA,NA,"",NA,NA,NA,NA,NA,NA,""
"90",90,90,90,90,90,90,90,90,90,90,90,90,90,90,90,90,90,90,90,90,90,90,90,90,90,90,90,90,90,90,90,90,90,90,90,90,90,90,90,90,90,90,90,90,90,90,90,90,90,90,90,90,90,90,90,90,90,NA,NA,NA,NA,NA,"","","",1,"2021-04-08_16h59.52.507","premceCat2_ses-02_part-02_label-phase2","2020.2.10","Win32",60,"",NA,"",NA,"left",1.029,4,0.256,NA,NA,NA,NA,NA,"","","",NA,"left",0.286,0,0,0,0,1,"",NA,NA,NA,NA,NA,NA,""
"91",91,91,91,91,91,91,91,91,91,91,91,91,91,91,91,91,91,91,91,91,91,91,91,91,91,91,91,91,91,91,91,91,91,91,91,91,91,91,91,91,91,91,91,91,91,91,91,91,91,91,91,91,91,91,91,91,91,NA,NA,NA,NA,NA,"","","",1,"2021-04-08_16h59.52.507","premceCat2_ses-02_part-02_label-phase2","2020.2.10","Win32",60,"",NA,"",NA,"",NA,NA,NA,0,53,53,140,1,"stimuli/objects/anchor.jpg","left","old",141,"",NA,NA,NA,NA,NA,NA,"",NA,NA,NA,NA,NA,NA,""
"92",92,92,92,92,92,92,92,92,92,92,92,92,92,92,92,92,92,92,92,92,92,92,92,92,92,92,92,92,92,92,92,92,92,92,92,92,92,92,92,92,92,92,92,92,92,92,92,92,92,92,92,92,92,92,92,92,92,NA,NA,NA,NA,NA,"","","",1,"2021-04-08_16h59.52.507","premceCat2_ses-02_part-02_label-phase2","2020.2.10","Win32",60,"",NA,"",NA,"left",0.817,4,0.191,NA,NA,NA,NA,NA,"","","",NA,"left",0.239,0,0,0,0,1,"",NA,NA,NA,NA,NA,NA,""
"93",93,93,93,93,93,93,93,93,93,93,93,93,93,93,93,93,93,93,93,93,93,93,93,93,93,93,93,93,93,93,93,93,93,93,93,93,93,93,93,93,93,93,93,93,93,93,93,93,93,93,93,93,93,93,93,93,93,NA,NA,NA,NA,NA,"","","",1,"2021-04-08_16h59.52.507","premceCat2_ses-02_part-02_label-phase2","2020.2.10","Win32",60,"",NA,"",NA,"",NA,NA,NA,0,54,54,137,1,"stimuli/objects/iceskate.jpg","left","old",138,"",NA,NA,NA,NA,NA,NA,"",NA,NA,NA,NA,NA,NA,""
"94",94,94,94,94,94,94,94,94,94,94,94,94,94,94,94,94,94,94,94,94,94,94,94,94,94,94,94,94,94,94,94,94,94,94,94,94,94,94,94,94,94,94,94,94,94,94,94,94,94,94,94,94,94,94,94,94,94,NA,NA,NA,NA,NA,"","","",1,"2021-04-08_16h59.52.507","premceCat2_ses-02_part-02_label-phase2","2020.2.10","Win32",60,"",NA,"",NA,"left",0.958,4,0.755,NA,NA,NA,NA,NA,"","","",NA,"left",0.201,0,0,0,0,1,"",NA,NA,NA,NA,NA,NA,""
"95",95,95,95,95,95,95,95,95,95,95,95,95,95,95,95,95,95,95,95,95,95,95,95,95,95,95,95,95,95,95,95,95,95,95,95,95,95,95,95,95,95,95,95,95,95,95,95,95,95,95,95,95,95,95,95,95,95,NA,NA,NA,NA,NA,"","","",1,"2021-04-08_16h59.52.507","premceCat2_ses-02_part-02_label-phase2","2020.2.10","Win32",60,"",NA,"",NA,"",NA,NA,NA,0,55,55,2,1,"stimuli/objects/dvdcase01.jpg","left","old",3,"",NA,NA,NA,NA,NA,NA,"",NA,NA,NA,NA,NA,NA,""
"96",96,96,96,96,96,96,96,96,96,96,96,96,96,96,96,96,96,96,96,96,96,96,96,96,96,96,96,96,96,96,96,96,96,96,96,96,96,96,96,96,96,96,96,96,96,96,96,96,96,96,96,96,96,96,96,96,96,NA,NA,NA,NA,NA,"","","",1,"2021-04-08_16h59.52.507","premceCat2_ses-02_part-02_label-phase2","2020.2.10","Win32",60,"",NA,"",NA,"left",0.89,4,0.546,NA,NA,NA,NA,NA,"","","",NA,"right",0.282,0,0,0,0,1,"",NA,NA,NA,NA,NA,NA,""
"97",97,97,97,97,97,97,97,97,97,97,97,97,97,97,97,97,97,97,97,97,97,97,97,97,97,97,97,97,97,97,97,97,97,97,97,97,97,97,97,97,97,97,97,97,97,97,97,97,97,97,97,97,97,97,97,97,97,NA,NA,NA,NA,NA,"","","",1,"2021-04-08_16h59.52.507","premceCat2_ses-02_part-02_label-phase2","2020.2.10","Win32",60,"",NA,"",NA,"",NA,NA,NA,0,56,56,118,1,"stimuli/objects/toyhardhat.jpg","left","old",119,"",NA,NA,NA,NA,NA,NA,"",NA,NA,NA,NA,NA,NA,""
"98",98,98,98,98,98,98,98,98,98,98,98,98,98,98,98,98,98,98,98,98,98,98,98,98,98,98,98,98,98,98,98,98,98,98,98,98,98,98,98,98,98,98,98,98,98,98,98,98,98,98,98,98,98,98,98,98,98,NA,NA,NA,NA,NA,"","","",1,"2021-04-08_16h59.52.507","premceCat2_ses-02_part-02_label-phase2","2020.2.10","Win32",60,"",NA,"",NA,"right",1.085,3,0.965,0,57,57,13,1,"stimuli/objects/bastingbrush.jpg","right","new",14,"",NA,NA,NA,NA,NA,NA,"",NA,NA,NA,NA,NA,NA,""
"99",99,99,99,99,99,99,99,99,99,99,99,99,99,99,99,99,99,99,99,99,99,99,99,99,99,99,99,99,99,99,99,99,99,99,99,99,99,99,99,99,99,99,99,99,99,99,99,99,99,99,99,99,99,99,99,99,99,NA,NA,NA,NA,NA,"","","",1,"2021-04-08_16h59.52.507","premceCat2_ses-02_part-02_label-phase2","2020.2.10","Win32",60,"",NA,"",NA,"left",0.805,3,0.407,NA,NA,NA,NA,NA,"","","",NA,"left",0.266,0,0,0,0,1,"",NA,NA,NA,NA,NA,NA,""
"100",100,100,100,100,100,100,100,100,100,100,100,100,100,100,100,100,100,100,100,100,100,100,100,100,100,100,100,100,100,100,100,100,100,100,100,100,100,100,100,100,100,100,100,100,100,100,100,100,100,100,100,100,100,100,100,100,100,NA,NA,NA,NA,NA,"","","",1,"2021-04-08_16h59.52.507","premceCat2_ses-02_part-02_label-phase2","2020.2.10","Win32",60,"",NA,"",NA,"",NA,NA,NA,0,58,58,34,1,"stimuli/objects/treadmill.jpg","left","old",35,"",NA,NA,NA,NA,NA,NA,"",NA,NA,NA,NA,NA,NA,""
"101",101,101,101,101,101,101,101,101,101,101,101,101,101,101,101,101,101,101,101,101,101,101,101,101,101,101,101,101,101,101,101,101,101,101,101,101,101,101,101,101,101,101,101,101,101,101,101,101,101,101,101,101,101,101,101,101,101,NA,NA,NA,NA,NA,"","","",1,"2021-04-08_16h59.52.507","premceCat2_ses-02_part-02_label-phase2","2020.2.10","Win32",60,"",NA,"",NA,"left",1.239,3,0.242,NA,NA,NA,NA,NA,"","","",NA,"left",0.406,0,0,0,0,1,"",NA,NA,NA,NA,NA,NA,""
"102",102,102,102,102,102,102,102,102,102,102,102,102,102,102,102,102,102,102,102,102,102,102,102,102,102,102,102,102,102,102,102,102,102,102,102,102,102,102,102,102,102,102,102,102,102,102,102,102,102,102,102,102,102,102,102,102,102,NA,NA,NA,NA,NA,"","","",1,"2021-04-08_16h59.52.507","premceCat2_ses-02_part-02_label-phase2","2020.2.10","Win32",60,"",NA,"",NA,"",NA,NA,NA,0,59,59,129,1,"stimuli/objects/gasburner.jpg","left","old",130,"",NA,NA,NA,NA,NA,NA,"",NA,NA,NA,NA,NA,NA,""
"103",103,103,103,103,103,103,103,103,103,103,103,103,103,103,103,103,103,103,103,103,103,103,103,103,103,103,103,103,103,103,103,103,103,103,103,103,103,103,103,103,103,103,103,103,103,103,103,103,103,103,103,103,103,103,103,103,103,NA,NA,NA,NA,NA,"","","",1,"2021-04-08_16h59.52.507","premceCat2_ses-02_part-02_label-phase2","2020.2.10","Win32",60,"",NA,"",NA,"right",1.515,3,0.321,0,60,60,109,1,"stimuli/objects/winerack.jpg","right","new",110,"",NA,NA,NA,NA,NA,NA,"",NA,NA,NA,NA,NA,NA,""
"104",104,104,104,104,104,104,104,104,104,104,104,104,104,104,104,104,104,104,104,104,104,104,104,104,104,104,104,104,104,104,104,104,104,104,104,104,104,104,104,104,104,104,104,104,104,104,104,104,104,104,104,104,104,104,104,104,104,NA,NA,NA,NA,NA,"","","",1,"2021-04-08_16h59.52.507","premceCat2_ses-02_part-02_label-phase2","2020.2.10","Win32",60,"",NA,"",NA,"left",1.222,3,0.152,NA,NA,NA,NA,NA,"","","",NA,"left",1.515,0,0,0,0,1,"",NA,NA,NA,NA,NA,NA,""
"105",105,105,105,105,105,105,105,105,105,105,105,105,105,105,105,105,105,105,105,105,105,105,105,105,105,105,105,105,105,105,105,105,105,105,105,105,105,105,105,105,105,105,105,105,105,105,105,105,105,105,105,105,105,105,105,105,105,NA,NA,NA,NA,NA,"","","",1,"2021-04-08_16h59.52.507","premceCat2_ses-02_part-02_label-phase2","2020.2.10","Win32",60,"",NA,"",NA,"",NA,NA,NA,0,61,61,105,1,"stimuli/objects/fanblades.jpg","left","old",106,"",NA,NA,NA,NA,NA,NA,"",NA,NA,NA,NA,NA,NA,""
"106",106,106,106,106,106,106,106,106,106,106,106,106,106,106,106,106,106,106,106,106,106,106,106,106,106,106,106,106,106,106,106,106,106,106,106,106,106,106,106,106,106,106,106,106,106,106,106,106,106,106,106,106,106,106,106,106,106,NA,NA,NA,NA,NA,"","","",1,"2021-04-08_16h59.52.507","premceCat2_ses-02_part-02_label-phase2","2020.2.10","Win32",60,"",NA,"",NA,"right",1.673,2,0.716,0,62,62,57,1,"stimuli/objects/audiocablesplitter.jpg","right","new",58,"",NA,NA,NA,NA,NA,NA,"",NA,NA,NA,NA,NA,NA,""
"107",107,107,107,107,107,107,107,107,107,107,107,107,107,107,107,107,107,107,107,107,107,107,107,107,107,107,107,107,107,107,107,107,107,107,107,107,107,107,107,107,107,107,107,107,107,107,107,107,107,107,107,107,107,107,107,107,107,NA,NA,NA,NA,NA,"","","",1,"2021-04-08_16h59.52.507","premceCat2_ses-02_part-02_label-phase2","2020.2.10","Win32",60,"",NA,"",NA,"right",0.996,2,0.23,0,63,63,136,1,"stimuli/objects/battery02b.jpg","right","new",137,"",NA,NA,NA,NA,NA,NA,"",NA,NA,NA,NA,NA,NA,""
"108",108,108,108,108,108,108,108,108,108,108,108,108,108,108,108,108,108,108,108,108,108,108,108,108,108,108,108,108,108,108,108,108,108,108,108,108,108,108,108,108,108,108,108,108,108,108,108,108,108,108,108,108,108,108,108,108,108,NA,NA,NA,NA,NA,"","","",1,"2021-04-08_16h59.52.507","premceCat2_ses-02_part-02_label-phase2","2020.2.10","Win32",60,"",NA,"",NA,"left",0.808,2,0.407,NA,NA,NA,NA,NA,"","","",NA,"left",0.422,0,0,0,0,1,"",NA,NA,NA,NA,NA,NA,""
"109",109,109,109,109,109,109,109,109,109,109,109,109,109,109,109,109,109,109,109,109,109,109,109,109,109,109,109,109,109,109,109,109,109,109,109,109,109,109,109,109,109,109,109,109,109,109,109,109,109,109,109,109,109,109,109,109,109,NA,NA,NA,NA,NA,"","","",1,"2021-04-08_16h59.52.507","premceCat2_ses-02_part-02_label-phase2","2020.2.10","Win32",60,"",NA,"",NA,"",NA,NA,NA,0,64,64,124,1,"stimuli/objects/bikepump01.jpg","left","old",125,"",NA,NA,NA,NA,NA,NA,"",NA,NA,NA,NA,NA,NA,""
"110",110,110,110,110,110,110,110,110,110,110,110,110,110,110,110,110,110,110,110,110,110,110,110,110,110,110,110,110,110,110,110,110,110,110,110,110,110,110,110,110,110,110,110,110,110,110,110,110,110,110,110,110,110,110,110,110,110,NA,NA,NA,NA,NA,"","","",1,"2021-04-08_16h59.52.507","premceCat2_ses-02_part-02_label-phase2","2020.2.10","Win32",60,"",NA,"",NA,"right",1.036,3,0.193,0,65,65,131,1,"stimuli/objects/spotlight.jpg","right","new",132,"",NA,NA,NA,NA,NA,NA,"",NA,NA,NA,NA,NA,NA,""
"111",111,111,111,111,111,111,111,111,111,111,111,111,111,111,111,111,111,111,111,111,111,111,111,111,111,111,111,111,111,111,111,111,111,111,111,111,111,111,111,111,111,111,111,111,111,111,111,111,111,111,111,111,111,111,111,111,111,NA,NA,NA,NA,NA,"","","",1,"2021-04-08_16h59.52.507","premceCat2_ses-02_part-02_label-phase2","2020.2.10","Win32",60,"",NA,"",NA,"right",1.014,2,0.276,0,66,66,100,1,"stimuli/objects/remotecontrol04.jpg","right","new",101,"",NA,NA,NA,NA,NA,NA,"",NA,NA,NA,NA,NA,NA,""
"112",112,112,112,112,112,112,112,112,112,112,112,112,112,112,112,112,112,112,112,112,112,112,112,112,112,112,112,112,112,112,112,112,112,112,112,112,112,112,112,112,112,112,112,112,112,112,112,112,112,112,112,112,112,112,112,112,112,NA,NA,NA,NA,NA,"","","",1,"2021-04-08_16h59.52.507","premceCat2_ses-02_part-02_label-phase2","2020.2.10","Win32",60,"",NA,"",NA,"left",0.884,4,0.373,NA,NA,NA,NA,NA,"","","",NA,"left",0.862,0,0,0,0,1,"",NA,NA,NA,NA,NA,NA,""
"113",113,113,113,113,113,113,113,113,113,113,113,113,113,113,113,113,113,113,113,113,113,113,113,113,113,113,113,113,113,113,113,113,113,113,113,113,113,113,113,113,113,113,113,113,113,113,113,113,113,113,113,113,113,113,113,113,113,NA,NA,NA,NA,NA,"","","",1,"2021-04-08_16h59.52.507","premceCat2_ses-02_part-02_label-phase2","2020.2.10","Win32",60,"",NA,"",NA,"",NA,NA,NA,0,67,67,37,1,"stimuli/objects/setsquare.jpg","left","old",38,"",NA,NA,NA,NA,NA,NA,"",NA,NA,NA,NA,NA,NA,""
"114",114,114,114,114,114,114,114,114,114,114,114,114,114,114,114,114,114,114,114,114,114,114,114,114,114,114,114,114,114,114,114,114,114,114,114,114,114,114,114,114,114,114,114,114,114,114,114,114,114,114,114,114,114,114,114,114,114,NA,NA,NA,NA,NA,"","","",1,"2021-04-08_16h59.52.507","premceCat2_ses-02_part-02_label-phase2","2020.2.10","Win32",60,"",NA,"",NA,"left",1.347,3,0.132,NA,NA,NA,NA,NA,"","","",NA,"left",0.374,0,0,0,0,1,"",NA,NA,NA,NA,NA,NA,""
"115",115,115,115,115,115,115,115,115,115,115,115,115,115,115,115,115,115,115,115,115,115,115,115,115,115,115,115,115,115,115,115,115,115,115,115,115,115,115,115,115,115,115,115,115,115,115,115,115,115,115,115,115,115,115,115,115,115,NA,NA,NA,NA,NA,"","","",1,"2021-04-08_16h59.52.507","premceCat2_ses-02_part-02_label-phase2","2020.2.10","Win32",60,"",NA,"",NA,"",NA,NA,NA,0,68,68,35,1,"stimuli/objects/phonejack.jpg","left","old",36,"",NA,NA,NA,NA,NA,NA,"",NA,NA,NA,NA,NA,NA,""
"116",116,116,116,116,116,116,116,116,116,116,116,116,116,116,116,116,116,116,116,116,116,116,116,116,116,116,116,116,116,116,116,116,116,116,116,116,116,116,116,116,116,116,116,116,116,116,116,116,116,116,116,116,116,116,116,116,116,NA,NA,NA,NA,NA,"","","",1,"2021-04-08_16h59.52.507","premceCat2_ses-02_part-02_label-phase2","2020.2.10","Win32",60,"",NA,"",NA,"right",1.058,3,0.231,0,69,69,18,1,"stimuli/objects/cashregister01.jpg","right","new",19,"",NA,NA,NA,NA,NA,NA,"",NA,NA,NA,NA,NA,NA,""
"117",117,117,117,117,117,117,117,117,117,117,117,117,117,117,117,117,117,117,117,117,117,117,117,117,117,117,117,117,117,117,117,117,117,117,117,117,117,117,117,117,117,117,117,117,117,117,117,117,117,117,117,117,117,117,117,117,117,NA,NA,NA,NA,NA,"","","",1,"2021-04-08_16h59.52.507","premceCat2_ses-02_part-02_label-phase2","2020.2.10","Win32",60,"",NA,"",NA,"left",0.819,4,0.346,NA,NA,NA,NA,NA,"","","",NA,"left",0.249,0,0,0,0,1,"",NA,NA,NA,NA,NA,NA,""
"118",118,118,118,118,118,118,118,118,118,118,118,118,118,118,118,118,118,118,118,118,118,118,118,118,118,118,118,118,118,118,118,118,118,118,118,118,118,118,118,118,118,118,118,118,118,118,118,118,118,118,118,118,118,118,118,118,118,NA,NA,NA,NA,NA,"","","",1,"2021-04-08_16h59.52.507","premceCat2_ses-02_part-02_label-phase2","2020.2.10","Win32",60,"",NA,"",NA,"",NA,NA,NA,0,70,70,49,1,"stimuli/objects/canoepaddle02.jpg","left","old",50,"",NA,NA,NA,NA,NA,NA,"",NA,NA,NA,NA,NA,NA,""
"119",119,119,119,119,119,119,119,119,119,119,119,119,119,119,119,119,119,119,119,119,119,119,119,119,119,119,119,119,119,119,119,119,119,119,119,119,119,119,119,119,119,119,119,119,119,119,119,119,119,119,119,119,119,119,119,119,119,NA,NA,NA,NA,NA,"","","",1,"2021-04-08_16h59.52.507","premceCat2_ses-02_part-02_label-phase2","2020.2.10","Win32",60,"",NA,"",NA,"right",2.816,3,0.439,0,71,71,139,1,"stimuli/objects/frisbee.jpg","right","new",140,"",NA,NA,NA,NA,NA,NA,"",NA,NA,NA,NA,NA,NA,""
"120",120,120,120,120,120,120,120,120,120,120,120,120,120,120,120,120,120,120,120,120,120,120,120,120,120,120,120,120,120,120,120,120,120,120,120,120,120,120,120,120,120,120,120,120,120,120,120,120,120,120,120,120,120,120,120,120,120,NA,NA,NA,NA,NA,"","","",1,"2021-04-08_16h59.52.507","premceCat2_ses-02_part-02_label-phase2","2020.2.10","Win32",60,"",NA,"",NA,"right",1.077,3,0.395,0,72,72,82,1,"stimuli/objects/snowbrush.jpg","right","new",83,"",NA,NA,NA,NA,NA,NA,"",NA,NA,NA,NA,NA,NA,""
"121",121,121,121,121,121,121,121,121,121,121,121,121,121,121,121,121,121,121,121,121,121,121,121,121,121,121,121,121,121,121,121,121,121,121,121,121,121,121,121,121,121,121,121,121,121,121,121,121,121,121,121,121,121,121,121,121,121,NA,NA,NA,NA,NA,"","","",1,"2021-04-08_16h59.52.507","premceCat2_ses-02_part-02_label-phase2","2020.2.10","Win32",60,"",NA,"",NA,"right",1.283,2,0.136,0,73,73,116,1,"stimuli/objects/radio01.jpg","right","new",117,"",NA,NA,NA,NA,NA,NA,"",NA,NA,NA,NA,NA,NA,""
"122",122,122,122,122,122,122,122,122,122,122,122,122,122,122,122,122,122,122,122,122,122,122,122,122,122,122,122,122,122,122,122,122,122,122,122,122,122,122,122,122,122,122,122,122,122,122,122,122,122,122,122,122,122,122,122,122,122,NA,NA,NA,NA,NA,"","","",1,"2021-04-08_16h59.52.507","premceCat2_ses-02_part-02_label-phase2","2020.2.10","Win32",60,"",NA,"",NA,"left",1.071,3,0.325,NA,NA,NA,NA,NA,"","","",NA,"right",0.268,0,0,0,0,1,"",NA,NA,NA,NA,NA,NA,""
"123",123,123,123,123,123,123,123,123,123,123,123,123,123,123,123,123,123,123,123,123,123,123,123,123,123,123,123,123,123,123,123,123,123,123,123,123,123,123,123,123,123,123,123,123,123,123,123,123,123,123,123,123,123,123,123,123,123,NA,NA,NA,NA,NA,"","","",1,"2021-04-08_16h59.52.507","premceCat2_ses-02_part-02_label-phase2","2020.2.10","Win32",60,"",NA,"",NA,"",NA,NA,NA,0,74,74,87,1,"stimuli/objects/dvdplayer.jpg","left","old",88,"",NA,NA,NA,NA,NA,NA,"",NA,NA,NA,NA,NA,NA,""
"124",124,124,124,124,124,124,124,124,124,124,124,124,124,124,124,124,124,124,124,124,124,124,124,124,124,124,124,124,124,124,124,124,124,124,124,124,124,124,124,124,124,124,124,124,124,124,124,124,124,124,124,124,124,124,124,124,124,NA,NA,NA,NA,NA,"","","",1,"2021-04-08_16h59.52.507","premceCat2_ses-02_part-02_label-phase2","2020.2.10","Win32",60,"",NA,"",NA,"left",1.385,4,0.139,NA,NA,NA,NA,NA,"","","",NA,"left",2.163,0,0,0,0,1,"",NA,NA,NA,NA,NA,NA,""
"125",125,125,125,125,125,125,125,125,125,125,125,125,125,125,125,125,125,125,125,125,125,125,125,125,125,125,125,125,125,125,125,125,125,125,125,125,125,125,125,125,125,125,125,125,125,125,125,125,125,125,125,125,125,125,125,125,125,NA,NA,NA,NA,NA,"","","",1,"2021-04-08_16h59.52.507","premceCat2_ses-02_part-02_label-phase2","2020.2.10","Win32",60,"",NA,"",NA,"",NA,NA,NA,0,75,75,103,1,"stimuli/objects/oven.jpg","left","old",104,"",NA,NA,NA,NA,NA,NA,"",NA,NA,NA,NA,NA,NA,""
"126",126,126,126,126,126,126,126,126,126,126,126,126,126,126,126,126,126,126,126,126,126,126,126,126,126,126,126,126,126,126,126,126,126,126,126,126,126,126,126,126,126,126,126,126,126,126,126,126,126,126,126,126,126,126,126,126,126,NA,NA,NA,NA,NA,"","","",1,"2021-04-08_16h59.52.507","premceCat2_ses-02_part-02_label-phase2","2020.2.10","Win32",60,"",NA,"",NA,"right",3.503,2,0.434,0,76,76,7,1,"stimuli/objects/jigsaw.jpg","left","old",8,"",NA,NA,NA,NA,NA,NA,"",NA,NA,NA,NA,NA,NA,""
"127",127,127,127,127,127,127,127,127,127,127,127,127,127,127,127,127,127,127,127,127,127,127,127,127,127,127,127,127,127,127,127,127,127,127,127,127,127,127,127,127,127,127,127,127,127,127,127,127,127,127,127,127,127,127,127,127,127,NA,NA,NA,NA,NA,"","","",1,"2021-04-08_16h59.52.507","premceCat2_ses-02_part-02_label-phase2","2020.2.10","Win32",60,"",NA,"",NA,"left",0.704,3,0.832,NA,NA,NA,NA,NA,"","","",NA,"left",1.336,0,0,0,0,1,"",NA,NA,NA,NA,NA,NA,""
"128",128,128,128,128,128,128,128,128,128,128,128,128,128,128,128,128,128,128,128,128,128,128,128,128,128,128,128,128,128,128,128,128,128,128,128,128,128,128,128,128,128,128,128,128,128,128,128,128,128,128,128,128,128,128,128,128,128,NA,NA,NA,NA,NA,"","","",1,"2021-04-08_16h59.52.507","premceCat2_ses-02_part-02_label-phase2","2020.2.10","Win32",60,"",NA,"",NA,"",NA,NA,NA,0,77,77,64,1,"stimuli/objects/axe01.jpg","left","old",65,"",NA,NA,NA,NA,NA,NA,"",NA,NA,NA,NA,NA,NA,""
"129",129,129,129,129,129,129,129,129,129,129,129,129,129,129,129,129,129,129,129,129,129,129,129,129,129,129,129,129,129,129,129,129,129,129,129,129,129,129,129,129,129,129,129,129,129,129,129,129,129,129,129,129,129,129,129,129,129,NA,NA,NA,NA,NA,"","","",1,"2021-04-08_16h59.52.507","premceCat2_ses-02_part-02_label-phase2","2020.2.10","Win32",60,"",NA,"",NA,"right",1.004,3,0.335,0,78,78,24,1,"stimuli/objects/skateboard.jpg","right","new",25,"",NA,NA,NA,NA,NA,NA,"",NA,NA,NA,NA,NA,NA,""
"130",130,130,130,130,130,130,130,130,130,130,130,130,130,130,130,130,130,130,130,130,130,130,130,130,130,130,130,130,130,130,130,130,130,130,130,130,130,130,130,130,130,130,130,130,130,130,130,130,130,130,130,130,130,130,130,130,130,NA,NA,NA,NA,NA,"","","",1,"2021-04-08_16h59.52.507","premceCat2_ses-02_part-02_label-phase2","2020.2.10","Win32",60,"",NA,"",NA,"left",1.641,2,0.322,NA,NA,NA,NA,NA,"","","",NA,"right",0.275,0,0,0,0,1,"",NA,NA,NA,NA,NA,NA,""
"131",131,131,131,131,131,131,131,131,131,131,131,131,131,131,131,131,131,131,131,131,131,131,131,131,131,131,131,131,131,131,131,131,131,131,131,131,131,131,131,131,131,131,131,131,131,131,131,131,131,131,131,131,131,131,131,131,131,NA,NA,NA,NA,NA,"","","",1,"2021-04-08_16h59.52.507","premceCat2_ses-02_part-02_label-phase2","2020.2.10","Win32",60,"",NA,"",NA,"",NA,NA,NA,0,79,79,75,1,"stimuli/objects/stepladder.jpg","right","new",76,"",NA,NA,NA,NA,NA,NA,"",NA,NA,NA,NA,NA,NA,""
"132",132,132,132,132,132,132,132,132,132,132,132,132,132,132,132,132,132,132,132,132,132,132,132,132,132,132,132,132,132,132,132,132,132,132,132,132,132,132,132,132,132,132,132,132,132,132,132,132,132,132,132,132,132,132,132,132,132,NA,NA,NA,NA,NA,"","","",1,"2021-04-08_16h59.52.507","premceCat2_ses-02_part-02_label-phase2","2020.2.10","Win32",60,"",NA,"",NA,"left",0.851,3,0.195,NA,NA,NA,NA,NA,"","","",NA,"left",1.407,0,0,0,0,1,"",NA,NA,NA,NA,NA,NA,""
"133",133,133,133,133,133,133,133,133,133,133,133,133,133,133,133,133,133,133,133,133,133,133,133,133,133,133,133,133,133,133,133,133,133,133,133,133,133,133,133,133,133,133,133,133,133,133,133,133,133,133,133,133,133,133,133,133,133,NA,NA,NA,NA,NA,"","","",1,"2021-04-08_16h59.52.507","premceCat2_ses-02_part-02_label-phase2","2020.2.10","Win32",60,"",NA,"",NA,"",NA,NA,NA,0,80,80,58,1,"stimuli/objects/rope03.jpg","left","old",59,"",NA,NA,NA,NA,NA,NA,"",NA,NA,NA,NA,NA,NA,""
"134",134,134,134,134,134,134,134,134,134,134,134,134,134,134,134,134,134,134,134,134,134,134,134,134,134,134,134,134,134,134,134,134,134,134,134,134,134,134,134,134,134,134,134,134,134,134,134,134,134,134,134,134,134,134,134,134,134,NA,NA,NA,NA,NA,"","","",1,"2021-04-08_16h59.52.507","premceCat2_ses-02_part-02_label-phase2","2020.2.10","Win32",60,"",NA,"",NA,"right",1.668,4,0.163,0,81,81,51,1,"stimuli/objects/webcam.jpg","right","new",52,"",NA,NA,NA,NA,NA,NA,"",NA,NA,NA,NA,NA,NA,""
"135",135,135,135,135,135,135,135,135,135,135,135,135,135,135,135,135,135,135,135,135,135,135,135,135,135,135,135,135,135,135,135,135,135,135,135,135,135,135,135,135,135,135,135,135,135,135,135,135,135,135,135,135,135,135,135,135,135,NA,NA,NA,NA,NA,"","","",1,"2021-04-08_16h59.52.507","premceCat2_ses-02_part-02_label-phase2","2020.2.10","Win32",60,"",NA,"",NA,"left",1.192,2,0.229,NA,NA,NA,NA,NA,"","","",NA,"right",0.375,0,0,0,0,1,"",NA,NA,NA,NA,NA,NA,""
"136",136,136,136,136,136,136,136,136,136,136,136,136,136,136,136,136,136,136,136,136,136,136,136,136,136,136,136,136,136,136,136,136,136,136,136,136,136,136,136,136,136,136,136,136,136,136,136,136,136,136,136,136,136,136,136,136,136,NA,NA,NA,NA,NA,"","","",1,"2021-04-08_16h59.52.507","premceCat2_ses-02_part-02_label-phase2","2020.2.10","Win32",60,"",NA,"",NA,"",NA,NA,NA,0,82,82,77,1,"stimuli/objects/photocopier.jpg","left","old",78,"",NA,NA,NA,NA,NA,NA,"",NA,NA,NA,NA,NA,NA,""
"137",137,137,137,137,137,137,137,137,137,137,137,137,137,137,137,137,137,137,137,137,137,137,137,137,137,137,137,137,137,137,137,137,137,137,137,137,137,137,137,137,137,137,137,137,137,137,137,137,137,137,137,137,137,137,137,137,137,NA,NA,NA,NA,NA,"","","",1,"2021-04-08_16h59.52.507","premceCat2_ses-02_part-02_label-phase2","2020.2.10","Win32",60,"",NA,"",NA,"right",1.286,3,0.132,0,83,83,108,1,"stimuli/objects/metalscissors.jpg","right","new",109,"",NA,NA,NA,NA,NA,NA,"",NA,NA,NA,NA,NA,NA,""
"138",138,138,138,138,138,138,138,138,138,138,138,138,138,138,138,138,138,138,138,138,138,138,138,138,138,138,138,138,138,138,138,138,138,138,138,138,138,138,138,138,138,138,138,138,138,138,138,138,138,138,138,138,138,138,138,138,138,NA,NA,NA,NA,NA,"","","",1,"2021-04-08_16h59.52.507","premceCat2_ses-02_part-02_label-phase2","2020.2.10","Win32",60,"",NA,"",NA,"right",0.958,4,0.417,0,84,84,76,1,"stimuli/objects/megaphone.jpg","right","new",77,"",NA,NA,NA,NA,NA,NA,"",NA,NA,NA,NA,NA,NA,""
"139",139,139,139,139,139,139,139,139,139,139,139,139,139,139,139,139,139,139,139,139,139,139,139,139,139,139,139,139,139,139,139,139,139,139,139,139,139,139,139,139,139,139,139,139,139,139,139,139,139,139,139,139,139,139,139,139,139,NA,NA,NA,NA,NA,"","","",1,"2021-04-08_16h59.52.507","premceCat2_ses-02_part-02_label-phase2","2020.2.10","Win32",60,"",NA,"",NA,"left",0.76,3,1.068,NA,NA,NA,NA,NA,"","","",NA,"left",0.255,0,0,0,0,1,"",NA,NA,NA,NA,NA,NA,""
"140",140,140,140,140,140,140,140,140,140,140,140,140,140,140,140,140,140,140,140,140,140,140,140,140,140,140,140,140,140,140,140,140,140,140,140,140,140,140,140,140,140,140,140,140,140,140,140,140,140,140,140,140,140,140,140,140,140,NA,NA,NA,NA,NA,"","","",1,"2021-04-08_16h59.52.507","premceCat2_ses-02_part-02_label-phase2","2020.2.10","Win32",60,"",NA,"",NA,"",NA,NA,NA,0,85,85,0,1,"stimuli/objects/electricoutlet.jpg","left","old",1,"",NA,NA,NA,NA,NA,NA,"",NA,NA,NA,NA,NA,NA,""
"141",141,141,141,141,141,141,141,141,141,141,141,141,141,141,141,141,141,141,141,141,141,141,141,141,141,141,141,141,141,141,141,141,141,141,141,141,141,141,141,141,141,141,141,141,141,141,141,141,141,141,141,141,141,141,141,141,141,NA,NA,NA,NA,NA,"","","",1,"2021-04-08_16h59.52.507","premceCat2_ses-02_part-02_label-phase2","2020.2.10","Win32",60,"",NA,"",NA,"right",1.004,3,0.051,0,86,86,112,1,"stimuli/objects/gymnasticring.jpg","right","new",113,"",NA,NA,NA,NA,NA,NA,"",NA,NA,NA,NA,NA,NA,""
"142",142,142,142,142,142,142,142,142,142,142,142,142,142,142,142,142,142,142,142,142,142,142,142,142,142,142,142,142,142,142,142,142,142,142,142,142,142,142,142,142,142,142,142,142,142,142,142,142,142,142,142,142,142,142,142,142,142,NA,NA,NA,NA,NA,"","","",1,"2021-04-08_16h59.52.507","premceCat2_ses-02_part-02_label-phase2","2020.2.10","Win32",60,"",NA,"",NA,"right",1.346,1,1.537,0,87,87,81,1,"stimuli/objects/avcable.jpg","right","new",82,"",NA,NA,NA,NA,NA,NA,"",NA,NA,NA,NA,NA,NA,""
"143",143,143,143,143,143,143,143,143,143,143,143,143,143,143,143,143,143,143,143,143,143,143,143,143,143,143,143,143,143,143,143,143,143,143,143,143,143,143,143,143,143,143,143,143,143,143,143,143,143,143,143,143,143,143,143,143,143,NA,NA,NA,NA,NA,"","","",1,"2021-04-08_16h59.52.507","premceCat2_ses-02_part-02_label-phase2","2020.2.10","Win32",60,"",NA,"",NA,"right",1.239,2,0.281,0,88,88,43,1,"stimuli/objects/punchingball.jpg","right","new",44,"",NA,NA,NA,NA,NA,NA,"",NA,NA,NA,NA,NA,NA,""
"144",144,144,144,144,144,144,144,144,144,144,144,144,144,144,144,144,144,144,144,144,144,144,144,144,144,144,144,144,144,144,144,144,144,144,144,144,144,144,144,144,144,144,144,144,144,144,144,144,144,144,144,144,144,144,144,144,144,NA,NA,NA,NA,NA,"","","",1,"2021-04-08_16h59.52.507","premceCat2_ses-02_part-02_label-phase2","2020.2.10","Win32",60,"",NA,"",NA,"right",3.645,2,0.156,0,89,89,104,1,"stimuli/objects/lightbulb01.jpg","left","old",105,"",NA,NA,NA,NA,NA,NA,"",NA,NA,NA,NA,NA,NA,""
"145",145,145,145,145,145,145,145,145,145,145,145,145,145,145,145,145,145,145,145,145,145,145,145,145,145,145,145,145,145,145,145,145,145,145,145,145,145,145,145,145,145,145,145,145,145,145,145,145,145,145,145,145,145,145,145,145,145,NA,NA,NA,NA,NA,"","","",1,"2021-04-08_16h59.52.507","premceCat2_ses-02_part-02_label-phase2","2020.2.10","Win32",60,"",NA,"",NA,"right",1.076,2,0.099,0,90,90,32,1,"stimuli/objects/mitresaw.jpg","right","new",33,"",NA,NA,NA,NA,NA,NA,"",NA,NA,NA,NA,NA,NA,""
"146",146,146,146,146,146,146,146,146,146,146,146,146,146,146,146,146,146,146,146,146,146,146,146,146,146,146,146,146,146,146,146,146,146,146,146,146,146,146,146,146,146,146,146,146,146,146,146,146,146,146,146,146,146,146,146,146,146,NA,NA,NA,NA,NA,"","","",1,"2021-04-08_16h59.52.507","premceCat2_ses-02_part-02_label-phase2","2020.2.10","Win32",60,"",NA,"",NA,"right",0.979,2,0.167,0,91,91,68,1,"stimuli/objects/leafblower01.jpg","right","new",69,"",NA,NA,NA,NA,NA,NA,"",NA,NA,NA,NA,NA,NA,""
"147",147,147,147,147,147,147,147,147,147,147,147,147,147,147,147,147,147,147,147,147,147,147,147,147,147,147,147,147,147,147,147,147,147,147,147,147,147,147,147,147,147,147,147,147,147,147,147,147,147,147,147,147,147,147,147,147,147,NA,NA,NA,NA,NA,"","","",1,"2021-04-08_16h59.52.507","premceCat2_ses-02_part-02_label-phase2","2020.2.10","Win32",60,"",NA,"",NA,"left",0.889,2,0.348,NA,NA,NA,NA,NA,"","","",NA,"right",1.855,0,0,0,0,1,"",NA,NA,NA,NA,NA,NA,""
"148",148,148,148,148,148,148,148,148,148,148,148,148,148,148,148,148,148,148,148,148,148,148,148,148,148,148,148,148,148,148,148,148,148,148,148,148,148,148,148,148,148,148,148,148,148,148,148,148,148,148,148,148,148,148,148,148,148,NA,NA,NA,NA,NA,"","","",1,"2021-04-08_16h59.52.507","premceCat2_ses-02_part-02_label-phase2","2020.2.10","Win32",60,"",NA,"",NA,"",NA,NA,NA,0,92,92,60,1,"stimuli/objects/glass02a.jpg","right","new",61,"",NA,NA,NA,NA,NA,NA,"",NA,NA,NA,NA,NA,NA,""
"149",149,149,149,149,149,149,149,149,149,149,149,149,149,149,149,149,149,149,149,149,149,149,149,149,149,149,149,149,149,149,149,149,149,149,149,149,149,149,149,149,149,149,149,149,149,149,149,149,149,149,149,149,149,149,149,149,149,NA,NA,NA,NA,NA,"","","",1,"2021-04-08_16h59.52.507","premceCat2_ses-02_part-02_label-phase2","2020.2.10","Win32",60,"",NA,"",NA,"left",1.276,2,0.127,NA,NA,NA,NA,NA,"","","",NA,"right",0.211,0,0,0,0,1,"",NA,NA,NA,NA,NA,NA,""
"150",150,150,150,150,150,150,150,150,150,150,150,150,150,150,150,150,150,150,150,150,150,150,150,150,150,150,150,150,150,150,150,150,150,150,150,150,150,150,150,150,150,150,150,150,150,150,150,150,150,150,150,150,150,150,150,150,150,NA,NA,NA,NA,NA,"","","",1,"2021-04-08_16h59.52.507","premceCat2_ses-02_part-02_label-phase2","2020.2.10","Win32",60,"",NA,"",NA,"",NA,NA,NA,0,93,93,11,1,"stimuli/objects/usbkey.jpg","left","old",12,"",NA,NA,NA,NA,NA,NA,"",NA,NA,NA,NA,NA,NA,""
"151",151,151,151,151,151,151,151,151,151,151,151,151,151,151,151,151,151,151,151,151,151,151,151,151,151,151,151,151,151,151,151,151,151,151,151,151,151,151,151,151,151,151,151,151,151,151,151,151,151,151,151,151,151,151,151,151,151,NA,NA,NA,NA,NA,"","","",1,"2021-04-08_16h59.52.507","premceCat2_ses-02_part-02_label-phase2","2020.2.10","Win32",60,"",NA,"",NA,"left",5.968,2,1.451,NA,NA,NA,NA,NA,"","","",NA,"right",1.267,0,0,0,0,1,"",NA,NA,NA,NA,NA,NA,""
"152",152,152,152,152,152,152,152,152,152,152,152,152,152,152,152,152,152,152,152,152,152,152,152,152,152,152,152,152,152,152,152,152,152,152,152,152,152,152,152,152,152,152,152,152,152,152,152,152,152,152,152,152,152,152,152,152,152,NA,NA,NA,NA,NA,"","","",1,"2021-04-08_16h59.52.507","premceCat2_ses-02_part-02_label-phase2","2020.2.10","Win32",60,"",NA,"",NA,"",NA,NA,NA,0,94,94,67,1,"stimuli/objects/cooler01.jpg","left","old",68,"",NA,NA,NA,NA,NA,NA,"",NA,NA,NA,NA,NA,NA,""
"153",153,153,153,153,153,153,153,153,153,153,153,153,153,153,153,153,153,153,153,153,153,153,153,153,153,153,153,153,153,153,153,153,153,153,153,153,153,153,153,153,153,153,153,153,153,153,153,153,153,153,153,153,153,153,153,153,153,NA,NA,NA,NA,NA,"","","",1,"2021-04-08_16h59.52.507","premceCat2_ses-02_part-02_label-phase2","2020.2.10","Win32",60,"",NA,"",NA,"left",1.245,2,0.297,NA,NA,NA,NA,NA,"","","",NA,"right",1.775,0,0,0,0,1,"",NA,NA,NA,NA,NA,NA,""
"154",154,154,154,154,154,154,154,154,154,154,154,154,154,154,154,154,154,154,154,154,154,154,154,154,154,154,154,154,154,154,154,154,154,154,154,154,154,154,154,154,154,154,154,154,154,154,154,154,154,154,154,154,154,154,154,154,154,NA,NA,NA,NA,NA,"","","",1,"2021-04-08_16h59.52.507","premceCat2_ses-02_part-02_label-phase2","2020.2.10","Win32",60,"",NA,"",NA,"",NA,NA,NA,0,95,95,36,1,"stimuli/objects/antenna.jpg","left","old",37,"",NA,NA,NA,NA,NA,NA,"",NA,NA,NA,NA,NA,NA,""
"155",155,155,155,155,155,155,155,155,155,155,155,155,155,155,155,155,155,155,155,155,155,155,155,155,155,155,155,155,155,155,155,155,155,155,155,155,155,155,155,155,155,155,155,155,155,155,155,155,155,155,155,155,155,155,155,155,155,NA,NA,NA,NA,NA,"","","",1,"2021-04-08_16h59.52.507","premceCat2_ses-02_part-02_label-phase2","2020.2.10","Win32",60,"",NA,"",NA,"left",1.398,4,0.302,NA,NA,NA,NA,NA,"","","",NA,"left",0.214,0,0,0,0,1,"",NA,NA,NA,NA,NA,NA,""
"156",156,156,156,156,156,156,156,156,156,156,156,156,156,156,156,156,156,156,156,156,156,156,156,156,156,156,156,156,156,156,156,156,156,156,156,156,156,156,156,156,156,156,156,156,156,156,156,156,156,156,156,156,156,156,156,156,156,NA,NA,NA,NA,NA,"","","",1,"2021-04-08_16h59.52.507","premceCat2_ses-02_part-02_label-phase2","2020.2.10","Win32",60,"",NA,"",NA,"",NA,NA,NA,0,96,96,79,1,"stimuli/objects/wire.jpg","left","old",80,"",NA,NA,NA,NA,NA,NA,"",NA,NA,NA,NA,NA,NA,""
"157",157,157,157,157,157,157,157,157,157,157,157,157,157,157,157,157,157,157,157,157,157,157,157,157,157,157,157,157,157,157,157,157,157,157,157,157,157,157,157,157,157,157,157,157,157,157,157,157,157,157,157,157,157,157,157,157,157,NA,NA,NA,NA,NA,"","","",1,"2021-04-08_16h59.52.507","premceCat2_ses-02_part-02_label-phase2","2020.2.10","Win32",60,"",NA,"",NA,"right",1.832,2,0.132,0,97,97,95,1,"stimuli/objects/lectern01.jpg","left","old",96,"",NA,NA,NA,NA,NA,NA,"",NA,NA,NA,NA,NA,NA,""
"158",158,158,158,158,158,158,158,158,158,158,158,158,158,158,158,158,158,158,158,158,158,158,158,158,158,158,158,158,158,158,158,158,158,158,158,158,158,158,158,158,158,158,158,158,158,158,158,158,158,158,158,158,158,158,158,158,158,NA,NA,NA,NA,NA,"","","",1,"2021-04-08_16h59.52.507","premceCat2_ses-02_part-02_label-phase2","2020.2.10","Win32",60,"",NA,"",NA,"left",1.026,1,1.464,NA,NA,NA,NA,NA,"","","",NA,"right",1.841,0,0,0,0,1,"",NA,NA,NA,NA,NA,NA,""
"159",159,159,159,159,159,159,159,159,159,159,159,159,159,159,159,159,159,159,159,159,159,159,159,159,159,159,159,159,159,159,159,159,159,159,159,159,159,159,159,159,159,159,159,159,159,159,159,159,159,159,159,159,159,159,159,159,159,NA,NA,NA,NA,NA,"","","",1,"2021-04-08_16h59.52.507","premceCat2_ses-02_part-02_label-phase2","2020.2.10","Win32",60,"",NA,"",NA,"",NA,NA,NA,0,98,98,9,1,"stimuli/objects/measuringtape01.jpg","right","new",10,"",NA,NA,NA,NA,NA,NA,"",NA,NA,NA,NA,NA,NA,""
"160",160,160,160,160,160,160,160,160,160,160,160,160,160,160,160,160,160,160,160,160,160,160,160,160,160,160,160,160,160,160,160,160,160,160,160,160,160,160,160,160,160,160,160,160,160,160,160,160,160,160,160,160,160,160,160,160,160,NA,NA,NA,NA,NA,"","","",1,"2021-04-08_16h59.52.507","premceCat2_ses-02_part-02_label-phase2","2020.2.10","Win32",60,"",NA,"",NA,"left",1.054,3,0.237,NA,NA,NA,NA,NA,"","","",NA,"right",0.348,0,0,0,0,1,"",NA,NA,NA,NA,NA,NA,""
"161",161,161,161,161,161,161,161,161,161,161,161,161,161,161,161,161,161,161,161,161,161,161,161,161,161,161,161,161,161,161,161,161,161,161,161,161,161,161,161,161,161,161,161,161,161,161,161,161,161,161,161,161,161,161,161,161,161,NA,NA,NA,NA,NA,"","","",1,"2021-04-08_16h59.52.507","premceCat2_ses-02_part-02_label-phase2","2020.2.10","Win32",60,"",NA,"",NA,"",NA,NA,NA,0,99,99,29,1,"stimuli/objects/djmixer02.jpg","left","old",30,"",NA,NA,NA,NA,NA,NA,"",NA,NA,NA,NA,NA,NA,""
"162",162,162,162,162,162,162,162,162,162,162,162,162,162,162,162,162,162,162,162,162,162,162,162,162,162,162,162,162,162,162,162,162,162,162,162,162,162,162,162,162,162,162,162,162,162,162,162,162,162,162,162,162,162,162,162,162,162,NA,NA,NA,NA,NA,"","","",1,"2021-04-08_16h59.52.507","premceCat2_ses-02_part-02_label-phase2","2020.2.10","Win32",60,"",NA,"",NA,"right",0.919,4,0.244,0,100,100,80,1,"stimuli/objects/snowman.jpg","right","new",81,"",NA,NA,NA,NA,NA,NA,"",NA,NA,NA,NA,NA,NA,""
"163",163,163,163,163,163,163,163,163,163,163,163,163,163,163,163,163,163,163,163,163,163,163,163,163,163,163,163,163,163,163,163,163,163,163,163,163,163,163,163,163,163,163,163,163,163,163,163,163,163,163,163,163,163,163,163,163,163,NA,NA,NA,NA,NA,"","","",1,"2021-04-08_16h59.52.507","premceCat2_ses-02_part-02_label-phase2","2020.2.10","Win32",60,"",NA,"",NA,"left",1.397,2,0.157,NA,NA,NA,NA,NA,"","","",NA,"right",0.236,0,0,0,0,1,"",NA,NA,NA,NA,NA,NA,""
"164",164,164,164,164,164,164,164,164,164,164,164,164,164,164,164,164,164,164,164,164,164,164,164,164,164,164,164,164,164,164,164,164,164,164,164,164,164,164,164,164,164,164,164,164,164,164,164,164,164,164,164,164,164,164,164,164,164,NA,NA,NA,NA,NA,"","","",1,"2021-04-08_16h59.52.507","premceCat2_ses-02_part-02_label-phase2","2020.2.10","Win32",60,"",NA,"",NA,"",NA,NA,NA,0,101,101,31,1,"stimuli/objects/ladder.jpg","left","old",32,"",NA,NA,NA,NA,NA,NA,"",NA,NA,NA,NA,NA,NA,""
"165",165,165,165,165,165,165,165,165,165,165,165,165,165,165,165,165,165,165,165,165,165,165,165,165,165,165,165,165,165,165,165,165,165,165,165,165,165,165,165,165,165,165,165,165,165,165,165,165,165,165,165,165,165,165,165,165,165,NA,NA,NA,NA,NA,"","","",1,"2021-04-08_16h59.52.507","premceCat2_ses-02_part-02_label-phase2","2020.2.10","Win32",60,"",NA,"",NA,"left",1.325,3,0.446,NA,NA,NA,NA,NA,"","","",NA,"left",3.529,0,0,0,0,1,"",NA,NA,NA,NA,NA,NA,""
"166",166,166,166,166,166,166,166,166,166,166,166,166,166,166,166,166,166,166,166,166,166,166,166,166,166,166,166,166,166,166,166,166,166,166,166,166,166,166,166,166,166,166,166,166,166,166,166,166,166,166,166,166,166,166,166,166,166,NA,NA,NA,NA,NA,"","","",1,"2021-04-08_16h59.52.507","premceCat2_ses-02_part-02_label-phase2","2020.2.10","Win32",60,"",NA,"",NA,"",NA,NA,NA,0,102,102,120,1,"stimuli/objects/martiniglass01b.jpg","left","old",121,"",NA,NA,NA,NA,NA,NA,"",NA,NA,NA,NA,NA,NA,""
"167",167,167,167,167,167,167,167,167,167,167,167,167,167,167,167,167,167,167,167,167,167,167,167,167,167,167,167,167,167,167,167,167,167,167,167,167,167,167,167,167,167,167,167,167,167,167,167,167,167,167,167,167,167,167,167,167,167,NA,NA,NA,NA,NA,"","","",1,"2021-04-08_16h59.52.507","premceCat2_ses-02_part-02_label-phase2","2020.2.10","Win32",60,"",NA,"",NA,"right",1.194,2,0.545,0,103,103,97,1,"stimuli/objects/satellitedish01.jpg","left","old",98,"",NA,NA,NA,NA,NA,NA,"",NA,NA,NA,NA,NA,NA,""
"168",168,168,168,168,168,168,168,168,168,168,168,168,168,168,168,168,168,168,168,168,168,168,168,168,168,168,168,168,168,168,168,168,168,168,168,168,168,168,168,168,168,168,168,168,168,168,168,168,168,168,168,168,168,168,168,168,168,NA,NA,NA,NA,NA,"","","",1,"2021-04-08_16h59.52.507","premceCat2_ses-02_part-02_label-phase2","2020.2.10","Win32",60,"",NA,"",NA,"left",0.964,3,0.445,NA,NA,NA,NA,NA,"","","",NA,"left",0.342,0,0,0,0,1,"",NA,NA,NA,NA,NA,NA,""
"169",169,169,169,169,169,169,169,169,169,169,169,169,169,169,169,169,169,169,169,169,169,169,169,169,169,169,169,169,169,169,169,169,169,169,169,169,169,169,169,169,169,169,169,169,169,169,169,169,169,169,169,169,169,169,169,169,169,NA,NA,NA,NA,NA,"","","",1,"2021-04-08_16h59.52.507","premceCat2_ses-02_part-02_label-phase2","2020.2.10","Win32",60,"",NA,"",NA,"",NA,NA,NA,0,104,104,135,1,"stimuli/objects/wheelbarrow01.jpg","left","old",136,"",NA,NA,NA,NA,NA,NA,"",NA,NA,NA,NA,NA,NA,""
"170",170,170,170,170,170,170,170,170,170,170,170,170,170,170,170,170,170,170,170,170,170,170,170,170,170,170,170,170,170,170,170,170,170,170,170,170,170,170,170,170,170,170,170,170,170,170,170,170,170,170,170,170,170,170,170,170,170,NA,NA,NA,NA,NA,"","","",1,"2021-04-08_16h59.52.507","premceCat2_ses-02_part-02_label-phase2","2020.2.10","Win32",60,"",NA,"",NA,"right",1.892,2,0.265,0,105,105,54,1,"stimuli/objects/pda.jpg","right","new",55,"",NA,NA,NA,NA,NA,NA,"",NA,NA,NA,NA,NA,NA,""
"171",171,171,171,171,171,171,171,171,171,171,171,171,171,171,171,171,171,171,171,171,171,171,171,171,171,171,171,171,171,171,171,171,171,171,171,171,171,171,171,171,171,171,171,171,171,171,171,171,171,171,171,171,171,171,171,171,171,NA,NA,NA,NA,NA,"","","",1,"2021-04-08_16h59.52.507","premceCat2_ses-02_part-02_label-phase2","2020.2.10","Win32",60,"",NA,"",NA,"left",2.547,1,0.002,NA,NA,NA,NA,NA,"","","",NA,"right",0.609,0,0,0,0,1,"",NA,NA,NA,NA,NA,NA,""
"172",172,172,172,172,172,172,172,172,172,172,172,172,172,172,172,172,172,172,172,172,172,172,172,172,172,172,172,172,172,172,172,172,172,172,172,172,172,172,172,172,172,172,172,172,172,172,172,172,172,172,172,172,172,172,172,172,172,NA,NA,NA,NA,NA,"","","",1,"2021-04-08_16h59.52.507","premceCat2_ses-02_part-02_label-phase2","2020.2.10","Win32",60,"",NA,"",NA,"",NA,NA,NA,0,106,106,53,1,"stimuli/objects/binoculars01b.jpg","right","new",54,"",NA,NA,NA,NA,NA,NA,"",NA,NA,NA,NA,NA,NA,""
"173",173,173,173,173,173,173,173,173,173,173,173,173,173,173,173,173,173,173,173,173,173,173,173,173,173,173,173,173,173,173,173,173,173,173,173,173,173,173,173,173,173,173,173,173,173,173,173,173,173,173,173,173,173,173,173,173,173,NA,NA,NA,NA,NA,"","","",1,"2021-04-08_16h59.52.507","premceCat2_ses-02_part-02_label-phase2","2020.2.10","Win32",60,"",NA,"",NA,"right",1.907,2,0.477,0,107,107,46,1,"stimuli/objects/walkman.jpg","right","new",47,"",NA,NA,NA,NA,NA,NA,"",NA,NA,NA,NA,NA,NA,""
"174",174,174,174,174,174,174,174,174,174,174,174,174,174,174,174,174,174,174,174,174,174,174,174,174,174,174,174,174,174,174,174,174,174,174,174,174,174,174,174,174,174,174,174,174,174,174,174,174,174,174,174,174,174,174,174,174,174,NA,NA,NA,NA,NA,"","","",1,"2021-04-08_16h59.52.507","premceCat2_ses-02_part-02_label-phase2","2020.2.10","Win32",60,"",NA,"",NA,"right",1.15,4,0.335,0,108,108,26,1,"stimuli/objects/boogieboard.jpg","right","new",27,"",NA,NA,NA,NA,NA,NA,"",NA,NA,NA,NA,NA,NA,""
"175",175,175,175,175,175,175,175,175,175,175,175,175,175,175,175,175,175,175,175,175,175,175,175,175,175,175,175,175,175,175,175,175,175,175,175,175,175,175,175,175,175,175,175,175,175,175,175,175,175,175,175,175,175,175,175,175,175,NA,NA,NA,NA,NA,"","","",1,"2021-04-08_16h59.52.507","premceCat2_ses-02_part-02_label-phase2","2020.2.10","Win32",60,"",NA,"",NA,"left",0.97,4,0.402,NA,NA,NA,NA,NA,"","","",NA,"left",0.592,0,0,0,0,1,"",NA,NA,NA,NA,NA,NA,""
"176",176,176,176,176,176,176,176,176,176,176,176,176,176,176,176,176,176,176,176,176,176,176,176,176,176,176,176,176,176,176,176,176,176,176,176,176,176,176,176,176,176,176,176,176,176,176,176,176,176,176,176,176,176,176,176,176,176,NA,NA,NA,NA,NA,"","","",1,"2021-04-08_16h59.52.507","premceCat2_ses-02_part-02_label-phase2","2020.2.10","Win32",60,"",NA,"",NA,"",NA,NA,NA,0,109,109,98,1,"stimuli/objects/podium.jpg","left","old",99,"",NA,NA,NA,NA,NA,NA,"",NA,NA,NA,NA,NA,NA,""
"177",177,177,177,177,177,177,177,177,177,177,177,177,177,177,177,177,177,177,177,177,177,177,177,177,177,177,177,177,177,177,177,177,177,177,177,177,177,177,177,177,177,177,177,177,177,177,177,177,177,177,177,177,177,177,177,177,177,NA,NA,NA,NA,NA,"","","",1,"2021-04-08_16h59.52.507","premceCat2_ses-02_part-02_label-phase2","2020.2.10","Win32",60,"",NA,"",NA,"right",1.184,1,0.296,0,110,110,5,1,"stimuli/objects/lamp04a.jpg","left","old",6,"",NA,NA,NA,NA,NA,NA,"",NA,NA,NA,NA,NA,NA,""
"178",178,178,178,178,178,178,178,178,178,178,178,178,178,178,178,178,178,178,178,178,178,178,178,178,178,178,178,178,178,178,178,178,178,178,178,178,178,178,178,178,178,178,178,178,178,178,178,178,178,178,178,178,178,178,178,178,178,NA,NA,NA,NA,NA,"","","",1,"2021-04-08_16h59.52.507","premceCat2_ses-02_part-02_label-phase2","2020.2.10","Win32",60,"",NA,"",NA,"left",1.401,2,0.266,NA,NA,NA,NA,NA,"","","",NA,"left",0.267,0,0,0,0,1,"",NA,NA,NA,NA,NA,NA,""
"179",179,179,179,179,179,179,179,179,179,179,179,179,179,179,179,179,179,179,179,179,179,179,179,179,179,179,179,179,179,179,179,179,179,179,179,179,179,179,179,179,179,179,179,179,179,179,179,179,179,179,179,179,179,179,179,179,179,NA,NA,NA,NA,NA,"","","",1,"2021-04-08_16h59.52.507","premceCat2_ses-02_part-02_label-phase2","2020.2.10","Win32",60,"",NA,"",NA,"",NA,NA,NA,0,111,111,12,1,"stimuli/objects/garlicpress02a.jpg","right","new",13,"",NA,NA,NA,NA,NA,NA,"",NA,NA,NA,NA,NA,NA,""
"180",180,180,180,180,180,180,180,180,180,180,180,180,180,180,180,180,180,180,180,180,180,180,180,180,180,180,180,180,180,180,180,180,180,180,180,180,180,180,180,180,180,180,180,180,180,180,180,180,180,180,180,180,180,180,180,180,180,NA,NA,NA,NA,NA,"","","",1,"2021-04-08_16h59.52.507","premceCat2_ses-02_part-02_label-phase2","2020.2.10","Win32",60,"",NA,"",NA,"right",1.323,3,0.413,0,112,112,128,1,"stimuli/objects/tripod01.jpg","right","new",129,"",NA,NA,NA,NA,NA,NA,"",NA,NA,NA,NA,NA,NA,""
"181",181,181,181,181,181,181,181,181,181,181,181,181,181,181,181,181,181,181,181,181,181,181,181,181,181,181,181,181,181,181,181,181,181,181,181,181,181,181,181,181,181,181,181,181,181,181,181,181,181,181,181,181,181,181,181,181,181,NA,NA,NA,NA,NA,"","","",1,"2021-04-08_16h59.52.507","premceCat2_ses-02_part-02_label-phase2","2020.2.10","Win32",60,"",NA,"",NA,"left",1.086,3,0.327,NA,NA,NA,NA,NA,"","","",NA,"left",0.17,0,0,0,0,1,"",NA,NA,NA,NA,NA,NA,""
"182",182,182,182,182,182,182,182,182,182,182,182,182,182,182,182,182,182,182,182,182,182,182,182,182,182,182,182,182,182,182,182,182,182,182,182,182,182,182,182,182,182,182,182,182,182,182,182,182,182,182,182,182,182,182,182,182,182,NA,NA,NA,NA,NA,"","","",1,"2021-04-08_16h59.52.507","premceCat2_ses-02_part-02_label-phase2","2020.2.10","Win32",60,"",NA,"",NA,"",NA,NA,NA,0,113,113,56,1,"stimuli/objects/cookingpot.jpg","left","old",57,"",NA,NA,NA,NA,NA,NA,"",NA,NA,NA,NA,NA,NA,""
"183",183,183,183,183,183,183,183,183,183,183,183,183,183,183,183,183,183,183,183,183,183,183,183,183,183,183,183,183,183,183,183,183,183,183,183,183,183,183,183,183,183,183,183,183,183,183,183,183,183,183,183,183,183,183,183,183,183,NA,NA,NA,NA,NA,"","","",1,"2021-04-08_16h59.52.507","premceCat2_ses-02_part-02_label-phase2","2020.2.10","Win32",60,"",NA,"",NA,"left",1.113,4,0.167,NA,NA,NA,NA,NA,"","","",NA,"right",0.908,0,0,0,0,1,"",NA,NA,NA,NA,NA,NA,""
"184",184,184,184,184,184,184,184,184,184,184,184,184,184,184,184,184,184,184,184,184,184,184,184,184,184,184,184,184,184,184,184,184,184,184,184,184,184,184,184,184,184,184,184,184,184,184,184,184,184,184,184,184,184,184,184,184,184,NA,NA,NA,NA,NA,"","","",1,"2021-04-08_16h59.52.507","premceCat2_ses-02_part-02_label-phase2","2020.2.10","Win32",60,"",NA,"",NA,"",NA,NA,NA,0,114,114,114,1,"stimuli/objects/espressomachine.jpg","left","old",115,"",NA,NA,NA,NA,NA,NA,"",NA,NA,NA,NA,NA,NA,""
"185",185,185,185,185,185,185,185,185,185,185,185,185,185,185,185,185,185,185,185,185,185,185,185,185,185,185,185,185,185,185,185,185,185,185,185,185,185,185,185,185,185,185,185,185,185,185,185,185,185,185,185,185,185,185,185,185,185,NA,NA,NA,NA,NA,"","","",1,"2021-04-08_16h59.52.507","premceCat2_ses-02_part-02_label-phase2","2020.2.10","Win32",60,"",NA,"",NA,"right",1.348,2,0.086,0,115,115,113,1,"stimuli/objects/powercable.jpg","right","new",114,"",NA,NA,NA,NA,NA,NA,"",NA,NA,NA,NA,NA,NA,""
"186",186,186,186,186,186,186,186,186,186,186,186,186,186,186,186,186,186,186,186,186,186,186,186,186,186,186,186,186,186,186,186,186,186,186,186,186,186,186,186,186,186,186,186,186,186,186,186,186,186,186,186,186,186,186,186,186,186,NA,NA,NA,NA,NA,"","","",1,"2021-04-08_16h59.52.507","premceCat2_ses-02_part-02_label-phase2","2020.2.10","Win32",60,"",NA,"",NA,"right",1.65,2,0.418,0,116,116,90,1,"stimuli/objects/carlighter02.jpg","right","new",91,"",NA,NA,NA,NA,NA,NA,"",NA,NA,NA,NA,NA,NA,""
"187",187,187,187,187,187,187,187,187,187,187,187,187,187,187,187,187,187,187,187,187,187,187,187,187,187,187,187,187,187,187,187,187,187,187,187,187,187,187,187,187,187,187,187,187,187,187,187,187,187,187,187,187,187,187,187,187,187,NA,NA,NA,NA,NA,"","","",1,"2021-04-08_16h59.52.507","premceCat2_ses-02_part-02_label-phase2","2020.2.10","Win32",60,"",NA,"",NA,"left",1.061,2,0.126,NA,NA,NA,NA,NA,"","","",NA,"left",0.308,0,0,0,0,1,"",NA,NA,NA,NA,NA,NA,""
"188",188,188,188,188,188,188,188,188,188,188,188,188,188,188,188,188,188,188,188,188,188,188,188,188,188,188,188,188,188,188,188,188,188,188,188,188,188,188,188,188,188,188,188,188,188,188,188,188,188,188,188,188,188,188,188,188,188,NA,NA,NA,NA,NA,"","","",1,"2021-04-08_16h59.52.507","premceCat2_ses-02_part-02_label-phase2","2020.2.10","Win32",60,"",NA,"",NA,"",NA,NA,NA,0,117,117,33,1,"stimuli/objects/microwave.jpg","right","new",34,"",NA,NA,NA,NA,NA,NA,"",NA,NA,NA,NA,NA,NA,""
"189",189,189,189,189,189,189,189,189,189,189,189,189,189,189,189,189,189,189,189,189,189,189,189,189,189,189,189,189,189,189,189,189,189,189,189,189,189,189,189,189,189,189,189,189,189,189,189,189,189,189,189,189,189,189,189,189,189,NA,NA,NA,NA,NA,"","","",1,"2021-04-08_16h59.52.507","premceCat2_ses-02_part-02_label-phase2","2020.2.10","Win32",60,"",NA,"",NA,"left",2.279,2,0.731,NA,NA,NA,NA,NA,"","","",NA,"right",0.277,0,0,0,0,1,"",NA,NA,NA,NA,NA,NA,""
"190",190,190,190,190,190,190,190,190,190,190,190,190,190,190,190,190,190,190,190,190,190,190,190,190,190,190,190,190,190,190,190,190,190,190,190,190,190,190,190,190,190,190,190,190,190,190,190,190,190,190,190,190,190,190,190,190,190,NA,NA,NA,NA,NA,"","","",1,"2021-04-08_16h59.52.507","premceCat2_ses-02_part-02_label-phase2","2020.2.10","Win32",60,"",NA,"",NA,"",NA,NA,NA,0,118,118,91,1,"stimuli/objects/snowblower.jpg","left","old",92,"",NA,NA,NA,NA,NA,NA,"",NA,NA,NA,NA,NA,NA,""
"191",191,191,191,191,191,191,191,191,191,191,191,191,191,191,191,191,191,191,191,191,191,191,191,191,191,191,191,191,191,191,191,191,191,191,191,191,191,191,191,191,191,191,191,191,191,191,191,191,191,191,191,191,191,191,191,191,191,NA,NA,NA,NA,NA,"","","",1,"2021-04-08_16h59.52.507","premceCat2_ses-02_part-02_label-phase2","2020.2.10","Win32",60,"",NA,"",NA,"right",1.229,3,0.011,0,119,119,125,1,"stimuli/objects/shoulderpad.jpg","right","new",126,"",NA,NA,NA,NA,NA,NA,"",NA,NA,NA,NA,NA,NA,""
"192",192,192,192,192,192,192,192,192,192,192,192,192,192,192,192,192,192,192,192,192,192,192,192,192,192,192,192,192,192,192,192,192,192,192,192,192,192,192,192,192,192,192,192,192,192,192,192,192,192,192,192,192,192,192,192,192,192,NA,NA,NA,NA,NA,"","","",1,"2021-04-08_16h59.52.507","premceCat2_ses-02_part-02_label-phase2","2020.2.10","Win32",60,"",NA,"",NA,"right",1.024,3,0.029,0,120,120,126,1,"stimuli/objects/tableknife02.jpg","right","new",127,"",NA,NA,NA,NA,NA,NA,"",NA,NA,NA,NA,NA,NA,""
"193",193,193,193,193,193,193,193,193,193,193,193,193,193,193,193,193,193,193,193,193,193,193,193,193,193,193,193,193,193,193,193,193,193,193,193,193,193,193,193,193,193,193,193,193,193,193,193,193,193,193,193,193,193,193,193,193,193,NA,NA,NA,NA,NA,"","","",1,"2021-04-08_16h59.52.507","premceCat2_ses-02_part-02_label-phase2","2020.2.10","Win32",60,"",NA,"",NA,"right",0.974,3,0.107,0,121,121,19,1,"stimuli/objects/peppermill02b.jpg","right","new",20,"",NA,NA,NA,NA,NA,NA,"",NA,NA,NA,NA,NA,NA,""
"194",194,194,194,194,194,194,194,194,194,194,194,194,194,194,194,194,194,194,194,194,194,194,194,194,194,194,194,194,194,194,194,194,194,194,194,194,194,194,194,194,194,194,194,194,194,194,194,194,194,194,194,194,194,194,194,194,194,NA,NA,NA,NA,NA,"","","",1,"2021-04-08_16h59.52.507","premceCat2_ses-02_part-02_label-phase2","2020.2.10","Win32",60,"",NA,"",NA,"right",1.133,3,0.057,0,122,122,17,1,"stimuli/objects/exercisebench.jpg","right","new",18,"",NA,NA,NA,NA,NA,NA,"",NA,NA,NA,NA,NA,NA,""
"195",195,195,195,195,195,195,195,195,195,195,195,195,195,195,195,195,195,195,195,195,195,195,195,195,195,195,195,195,195,195,195,195,195,195,195,195,195,195,195,195,195,195,195,195,195,195,195,195,195,195,195,195,195,195,195,195,195,NA,NA,NA,NA,NA,"","","",1,"2021-04-08_16h59.52.507","premceCat2_ses-02_part-02_label-phase2","2020.2.10","Win32",60,"",NA,"",NA,"right",1.089,2,0.054,0,123,123,63,1,"stimuli/objects/butterdish.jpg","right","new",64,"",NA,NA,NA,NA,NA,NA,"",NA,NA,NA,NA,NA,NA,""
"196",196,196,196,196,196,196,196,196,196,196,196,196,196,196,196,196,196,196,196,196,196,196,196,196,196,196,196,196,196,196,196,196,196,196,196,196,196,196,196,196,196,196,196,196,196,196,196,196,196,196,196,196,196,196,196,196,196,NA,NA,NA,NA,NA,"","","",1,"2021-04-08_16h59.52.507","premceCat2_ses-02_part-02_label-phase2","2020.2.10","Win32",60,"",NA,"",NA,"left",1.798,3,0.319,NA,NA,NA,NA,NA,"","","",NA,"left",0.562,0,0,0,0,1,"",NA,NA,NA,NA,NA,NA,""
"197",197,197,197,197,197,197,197,197,197,197,197,197,197,197,197,197,197,197,197,197,197,197,197,197,197,197,197,197,197,197,197,197,197,197,197,197,197,197,197,197,197,197,197,197,197,197,197,197,197,197,197,197,197,197,197,197,197,NA,NA,NA,NA,NA,"","","",1,"2021-04-08_16h59.52.507","premceCat2_ses-02_part-02_label-phase2","2020.2.10","Win32",60,"",NA,"",NA,"",NA,NA,NA,0,124,124,102,1,"stimuli/objects/hockeygoalieglove.jpg","left","old",103,"",NA,NA,NA,NA,NA,NA,"",NA,NA,NA,NA,NA,NA,""
"198",198,198,198,198,198,198,198,198,198,198,198,198,198,198,198,198,198,198,198,198,198,198,198,198,198,198,198,198,198,198,198,198,198,198,198,198,198,198,198,198,198,198,198,198,198,198,198,198,198,198,198,198,198,198,198,198,198,NA,NA,NA,NA,NA,"","","",1,"2021-04-08_16h59.52.507","premceCat2_ses-02_part-02_label-phase2","2020.2.10","Win32",60,"",NA,"",NA,"left",1.467,2,0.307,NA,NA,NA,NA,NA,"","","",NA,"right",0.292,0,0,0,0,1,"",NA,NA,NA,NA,NA,NA,""
"199",199,199,199,199,199,199,199,199,199,199,199,199,199,199,199,199,199,199,199,199,199,199,199,199,199,199,199,199,199,199,199,199,199,199,199,199,199,199,199,199,199,199,199,199,199,199,199,199,199,199,199,199,199,199,199,199,199,NA,NA,NA,NA,NA,"","","",1,"2021-04-08_16h59.52.507","premceCat2_ses-02_part-02_label-phase2","2020.2.10","Win32",60,"",NA,"",NA,"",NA,NA,NA,0,125,125,134,1,"stimuli/objects/screwdriver04b.jpg","right","new",135,"",NA,NA,NA,NA,NA,NA,"",NA,NA,NA,NA,NA,NA,""
"200",200,200,200,200,200,200,200,200,200,200,200,200,200,200,200,200,200,200,200,200,200,200,200,200,200,200,200,200,200,200,200,200,200,200,200,200,200,200,200,200,200,200,200,200,200,200,200,200,200,200,200,200,200,200,200,200,200,NA,NA,NA,NA,NA,"","","",1,"2021-04-08_16h59.52.507","premceCat2_ses-02_part-02_label-phase2","2020.2.10","Win32",60,"",NA,"",NA,"left",2.263,3,2.174,NA,NA,NA,NA,NA,"","","",NA,"left",0.46,0,0,0,0,1,"",NA,NA,NA,NA,NA,NA,""
"201",201,201,201,201,201,201,201,201,201,201,201,201,201,201,201,201,201,201,201,201,201,201,201,201,201,201,201,201,201,201,201,201,201,201,201,201,201,201,201,201,201,201,201,201,201,201,201,201,201,201,201,201,201,201,201,201,201,NA,NA,NA,NA,NA,"","","",1,"2021-04-08_16h59.52.507","premceCat2_ses-02_part-02_label-phase2","2020.2.10","Win32",60,"",NA,"",NA,"",NA,NA,NA,0,126,126,101,1,"stimuli/objects/gps.jpg","left","old",102,"",NA,NA,NA,NA,NA,NA,"",NA,NA,NA,NA,NA,NA,""
"202",202,202,202,202,202,202,202,202,202,202,202,202,202,202,202,202,202,202,202,202,202,202,202,202,202,202,202,202,202,202,202,202,202,202,202,202,202,202,202,202,202,202,202,202,202,202,202,202,202,202,202,202,202,202,202,202,202,NA,NA,NA,NA,NA,"","","",1,"2021-04-08_16h59.52.507","premceCat2_ses-02_part-02_label-phase2","2020.2.10","Win32",60,"",NA,"",NA,"right",0.854,3,0.003,0,127,127,41,1,"stimuli/objects/pylon01.jpg","right","new",42,"",NA,NA,NA,NA,NA,NA,"",NA,NA,NA,NA,NA,NA,""
"203",203,203,203,203,203,203,203,203,203,203,203,203,203,203,203,203,203,203,203,203,203,203,203,203,203,203,203,203,203,203,203,203,203,203,203,203,203,203,203,203,203,203,203,203,203,203,203,203,203,203,203,203,203,203,203,203,203,NA,NA,NA,NA,NA,"","","",1,"2021-04-08_16h59.52.507","premceCat2_ses-02_part-02_label-phase2","2020.2.10","Win32",60,"",NA,"",NA,"left",1.104,4,1.568,NA,NA,NA,NA,NA,"","","",NA,"left",0.242,0,0,0,0,1,"",NA,NA,NA,NA,NA,NA,""
"204",204,204,204,204,204,204,204,204,204,204,204,204,204,204,204,204,204,204,204,204,204,204,204,204,204,204,204,204,204,204,204,204,204,204,204,204,204,204,204,204,204,204,204,204,204,204,204,204,204,204,204,204,204,204,204,204,204,NA,NA,NA,NA,NA,"","","",1,"2021-04-08_16h59.52.507","premceCat2_ses-02_part-02_label-phase2","2020.2.10","Win32",60,"",NA,"",NA,"",NA,NA,NA,0,128,128,1,1,"stimuli/objects/nintendods.jpg","left","old",2,"",NA,NA,NA,NA,NA,NA,"",NA,NA,NA,NA,NA,NA,""
"205",205,205,205,205,205,205,205,205,205,205,205,205,205,205,205,205,205,205,205,205,205,205,205,205,205,205,205,205,205,205,205,205,205,205,205,205,205,205,205,205,205,205,205,205,205,205,205,205,205,205,205,205,205,205,205,205,205,NA,NA,NA,NA,NA,"","","",1,"2021-04-08_16h59.52.507","premceCat2_ses-02_part-02_label-phase2","2020.2.10","Win32",60,"",NA,"",NA,"right",1.995,2,0.551,0,129,129,25,1,"stimuli/objects/bowlingball.jpg","right","new",26,"",NA,NA,NA,NA,NA,NA,"",NA,NA,NA,NA,NA,NA,""
"206",206,206,206,206,206,206,206,206,206,206,206,206,206,206,206,206,206,206,206,206,206,206,206,206,206,206,206,206,206,206,206,206,206,206,206,206,206,206,206,206,206,206,206,206,206,206,206,206,206,206,206,206,206,206,206,206,206,NA,NA,NA,NA,NA,"","","",1,"2021-04-08_16h59.52.507","premceCat2_ses-02_part-02_label-phase2","2020.2.10","Win32",60,"",NA,"",NA,"left",1.031,1,0.402,NA,NA,NA,NA,NA,"","","",NA,"left",1.129,0,0,0,0,1,"",NA,NA,NA,NA,NA,NA,""
"207",207,207,207,207,207,207,207,207,207,207,207,207,207,207,207,207,207,207,207,207,207,207,207,207,207,207,207,207,207,207,207,207,207,207,207,207,207,207,207,207,207,207,207,207,207,207,207,207,207,207,207,207,207,207,207,207,207,NA,NA,NA,NA,NA,"","","",1,"2021-04-08_16h59.52.507","premceCat2_ses-02_part-02_label-phase2","2020.2.10","Win32",60,"",NA,"",NA,"",NA,NA,NA,0,130,130,85,1,"stimuli/objects/golfball.jpg","right","new",86,"",NA,NA,NA,NA,NA,NA,"",NA,NA,NA,NA,NA,NA,""
"208",208,208,208,208,208,208,208,208,208,208,208,208,208,208,208,208,208,208,208,208,208,208,208,208,208,208,208,208,208,208,208,208,208,208,208,208,208,208,208,208,208,208,208,208,208,208,208,208,208,208,208,208,208,208,208,208,208,NA,NA,NA,NA,NA,"","","",1,"2021-04-08_16h59.52.507","premceCat2_ses-02_part-02_label-phase2","2020.2.10","Win32",60,"",NA,"",NA,"left",0.933,3,0.068,NA,NA,NA,NA,NA,"","","",NA,"left",0.152,0,0,0,0,1,"",NA,NA,NA,NA,NA,NA,""
"209",209,209,209,209,209,209,209,209,209,209,209,209,209,209,209,209,209,209,209,209,209,209,209,209,209,209,209,209,209,209,209,209,209,209,209,209,209,209,209,209,209,209,209,209,209,209,209,209,209,209,209,209,209,209,209,209,209,NA,NA,NA,NA,NA,"","","",1,"2021-04-08_16h59.52.507","premceCat2_ses-02_part-02_label-phase2","2020.2.10","Win32",60,"",NA,"",NA,"",NA,NA,NA,0,131,131,45,1,"stimuli/objects/measuringcup01.jpg","left","old",46,"",NA,NA,NA,NA,NA,NA,"",NA,NA,NA,NA,NA,NA,""
"210",210,210,210,210,210,210,210,210,210,210,210,210,210,210,210,210,210,210,210,210,210,210,210,210,210,210,210,210,210,210,210,210,210,210,210,210,210,210,210,210,210,210,210,210,210,210,210,210,210,210,210,210,210,210,210,210,210,NA,NA,NA,NA,NA,"","","",1,"2021-04-08_16h59.52.507","premceCat2_ses-02_part-02_label-phase2","2020.2.10","Win32",60,"",NA,"",NA,"left",1.073,3,0.34,NA,NA,NA,NA,NA,"","","",NA,"right",0.27,0,0,0,0,1,"",NA,NA,NA,NA,NA,NA,""
"211",211,211,211,211,211,211,211,211,211,211,211,211,211,211,211,211,211,211,211,211,211,211,211,211,211,211,211,211,211,211,211,211,211,211,211,211,211,211,211,211,211,211,211,211,211,211,211,211,211,211,211,211,211,211,211,211,211,NA,NA,NA,NA,NA,"","","",1,"2021-04-08_16h59.52.507","premceCat2_ses-02_part-02_label-phase2","2020.2.10","Win32",60,"",NA,"",NA,"",NA,NA,NA,0,132,132,99,1,"stimuli/objects/gardenshears01a.jpg","left","old",100,"",NA,NA,NA,NA,NA,NA,"",NA,NA,NA,NA,NA,NA,""
"212",212,212,212,212,212,212,212,212,212,212,212,212,212,212,212,212,212,212,212,212,212,212,212,212,212,212,212,212,212,212,212,212,212,212,212,212,212,212,212,212,212,212,212,212,212,212,212,212,212,212,212,212,212,212,212,212,212,NA,NA,NA,NA,NA,"","","",1,"2021-04-08_16h59.52.507","premceCat2_ses-02_part-02_label-phase2","2020.2.10","Win32",60,"",NA,"",NA,"left",1.249,1,0.294,NA,NA,NA,NA,NA,"","","",NA,"left",0.257,0,0,0,0,1,"",NA,NA,NA,NA,NA,NA,""
"213",213,213,213,213,213,213,213,213,213,213,213,213,213,213,213,213,213,213,213,213,213,213,213,213,213,213,213,213,213,213,213,213,213,213,213,213,213,213,213,213,213,213,213,213,213,213,213,213,213,213,213,213,213,213,213,213,213,NA,NA,NA,NA,NA,"","","",1,"2021-04-08_16h59.52.507","premceCat2_ses-02_part-02_label-phase2","2020.2.10","Win32",60,"",NA,"",NA,"",NA,NA,NA,0,133,133,119,1,"stimuli/objects/tongs01b.jpg","right","new",120,"",NA,NA,NA,NA,NA,NA,"",NA,NA,NA,NA,NA,NA,""
"214",214,214,214,214,214,214,214,214,214,214,214,214,214,214,214,214,214,214,214,214,214,214,214,214,214,214,214,214,214,214,214,214,214,214,214,214,214,214,214,214,214,214,214,214,214,214,214,214,214,214,214,214,214,214,214,214,214,NA,NA,NA,NA,NA,"","","",1,"2021-04-08_16h59.52.507","premceCat2_ses-02_part-02_label-phase2","2020.2.10","Win32",60,"",NA,"",NA,"left",1.086,3,0.321,NA,NA,NA,NA,NA,"","","",NA,"right",0.828,0,0,0,0,1,"",NA,NA,NA,NA,NA,NA,""
"215",215,215,215,215,215,215,215,215,215,215,215,215,215,215,215,215,215,215,215,215,215,215,215,215,215,215,215,215,215,215,215,215,215,215,215,215,215,215,215,215,215,215,215,215,215,215,215,215,215,215,215,215,215,215,215,215,215,NA,NA,NA,NA,NA,"","","",1,"2021-04-08_16h59.52.507","premceCat2_ses-02_part-02_label-phase2","2020.2.10","Win32",60,"",NA,"",NA,"",NA,NA,NA,0,134,134,3,1,"stimuli/objects/bowl02a.jpg","left","old",4,"",NA,NA,NA,NA,NA,NA,"",NA,NA,NA,NA,NA,NA,""
"216",216,216,216,216,216,216,216,216,216,216,216,216,216,216,216,216,216,216,216,216,216,216,216,216,216,216,216,216,216,216,216,216,216,216,216,216,216,216,216,216,216,216,216,216,216,216,216,216,216,216,216,216,216,216,216,216,216,NA,NA,NA,NA,NA,"","","",1,"2021-04-08_16h59.52.507","premceCat2_ses-02_part-02_label-phase2","2020.2.10","Win32",60,"",NA,"",NA,"left",0.828,3,0.235,NA,NA,NA,NA,NA,"","","",NA,"left",0.124,0,0,0,0,1,"",NA,NA,NA,NA,NA,NA,""
"217",217,217,217,217,217,217,217,217,217,217,217,217,217,217,217,217,217,217,217,217,217,217,217,217,217,217,217,217,217,217,217,217,217,217,217,217,217,217,217,217,217,217,217,217,217,217,217,217,217,217,217,217,217,217,217,217,217,NA,NA,NA,NA,NA,"","","",1,"2021-04-08_16h59.52.507","premceCat2_ses-02_part-02_label-phase2","2020.2.10","Win32",60,"",NA,"",NA,"",NA,NA,NA,0,135,135,74,1,"stimuli/objects/baseball01a.jpg","left","old",75,"",NA,NA,NA,NA,NA,NA,"",NA,NA,NA,NA,NA,NA,""
"218",218,218,218,218,218,218,218,218,218,218,218,218,218,218,218,218,218,218,218,218,218,218,218,218,218,218,218,218,218,218,218,218,218,218,218,218,218,218,218,218,218,218,218,218,218,218,218,218,218,218,218,218,218,218,218,218,218,NA,NA,NA,NA,NA,"","","",1,"2021-04-08_16h59.52.507","premceCat2_ses-02_part-02_label-phase2","2020.2.10","Win32",60,"",NA,"",NA,"right",1.054,3,0.061,0,136,136,23,1,"stimuli/objects/football.jpg","right","new",24,"",NA,NA,NA,NA,NA,NA,"",NA,NA,NA,NA,NA,NA,""
"219",219,219,219,219,219,219,219,219,219,219,219,219,219,219,219,219,219,219,219,219,219,219,219,219,219,219,219,219,219,219,219,219,219,219,219,219,219,219,219,219,219,219,219,219,219,219,219,219,219,219,219,219,219,219,219,219,219,NA,NA,NA,NA,NA,"","","",1,"2021-04-08_16h59.52.507","premceCat2_ses-02_part-02_label-phase2","2020.2.10","Win32",60,"",NA,"",NA,"left",0.808,4,0.553,NA,NA,NA,NA,NA,"","","",NA,"left",0.231,0,0,0,0,1,"",NA,NA,NA,NA,NA,NA,""
