instructions_loop.thisRepN,instructions_loop.thisTrialN,instructions_loop.thisN,instructions_loop.thisIndex,instructions_loop.ran,text1,text2,text3,participant,date,expName,psychopyVersion,OS,frameRate,key_resp_2.keys,key_resp_2.rt,key_resp_3.keys,key_resp_3.rt,recog_resp.keys,recog_resp.rt,conf_resp.keys,conf_resp.rt,recog_loop.thisRepN,recog_loop.thisTrialN,recog_loop.thisN,recog_loop.thisIndex,recog_loop.ran,images,corr_ans,type,order,resp_assoc.keys,resp_assoc.rt,assoc_loop.thisRepN,assoc_loop.thisTrialN,assoc_loop.thisN,assoc_loop.thisIndex,assoc_loop.ran,key_resp_break.keys,key_resp_break.rt,list_loop.thisRepN,list_loop.thisTrialN,list_loop.thisN,list_loop.thisIndex,list_loop.ran,recog_list
0,0,0,0,1,Welcome to the last phase of this experiment!,.,Please press the space bar to continue,2,2021-04-18_14h32.53.571,premceCat2_ses-02_part-02_label-phase2,2020.2.10,Win32,60,,,,,,,,,,,,,,,,,,,,,,,,,,,,,,,,
0,1,1,1,1,.,"In this phase, you will see some objects. 

For each object, you should indicate whether you have seen it before during the experiment.

Press LEFT ARROW for YES
Press RIGHT ARROW for NO

",Please press the space bar to continue ,2,2021-04-18_14h32.53.571,premceCat2_ses-02_part-02_label-phase2,2020.2.10,Win32,60,,,,,,,,,,,,,,,,,,,,,,,,,,,,,,,,
0,2,2,2,1,.,"After that, you will be asked how confident you are of your choice.

Please rate the confidence in your choice with the numbers from 1 to 4 of your keyboard. 

The numbers correspond to:

1 = Very unsure
2 = Unsure
3 = Sure
4 = Very Sure",Please press the space bar to continue,2,2021-04-18_14h32.53.571,premceCat2_ses-02_part-02_label-phase2,2020.2.10,Win32,60,,,,,,,,,,,,,,,,,,,,,,,,,,,,,,,,
,,,,,,,,2,2021-04-18_14h32.53.571,premceCat2_ses-02_part-02_label-phase2,2020.2.10,Win32,60,space,11.053,space,9.086,right,4.847,2,2.7,0,0,0,117,1,stimuli/objects/videotape01b.jpg,right,new,118,,,,,,,,,,,,,,,
,,,,,,,,2,2021-04-18_14h32.53.571,premceCat2_ses-02_part-02_label-phase2,2020.2.10,Win32,60,,,,,left,1.484,4,1.297,,,,,,,,,,left,6.028,0,0,0,0,1,,,,,,,,
,,,,,,,,2,2021-04-18_14h32.53.571,premceCat2_ses-02_part-02_label-phase2,2020.2.10,Win32,60,,,,,,,,,0,1,1,104,1,stimuli/objects/lightbulb01.jpg,left,old,105,,,,,,,,,,,,,,,
,,,,,,,,2,2021-04-18_14h32.53.571,premceCat2_ses-02_part-02_label-phase2,2020.2.10,Win32,60,,,,,left,2.661,3,0.889,,,,,,,,,,right,1.068,0,0,0,0,1,,,,,,,,
,,,,,,,,2,2021-04-18_14h32.53.571,premceCat2_ses-02_part-02_label-phase2,2020.2.10,Win32,60,,,,,,,,,0,2,2,93,1,stimuli/objects/icepack.jpg,right,new,94,,,,,,,,,,,,,,,
,,,,,,,,2,2021-04-18_14h32.53.571,premceCat2_ses-02_part-02_label-phase2,2020.2.10,Win32,60,,,,,left,1.265,4,1.672,,,,,,,,,,left,1.676,0,0,0,0,1,,,,,,,,
,,,,,,,,2,2021-04-18_14h32.53.571,premceCat2_ses-02_part-02_label-phase2,2020.2.10,Win32,60,,,,,,,,,0,3,3,56,1,stimuli/objects/cookingpot.jpg,left,old,57,,,,,,,,,,,,,,,
,,,,,,,,2,2021-04-18_14h32.53.571,premceCat2_ses-02_part-02_label-phase2,2020.2.10,Win32,60,,,,,left,2.714,3,1.607,,,,,,,,,,left,0.451,0,0,0,0,1,,,,,,,,
,,,,,,,,2,2021-04-18_14h32.53.571,premceCat2_ses-02_part-02_label-phase2,2020.2.10,Win32,60,,,,,,,,,0,4,4,130,1,stimuli/objects/bikewheel.jpg,left,old,131,,,,,,,,,,,,,,,
,,,,,,,,2,2021-04-18_14h32.53.571,premceCat2_ses-02_part-02_label-phase2,2020.2.10,Win32,60,,,,,left,1.657,3,1.703,,,,,,,,,,right,1.207,0,0,0,0,1,,,,,,,,
,,,,,,,,2,2021-04-18_14h32.53.571,premceCat2_ses-02_part-02_label-phase2,2020.2.10,Win32,60,,,,,,,,,0,5,5,10,1,stimuli/objects/desktopcomputer.jpg,left,old,11,,,,,,,,,,,,,,,
,,,,,,,,2,2021-04-18_14h32.53.571,premceCat2_ses-02_part-02_label-phase2,2020.2.10,Win32,60,,,,,right,5.79,1,1.223,0,6,6,94,1,stimuli/objects/electricmixer.jpg,right,new,95,,,,,,,,,,,,,,,
,,,,,,,,2,2021-04-18_14h32.53.571,premceCat2_ses-02_part-02_label-phase2,2020.2.10,Win32,60,,,,,left,1.611,4,1.013,,,,,,,,,,right,2.065,0,0,0,0,1,,,,,,,,
,,,,,,,,2,2021-04-18_14h32.53.571,premceCat2_ses-02_part-02_label-phase2,2020.2.10,Win32,60,,,,,,,,,0,7,7,11,1,stimuli/objects/usbkey.jpg,left,old,12,,,,,,,,,,,,,,,
,,,,,,,,2,2021-04-18_14h32.53.571,premceCat2_ses-02_part-02_label-phase2,2020.2.10,Win32,60,,,,,left,3.209,1,0.722,,,,,,,,,,right,1.026,0,0,0,0,1,,,,,,,,
,,,,,,,,2,2021-04-18_14h32.53.571,premceCat2_ses-02_part-02_label-phase2,2020.2.10,Win32,60,,,,,,,,,0,8,8,111,1,stimuli/objects/speaker04.jpg,right,new,112,,,,,,,,,,,,,,,
,,,,,,,,2,2021-04-18_14h32.53.571,premceCat2_ses-02_part-02_label-phase2,2020.2.10,Win32,60,,,,,left,1.878,3,1.203,,,,,,,,,,right,1.514,0,0,0,0,1,,,,,,,,
,,,,,,,,2,2021-04-18_14h32.53.571,premceCat2_ses-02_part-02_label-phase2,2020.2.10,Win32,60,,,,,,,,,0,9,9,72,1,stimuli/objects/cclamp.jpg,right,new,73,,,,,,,,,,,,,,,
,,,,,,,,2,2021-04-18_14h32.53.571,premceCat2_ses-02_part-02_label-phase2,2020.2.10,Win32,60,,,,,left,2.516,3,0.932,,,,,,,,,,right,1.686,0,0,0,0,1,,,,,,,,
,,,,,,,,2,2021-04-18_14h32.53.571,premceCat2_ses-02_part-02_label-phase2,2020.2.10,Win32,60,,,,,,,,,0,10,10,66,1,stimuli/objects/nailgun.jpg,right,new,67,,,,,,,,,,,,,,,
,,,,,,,,2,2021-04-18_14h32.53.571,premceCat2_ses-02_part-02_label-phase2,2020.2.10,Win32,60,,,,,left,0.903,4,1.158,,,,,,,,,,left,2.327,0,0,0,0,1,,,,,,,,
,,,,,,,,2,2021-04-18_14h32.53.571,premceCat2_ses-02_part-02_label-phase2,2020.2.10,Win32,60,,,,,,,,,0,11,11,31,1,stimuli/objects/ladder.jpg,left,old,32,,,,,,,,,,,,,,,
,,,,,,,,2,2021-04-18_14h32.53.571,premceCat2_ses-02_part-02_label-phase2,2020.2.10,Win32,60,,,,,right,2.473,1,1.073,0,12,12,128,1,stimuli/objects/tripod01.jpg,right,new,129,,,,,,,,,,,,,,,
,,,,,,,,2,2021-04-18_14h32.53.571,premceCat2_ses-02_part-02_label-phase2,2020.2.10,Win32,60,,,,,left,1.746,3,0.555,,,,,,,,,,right,0.758,0,0,0,0,1,,,,,,,,
,,,,,,,,2,2021-04-18_14h32.53.571,premceCat2_ses-02_part-02_label-phase2,2020.2.10,Win32,60,,,,,,,,,0,13,13,7,1,stimuli/objects/jigsaw.jpg,left,old,8,,,,,,,,,,,,,,,
,,,,,,,,2,2021-04-18_14h32.53.571,premceCat2_ses-02_part-02_label-phase2,2020.2.10,Win32,60,,,,,right,1.701,2,1.188,0,14,14,59,1,stimuli/objects/studiolight.jpg,right,new,60,,,,,,,,,,,,,,,
,,,,,,,,2,2021-04-18_14h32.53.571,premceCat2_ses-02_part-02_label-phase2,2020.2.10,Win32,60,,,,,left,1.472,2,2.78,,,,,,,,,,left,1.191,0,0,0,0,1,,,,,,,,
,,,,,,,,2,2021-04-18_14h32.53.571,premceCat2_ses-02_part-02_label-phase2,2020.2.10,Win32,60,,,,,,,,,0,15,15,90,1,stimuli/objects/carlighter02.jpg,right,new,91,,,,,,,,,,,,,,,
,,,,,,,,2,2021-04-18_14h32.53.571,premceCat2_ses-02_part-02_label-phase2,2020.2.10,Win32,60,,,,,left,1.13,4,0.697,,,,,,,,,,right,1.465,0,0,0,0,1,,,,,,,,
,,,,,,,,2,2021-04-18_14h32.53.571,premceCat2_ses-02_part-02_label-phase2,2020.2.10,Win32,60,,,,,,,,,0,16,16,37,1,stimuli/objects/setsquare.jpg,left,old,38,,,,,,,,,,,,,,,
,,,,,,,,2,2021-04-18_14h32.53.571,premceCat2_ses-02_part-02_label-phase2,2020.2.10,Win32,60,,,,,left,3.605,2,0.988,,,,,,,,,,left,1.709,0,0,0,0,1,,,,,,,,
,,,,,,,,2,2021-04-18_14h32.53.571,premceCat2_ses-02_part-02_label-phase2,2020.2.10,Win32,60,,,,,,,,,0,17,17,18,1,stimuli/objects/cashregister01.jpg,right,new,19,,,,,,,,,,,,,,,
,,,,,,,,2,2021-04-18_14h32.53.571,premceCat2_ses-02_part-02_label-phase2,2020.2.10,Win32,60,,,,,left,1.389,2,1.481,,,,,,,,,,left,0.608,0,0,0,0,1,,,,,,,,
,,,,,,,,2,2021-04-18_14h32.53.571,premceCat2_ses-02_part-02_label-phase2,2020.2.10,Win32,60,,,,,,,,,0,18,18,13,1,stimuli/objects/bastingbrush.jpg,right,new,14,,,,,,,,,,,,,,,
,,,,,,,,2,2021-04-18_14h32.53.571,premceCat2_ses-02_part-02_label-phase2,2020.2.10,Win32,60,,,,,left,1.043,4,1.163,,,,,,,,,,left,1.646,0,0,0,0,1,,,,,,,,
,,,,,,,,2,2021-04-18_14h32.53.571,premceCat2_ses-02_part-02_label-phase2,2020.2.10,Win32,60,,,,,,,,,0,19,19,105,1,stimuli/objects/fanblades.jpg,left,old,106,,,,,,,,,,,,,,,
,,,,,,,,2,2021-04-18_14h32.53.571,premceCat2_ses-02_part-02_label-phase2,2020.2.10,Win32,60,,,,,left,1.245,4,0.904,,,,,,,,,,right,0.358,0,0,0,0,1,,,,,,,,
,,,,,,,,2,2021-04-18_14h32.53.571,premceCat2_ses-02_part-02_label-phase2,2020.2.10,Win32,60,,,,,,,,,0,20,20,87,1,stimuli/objects/dvdplayer.jpg,left,old,88,,,,,,,,,,,,,,,
,,,,,,,,2,2021-04-18_14h32.53.571,premceCat2_ses-02_part-02_label-phase2,2020.2.10,Win32,60,,,,,right,2.119,1,1.547,0,21,21,131,1,stimuli/objects/spotlight.jpg,right,new,132,,,,,,,,,,,,,,,
,,,,,,,,2,2021-04-18_14h32.53.571,premceCat2_ses-02_part-02_label-phase2,2020.2.10,Win32,60,,,,,right,2.964,2,0.636,0,22,22,106,1,stimuli/objects/minifridge.jpg,right,new,107,,,,,,,,,,,,,,,
,,,,,,,,2,2021-04-18_14h32.53.571,premceCat2_ses-02_part-02_label-phase2,2020.2.10,Win32,60,,,,,left,0.971,4,0.861,,,,,,,,,,right,0.445,0,0,0,0,1,,,,,,,,
,,,,,,,,2,2021-04-18_14h32.53.571,premceCat2_ses-02_part-02_label-phase2,2020.2.10,Win32,60,,,,,,,,,0,23,23,69,1,stimuli/objects/cellphone.jpg,left,old,70,,,,,,,,,,,,,,,
,,,,,,,,2,2021-04-18_14h32.53.571,premceCat2_ses-02_part-02_label-phase2,2020.2.10,Win32,60,,,,,left,1.416,3,0.393,,,,,,,,,,right,0.966,0,0,0,0,1,,,,,,,,
,,,,,,,,2,2021-04-18_14h32.53.571,premceCat2_ses-02_part-02_label-phase2,2020.2.10,Win32,60,,,,,,,,,0,24,24,61,1,stimuli/objects/weedwacker.jpg,left,old,62,,,,,,,,,,,,,,,
,,,,,,,,2,2021-04-18_14h32.53.571,premceCat2_ses-02_part-02_label-phase2,2020.2.10,Win32,60,,,,,left,1.005,4,0.526,,,,,,,,,,right,0.379,0,0,0,0,1,,,,,,,,
,,,,,,,,2,2021-04-18_14h32.53.571,premceCat2_ses-02_part-02_label-phase2,2020.2.10,Win32,60,,,,,,,,,0,25,25,29,1,stimuli/objects/djmixer02.jpg,left,old,30,,,,,,,,,,,,,,,
,,,,,,,,2,2021-04-18_14h32.53.571,premceCat2_ses-02_part-02_label-phase2,2020.2.10,Win32,60,,,,,left,2.252,3,1.058,,,,,,,,,,right,1.299,0,0,0,0,1,,,,,,,,
,,,,,,,,2,2021-04-18_14h32.53.571,premceCat2_ses-02_part-02_label-phase2,2020.2.10,Win32,60,,,,,,,,,0,26,26,76,1,stimuli/objects/megaphone.jpg,right,new,77,,,,,,,,,,,,,,,
,,,,,,,,2,2021-04-18_14h32.53.571,premceCat2_ses-02_part-02_label-phase2,2020.2.10,Win32,60,,,,,left,1.132,3,1.127,,,,,,,,,,left,0.938,0,0,0,0,1,,,,,,,,
,,,,,,,,2,2021-04-18_14h32.53.571,premceCat2_ses-02_part-02_label-phase2,2020.2.10,Win32,60,,,,,,,,,0,27,27,82,1,stimuli/objects/snowbrush.jpg,right,new,83,,,,,,,,,,,,,,,
,,,,,,,,2,2021-04-18_14h32.53.571,premceCat2_ses-02_part-02_label-phase2,2020.2.10,Win32,60,,,,,right,1.328,4,1.565,0,28,28,80,1,stimuli/objects/snowman.jpg,right,new,81,,,,,,,,,,,,,,,
,,,,,,,,2,2021-04-18_14h32.53.571,premceCat2_ses-02_part-02_label-phase2,2020.2.10,Win32,60,,,,,left,2.214,4,0.986,,,,,,,,,,right,1.49,0,0,0,0,1,,,,,,,,
,,,,,,,,2,2021-04-18_14h32.53.571,premceCat2_ses-02_part-02_label-phase2,2020.2.10,Win32,60,,,,,,,,,0,29,29,44,1,stimuli/objects/level03a.jpg,left,old,45,,,,,,,,,,,,,,,
,,,,,,,,2,2021-04-18_14h32.53.571,premceCat2_ses-02_part-02_label-phase2,2020.2.10,Win32,60,,,,,left,1.13,4,0.965,,,,,,,,,,left,0.39,0,0,0,0,1,,,,,,,,
,,,,,,,,2,2021-04-18_14h32.53.571,premceCat2_ses-02_part-02_label-phase2,2020.2.10,Win32,60,,,,,,,,,0,30,30,28,1,stimuli/objects/baseballbat.jpg,left,old,29,,,,,,,,,,,,,,,
,,,,,,,,2,2021-04-18_14h32.53.571,premceCat2_ses-02_part-02_label-phase2,2020.2.10,Win32,60,,,,,left,0.953,4,0.83,,,,,,,,,,right,0.451,0,0,0,0,1,,,,,,,,
,,,,,,,,2,2021-04-18_14h32.53.571,premceCat2_ses-02_part-02_label-phase2,2020.2.10,Win32,60,,,,,,,,,0,31,31,79,1,stimuli/objects/wire.jpg,left,old,80,,,,,,,,,,,,,,,
,,,,,,,,2,2021-04-18_14h32.53.571,premceCat2_ses-02_part-02_label-phase2,2020.2.10,Win32,60,,,,,left,0.868,4,0.433,,,,,,,,,,right,1.861,0,0,0,0,1,,,,,,,,
,,,,,,,,2,2021-04-18_14h32.53.571,premceCat2_ses-02_part-02_label-phase2,2020.2.10,Win32,60,,,,,,,,,0,32,32,64,1,stimuli/objects/axe01.jpg,left,old,65,,,,,,,,,,,,,,,
,,,,,,,,2,2021-04-18_14h32.53.571,premceCat2_ses-02_part-02_label-phase2,2020.2.10,Win32,60,,,,,left,1.08,4,1.089,,,,,,,,,,left,2.083,0,0,0,0,1,,,,,,,,
,,,,,,,,2,2021-04-18_14h32.53.571,premceCat2_ses-02_part-02_label-phase2,2020.2.10,Win32,60,,,,,,,,,0,33,33,15,1,stimuli/objects/spicerack.jpg,left,old,16,,,,,,,,,,,,,,,
,,,,,,,,2,2021-04-18_14h32.53.571,premceCat2_ses-02_part-02_label-phase2,2020.2.10,Win32,60,,,,,left,1.245,3,1.308,,,,,,,,,,right,0.72,0,0,0,0,1,,,,,,,,
,,,,,,,,2,2021-04-18_14h32.53.571,premceCat2_ses-02_part-02_label-phase2,2020.2.10,Win32,60,,,,,,,,,0,34,34,51,1,stimuli/objects/webcam.jpg,right,new,52,,,,,,,,,,,,,,,
,,,,,,,,2,2021-04-18_14h32.53.571,premceCat2_ses-02_part-02_label-phase2,2020.2.10,Win32,60,,,,,left,2.682,2,2.396,,,,,,,,,,right,0.976,0,0,0,0,1,,,,,,,,
,,,,,,,,2,2021-04-18_14h32.53.571,premceCat2_ses-02_part-02_label-phase2,2020.2.10,Win32,60,,,,,,,,,0,35,35,141,1,stimuli/objects/generator.jpg,right,new,142,,,,,,,,,,,,,,,
,,,,,,,,2,2021-04-18_14h32.53.571,premceCat2_ses-02_part-02_label-phase2,2020.2.10,Win32,60,,,,,left,1.389,4,0.439,,,,,,,,,,left,1.982,0,0,0,0,1,,,,,,,,
,,,,,,,,2,2021-04-18_14h32.53.571,premceCat2_ses-02_part-02_label-phase2,2020.2.10,Win32,60,,,,,,,,,0,36,36,99,1,stimuli/objects/gardenshears01a.jpg,left,old,100,,,,,,,,,,,,,,,
,,,,,,,,2,2021-04-18_14h32.53.571,premceCat2_ses-02_part-02_label-phase2,2020.2.10,Win32,60,,,,,left,0.942,4,0.562,,,,,,,,,,left,0.481,0,0,0,0,1,,,,,,,,
,,,,,,,,2,2021-04-18_14h32.53.571,premceCat2_ses-02_part-02_label-phase2,2020.2.10,Win32,60,,,,,,,,,0,37,37,142,1,stimuli/objects/funnel.jpg,left,old,143,,,,,,,,,,,,,,,
,,,,,,,,2,2021-04-18_14h32.53.571,premceCat2_ses-02_part-02_label-phase2,2020.2.10,Win32,60,,,,,right,2.343,1,1.185,0,38,38,75,1,stimuli/objects/stepladder.jpg,right,new,76,,,,,,,,,,,,,,,
,,,,,,,,2,2021-04-18_14h32.53.571,premceCat2_ses-02_part-02_label-phase2,2020.2.10,Win32,60,,,,,left,0.93,4,1.349,,,,,,,,,,left,0.328,0,0,0,0,1,,,,,,,,
,,,,,,,,2,2021-04-18_14h32.53.571,premceCat2_ses-02_part-02_label-phase2,2020.2.10,Win32,60,,,,,,,,,0,39,39,1,1,stimuli/objects/nintendods.jpg,left,old,2,,,,,,,,,,,,,,,
,,,,,,,,2,2021-04-18_14h32.53.571,premceCat2_ses-02_part-02_label-phase2,2020.2.10,Win32,60,,,,,right,3.431,2,1.052,0,40,40,100,1,stimuli/objects/remotecontrol04.jpg,right,new,101,,,,,,,,,,,,,,,
,,,,,,,,2,2021-04-18_14h32.53.571,premceCat2_ses-02_part-02_label-phase2,2020.2.10,Win32,60,,,,,left,0.895,4,0.552,,,,,,,,,,right,0.321,0,0,0,0,1,,,,,,,,
,,,,,,,,2,2021-04-18_14h32.53.571,premceCat2_ses-02_part-02_label-phase2,2020.2.10,Win32,60,,,,,,,,,0,41,41,5,1,stimuli/objects/lamp04a.jpg,left,old,6,,,,,,,,,,,,,,,
,,,,,,,,2,2021-04-18_14h32.53.571,premceCat2_ses-02_part-02_label-phase2,2020.2.10,Win32,60,,,,,left,1.388,3,0.884,,,,,,,,,,left,0.317,0,0,0,0,1,,,,,,,,
,,,,,,,,2,2021-04-18_14h32.53.571,premceCat2_ses-02_part-02_label-phase2,2020.2.10,Win32,60,,,,,,,,,0,42,42,45,1,stimuli/objects/measuringcup01.jpg,left,old,46,,,,,,,,,,,,,,,
,,,,,,,,2,2021-04-18_14h32.53.571,premceCat2_ses-02_part-02_label-phase2,2020.2.10,Win32,60,,,,,left,0.966,4,0.9,,,,,,,,,,left,0.988,0,0,0,0,1,,,,,,,,
,,,,,,,,2,2021-04-18_14h32.53.571,premceCat2_ses-02_part-02_label-phase2,2020.2.10,Win32,60,,,,,,,,,0,43,43,48,1,stimuli/objects/woodenspoon.jpg,left,old,49,,,,,,,,,,,,,,,
,,,,,,,,2,2021-04-18_14h32.53.571,premceCat2_ses-02_part-02_label-phase2,2020.2.10,Win32,60,,,,,left,1.627,1,0.985,,,,,,,,,,right,1.353,0,0,0,0,1,,,,,,,,
,,,,,,,,2,2021-04-18_14h32.53.571,premceCat2_ses-02_part-02_label-phase2,2020.2.10,Win32,60,,,,,,,,,0,44,44,20,1,stimuli/objects/laptop01a.jpg,right,new,21,,,,,,,,,,,,,,,
,,,,,,,,2,2021-04-18_14h32.53.571,premceCat2_ses-02_part-02_label-phase2,2020.2.10,Win32,60,,,,,left,1.188,3,0.875,,,,,,,,,,right,0.412,0,0,0,0,1,,,,,,,,
,,,,,,,,2,2021-04-18_14h32.53.571,premceCat2_ses-02_part-02_label-phase2,2020.2.10,Win32,60,,,,,,,,,0,45,45,21,1,stimuli/objects/paintbrush01.jpg,right,new,22,,,,,,,,,,,,,,,
,,,,,,,,2,2021-04-18_14h32.53.571,premceCat2_ses-02_part-02_label-phase2,2020.2.10,Win32,60,,,,,right,1.736,3,1.758,0,46,46,139,1,stimuli/objects/frisbee.jpg,right,new,140,,,,,,,,,,,,,,,
,,,,,,,,2,2021-04-18_14h32.53.571,premceCat2_ses-02_part-02_label-phase2,2020.2.10,Win32,60,,,,,left,1.032,4,0.535,,,,,,,,,,right,1.166,0,0,0,0,1,,,,,,,,
,,,,,,,,2,2021-04-18_14h32.53.571,premceCat2_ses-02_part-02_label-phase2,2020.2.10,Win32,60,,,,,,,,,0,47,47,101,1,stimuli/objects/gps.jpg,left,old,102,,,,,,,,,,,,,,,
,,,,,,,,2,2021-04-18_14h32.53.571,premceCat2_ses-02_part-02_label-phase2,2020.2.10,Win32,60,,,,,left,1.849,2,1.918,,,,,,,,,,right,1.111,0,0,0,0,1,,,,,,,,
,,,,,,,,2,2021-04-18_14h32.53.571,premceCat2_ses-02_part-02_label-phase2,2020.2.10,Win32,60,,,,,,,,,0,48,48,32,1,stimuli/objects/mitresaw.jpg,right,new,33,,,,,,,,,,,,,,,
,,,,,,,,2,2021-04-18_14h32.53.571,premceCat2_ses-02_part-02_label-phase2,2020.2.10,Win32,60,,,,,left,1.159,4,1.71,,,,,,,,,,left,0.608,0,0,0,0,1,,,,,,,,
,,,,,,,,2,2021-04-18_14h32.53.571,premceCat2_ses-02_part-02_label-phase2,2020.2.10,Win32,60,,,,,,,,,0,49,49,103,1,stimuli/objects/oven.jpg,left,old,104,,,,,,,,,,,,,,,
,,,,,,,,2,2021-04-18_14h32.53.571,premceCat2_ses-02_part-02_label-phase2,2020.2.10,Win32,60,,,,,left,1.359,2,0.937,,,,,,,,,,right,1.044,0,0,0,0,1,,,,,,,,
,,,,,,,,2,2021-04-18_14h32.53.571,premceCat2_ses-02_part-02_label-phase2,2020.2.10,Win32,60,,,,,,,,,0,50,50,50,1,stimuli/objects/chisel02b.jpg,right,new,51,,,,,,,,,,,,,,,
,,,,,,,,2,2021-04-18_14h32.53.571,premceCat2_ses-02_part-02_label-phase2,2020.2.10,Win32,60,,,,,left,0.825,4,0.468,,,,,,,,,,left,1.599,0,0,0,0,1,,,,,,,,
,,,,,,,,2,2021-04-18_14h32.53.571,premceCat2_ses-02_part-02_label-phase2,2020.2.10,Win32,60,,,,,,,,,0,51,51,58,1,stimuli/objects/rope03.jpg,left,old,59,,,,,,,,,,,,,,,
,,,,,,,,2,2021-04-18_14h32.53.571,premceCat2_ses-02_part-02_label-phase2,2020.2.10,Win32,60,,,,,right,3.273,2,1.228,0,52,52,22,1,stimuli/objects/umbrella04.jpg,right,new,23,,,,,,,,,,,,,,,
,,,,,,,,2,2021-04-18_14h32.53.571,premceCat2_ses-02_part-02_label-phase2,2020.2.10,Win32,60,,,,,left,1.223,4,1.093,,,,,,,,,,right,0.692,0,0,0,0,1,,,,,,,,
,,,,,,,,2,2021-04-18_14h32.53.571,premceCat2_ses-02_part-02_label-phase2,2020.2.10,Win32,60,,,,,,,,,0,53,53,35,1,stimuli/objects/phonejack.jpg,left,old,36,,,,,,,,,,,,,,,
,,,,,,,,2,2021-04-18_14h32.53.571,premceCat2_ses-02_part-02_label-phase2,2020.2.10,Win32,60,,,,,right,2.218,3,1.017,0,54,54,26,1,stimuli/objects/boogieboard.jpg,right,new,27,,,,,,,,,,,,,,,
,,,,,,,,2,2021-04-18_14h32.53.571,premceCat2_ses-02_part-02_label-phase2,2020.2.10,Win32,60,,,,,left,1.604,3,1.204,,,,,,,,,,right,1.445,0,0,0,0,1,,,,,,,,
,,,,,,,,2,2021-04-18_14h32.53.571,premceCat2_ses-02_part-02_label-phase2,2020.2.10,Win32,60,,,,,,,,,0,55,55,91,1,stimuli/objects/snowblower.jpg,left,old,92,,,,,,,,,,,,,,,
,,,,,,,,2,2021-04-18_14h32.53.571,premceCat2_ses-02_part-02_label-phase2,2020.2.10,Win32,60,,,,,left,0.987,4,0.309,,,,,,,,,,right,1.107,0,0,0,0,1,,,,,,,,
,,,,,,,,2,2021-04-18_14h32.53.571,premceCat2_ses-02_part-02_label-phase2,2020.2.10,Win32,60,,,,,,,,,0,56,56,77,1,stimuli/objects/photocopier.jpg,left,old,78,,,,,,,,,,,,,,,
,,,,,,,,2,2021-04-18_14h32.53.571,premceCat2_ses-02_part-02_label-phase2,2020.2.10,Win32,60,,,,,left,2.302,2,1.611,,,,,,,,,,right,0.917,0,0,0,0,1,,,,,,,,
,,,,,,,,2,2021-04-18_14h32.53.571,premceCat2_ses-02_part-02_label-phase2,2020.2.10,Win32,60,,,,,,,,,0,57,57,110,1,stimuli/objects/lock03a.jpg,right,new,111,,,,,,,,,,,,,,,
,,,,,,,,2,2021-04-18_14h32.53.571,premceCat2_ses-02_part-02_label-phase2,2020.2.10,Win32,60,,,,,left,0.828,4,0.492,,,,,,,,,,left,0.393,0,0,0,0,1,,,,,,,,
,,,,,,,,2,2021-04-18_14h32.53.571,premceCat2_ses-02_part-02_label-phase2,2020.2.10,Win32,60,,,,,,,,,0,58,58,52,1,stimuli/objects/cookiecutter.jpg,left,old,53,,,,,,,,,,,,,,,
,,,,,,,,2,2021-04-18_14h32.53.571,premceCat2_ses-02_part-02_label-phase2,2020.2.10,Win32,60,,,,,right,2.097,2,1.061,0,59,59,12,1,stimuli/objects/garlicpress02a.jpg,right,new,13,,,,,,,,,,,,,,,
,,,,,,,,2,2021-04-18_14h32.53.571,premceCat2_ses-02_part-02_label-phase2,2020.2.10,Win32,60,,,,,right,1.408,3,1.287,0,60,60,81,1,stimuli/objects/avcable.jpg,right,new,82,,,,,,,,,,,,,,,
,,,,,,,,2,2021-04-18_14h32.53.571,premceCat2_ses-02_part-02_label-phase2,2020.2.10,Win32,60,,,,,left,1.081,4,0.388,,,,,,,,,,right,0.458,0,0,0,0,1,,,,,,,,
,,,,,,,,2,2021-04-18_14h32.53.571,premceCat2_ses-02_part-02_label-phase2,2020.2.10,Win32,60,,,,,,,,,0,61,61,2,1,stimuli/objects/dvdcase01.jpg,left,old,3,,,,,,,,,,,,,,,
,,,,,,,,2,2021-04-18_14h32.53.571,premceCat2_ses-02_part-02_label-phase2,2020.2.10,Win32,60,,,,,left,3.638,1,0.841,,,,,,,,,,right,1.086,0,0,0,0,1,,,,,,,,
,,,,,,,,2,2021-04-18_14h32.53.571,premceCat2_ses-02_part-02_label-phase2,2020.2.10,Win32,60,,,,,,,,,0,62,62,68,1,stimuli/objects/leafblower01.jpg,right,new,69,,,,,,,,,,,,,,,
,,,,,,,,2,2021-04-18_14h32.53.571,premceCat2_ses-02_part-02_label-phase2,2020.2.10,Win32,60,,,,,right,1.107,3,2.317,0,63,63,4,1,stimuli/objects/microphone01.jpg,right,new,5,,,,,,,,,,,,,,,
,,,,,,,,2,2021-04-18_14h32.53.571,premceCat2_ses-02_part-02_label-phase2,2020.2.10,Win32,60,,,,,left,0.945,4,0.461,,,,,,,,,,left,0.381,0,0,0,0,1,,,,,,,,
,,,,,,,,2,2021-04-18_14h32.53.571,premceCat2_ses-02_part-02_label-phase2,2020.2.10,Win32,60,,,,,,,,,0,64,64,137,1,stimuli/objects/iceskate.jpg,left,old,138,,,,,,,,,,,,,,,
,,,,,,,,2,2021-04-18_14h32.53.571,premceCat2_ses-02_part-02_label-phase2,2020.2.10,Win32,60,,,,,left,1.263,4,0.306,,,,,,,,,,left,1.074,0,0,0,0,1,,,,,,,,
,,,,,,,,2,2021-04-18_14h32.53.571,premceCat2_ses-02_part-02_label-phase2,2020.2.10,Win32,60,,,,,,,,,0,65,65,65,1,stimuli/objects/pipewrench.jpg,left,old,66,,,,,,,,,,,,,,,
,,,,,,,,2,2021-04-18_14h32.53.571,premceCat2_ses-02_part-02_label-phase2,2020.2.10,Win32,60,,,,,right,2.331,1,0.978,0,66,66,41,1,stimuli/objects/pylon01.jpg,right,new,42,,,,,,,,,,,,,,,
,,,,,,,,2,2021-04-18_14h32.53.571,premceCat2_ses-02_part-02_label-phase2,2020.2.10,Win32,60,,,,,left,2.344,1,0.378,,,,,,,,,,left,0.781,0,0,0,0,1,,,,,,,,
,,,,,,,,2,2021-04-18_14h32.53.571,premceCat2_ses-02_part-02_label-phase2,2020.2.10,Win32,60,,,,,,,,,0,67,67,25,1,stimuli/objects/bowlingball.jpg,right,new,26,,,,,,,,,,,,,,,
,,,,,,,,2,2021-04-18_14h32.53.571,premceCat2_ses-02_part-02_label-phase2,2020.2.10,Win32,60,,,,,right,2.127,3,1.263,0,68,68,43,1,stimuli/objects/punchingball.jpg,right,new,44,,,,,,,,,,,,,,,
,,,,,,,,2,2021-04-18_14h32.53.571,premceCat2_ses-02_part-02_label-phase2,2020.2.10,Win32,60,,,,,left,1.882,3,0.846,,,,,,,,,,right,0.269,0,0,0,0,1,,,,,,,,
,,,,,,,,2,2021-04-18_14h32.53.571,premceCat2_ses-02_part-02_label-phase2,2020.2.10,Win32,60,,,,,,,,,0,69,69,136,1,stimuli/objects/battery02b.jpg,right,new,137,,,,,,,,,,,,,,,
,,,,,,,,2,2021-04-18_14h32.53.571,premceCat2_ses-02_part-02_label-phase2,2020.2.10,Win32,60,,,,,right,2.848,2,0.797,0,70,70,19,1,stimuli/objects/peppermill02b.jpg,right,new,20,,,,,,,,,,,,,,,
,,,,,,,,2,2021-04-18_14h32.53.571,premceCat2_ses-02_part-02_label-phase2,2020.2.10,Win32,60,,,,,left,1.148,4,0.338,,,,,,,,,,left,0.512,0,0,0,0,1,,,,,,,,
,,,,,,,,2,2021-04-18_14h32.53.571,premceCat2_ses-02_part-02_label-phase2,2020.2.10,Win32,60,,,,,,,,,0,71,71,107,1,stimuli/objects/waterbottle03.jpg,left,old,108,,,,,,,,,,,,,,,
,,,,,,,,2,2021-04-18_14h32.53.571,premceCat2_ses-02_part-02_label-phase2,2020.2.10,Win32,60,,,,,left,1.132,4,0.437,,,,,,,,,,right,1.696,0,0,0,0,1,,,,,,,,
,,,,,,,,2,2021-04-18_14h32.53.571,premceCat2_ses-02_part-02_label-phase2,2020.2.10,Win32,60,,,,,,,,,0,72,72,122,1,stimuli/objects/atm.jpg,left,old,123,,,,,,,,,,,,,,,
,,,,,,,,2,2021-04-18_14h32.53.571,premceCat2_ses-02_part-02_label-phase2,2020.2.10,Win32,60,,,,,left,1.441,4,0.337,,,,,,,,,,left,1.935,0,0,0,0,1,,,,,,,,
,,,,,,,,2,2021-04-18_14h32.53.571,premceCat2_ses-02_part-02_label-phase2,2020.2.10,Win32,60,,,,,,,,,0,73,73,88,1,stimuli/objects/cork02.jpg,left,old,89,,,,,,,,,,,,,,,
,,,,,,,,2,2021-04-18_14h32.53.571,premceCat2_ses-02_part-02_label-phase2,2020.2.10,Win32,60,,,,,left,1.839,4,1.623,,,,,,,,,,left,1.26,0,0,0,0,1,,,,,,,,
,,,,,,,,2,2021-04-18_14h32.53.571,premceCat2_ses-02_part-02_label-phase2,2020.2.10,Win32,60,,,,,,,,,0,74,74,70,1,stimuli/objects/hourglass.jpg,left,old,71,,,,,,,,,,,,,,,
,,,,,,,,2,2021-04-18_14h32.53.571,premceCat2_ses-02_part-02_label-phase2,2020.2.10,Win32,60,,,,,left,0.865,4,0.501,,,,,,,,,,right,1.43,0,0,0,0,1,,,,,,,,
,,,,,,,,2,2021-04-18_14h32.53.571,premceCat2_ses-02_part-02_label-phase2,2020.2.10,Win32,60,,,,,,,,,0,75,75,115,1,stimuli/objects/boltcutter.jpg,left,old,116,,,,,,,,,,,,,,,
,,,,,,,,2,2021-04-18_14h32.53.571,premceCat2_ses-02_part-02_label-phase2,2020.2.10,Win32,60,,,,,left,1.453,2,0.893,,,,,,,,,,right,0.5,0,0,0,0,1,,,,,,,,
,,,,,,,,2,2021-04-18_14h32.53.571,premceCat2_ses-02_part-02_label-phase2,2020.2.10,Win32,60,,,,,,,,,0,76,76,33,1,stimuli/objects/microwave.jpg,right,new,34,,,,,,,,,,,,,,,
,,,,,,,,2,2021-04-18_14h32.53.571,premceCat2_ses-02_part-02_label-phase2,2020.2.10,Win32,60,,,,,left,1.008,4,0.328,,,,,,,,,,right,1.213,0,0,0,0,1,,,,,,,,
,,,,,,,,2,2021-04-18_14h32.53.571,premceCat2_ses-02_part-02_label-phase2,2020.2.10,Win32,60,,,,,,,,,0,77,77,14,1,stimuli/objects/aircompressor.jpg,left,old,15,,,,,,,,,,,,,,,
,,,,,,,,2,2021-04-18_14h32.53.571,premceCat2_ses-02_part-02_label-phase2,2020.2.10,Win32,60,,,,,left,0.824,4,0.32,,,,,,,,,,left,0.304,0,0,0,0,1,,,,,,,,
,,,,,,,,2,2021-04-18_14h32.53.571,premceCat2_ses-02_part-02_label-phase2,2020.2.10,Win32,60,,,,,,,,,0,78,78,120,1,stimuli/objects/martiniglass01b.jpg,left,old,121,,,,,,,,,,,,,,,
,,,,,,,,2,2021-04-18_14h32.53.571,premceCat2_ses-02_part-02_label-phase2,2020.2.10,Win32,60,,,,,left,2.226,4,1.041,,,,,,,,,,left,1.531,0,0,0,0,1,,,,,,,,
,,,,,,,,2,2021-04-18_14h32.53.571,premceCat2_ses-02_part-02_label-phase2,2020.2.10,Win32,60,,,,,,,,,0,79,79,123,1,stimuli/objects/cowbell.jpg,left,old,124,,,,,,,,,,,,,,,
,,,,,,,,2,2021-04-18_14h32.53.571,premceCat2_ses-02_part-02_label-phase2,2020.2.10,Win32,60,,,,,left,0.823,4,0.414,,,,,,,,,,right,0.922,0,0,0,0,1,,,,,,,,
,,,,,,,,2,2021-04-18_14h32.53.571,premceCat2_ses-02_part-02_label-phase2,2020.2.10,Win32,60,,,,,,,,,0,80,80,132,1,stimuli/objects/expansioncard.jpg,left,old,133,,,,,,,,,,,,,,,
,,,,,,,,2,2021-04-18_14h32.53.571,premceCat2_ses-02_part-02_label-phase2,2020.2.10,Win32,60,,,,,left,0.823,4,0.404,,,,,,,,,,left,0.615,0,0,0,0,1,,,,,,,,
,,,,,,,,2,2021-04-18_14h32.53.571,premceCat2_ses-02_part-02_label-phase2,2020.2.10,Win32,60,,,,,,,,,0,81,81,27,1,stimuli/objects/downhillski.jpg,left,old,28,,,,,,,,,,,,,,,
,,,,,,,,2,2021-04-18_14h32.53.571,premceCat2_ses-02_part-02_label-phase2,2020.2.10,Win32,60,,,,,right,1.081,3,2.303,0,82,82,8,1,stimuli/objects/basketballhoop01.jpg,right,new,9,,,,,,,,,,,,,,,
,,,,,,,,2,2021-04-18_14h32.53.571,premceCat2_ses-02_part-02_label-phase2,2020.2.10,Win32,60,,,,,right,1.716,3,0.51,0,83,83,138,1,stimuli/objects/taperecorder.jpg,right,new,139,,,,,,,,,,,,,,,
,,,,,,,,2,2021-04-18_14h32.53.571,premceCat2_ses-02_part-02_label-phase2,2020.2.10,Win32,60,,,,,right,3.809,1,0.854,0,84,84,46,1,stimuli/objects/walkman.jpg,right,new,47,,,,,,,,,,,,,,,
,,,,,,,,2,2021-04-18_14h32.53.571,premceCat2_ses-02_part-02_label-phase2,2020.2.10,Win32,60,,,,,left,0.831,4,1.263,,,,,,,,,,left,0.286,0,0,0,0,1,,,,,,,,
,,,,,,,,2,2021-04-18_14h32.53.571,premceCat2_ses-02_part-02_label-phase2,2020.2.10,Win32,60,,,,,,,,,0,85,85,3,1,stimuli/objects/bowl02a.jpg,left,old,4,,,,,,,,,,,,,,,
,,,,,,,,2,2021-04-18_14h32.53.571,premceCat2_ses-02_part-02_label-phase2,2020.2.10,Win32,60,,,,,left,3.077,1,0.6,,,,,,,,,,right,1.137,0,0,0,0,1,,,,,,,,
,,,,,,,,2,2021-04-18_14h32.53.571,premceCat2_ses-02_part-02_label-phase2,2020.2.10,Win32,60,,,,,,,,,0,86,86,133,1,stimuli/objects/icebucket.jpg,right,new,134,,,,,,,,,,,,,,,
,,,,,,,,2,2021-04-18_14h32.53.571,premceCat2_ses-02_part-02_label-phase2,2020.2.10,Win32,60,,,,,left,0.792,3,1.314,,,,,,,,,,right,0.484,0,0,0,0,1,,,,,,,,
,,,,,,,,2,2021-04-18_14h32.53.571,premceCat2_ses-02_part-02_label-phase2,2020.2.10,Win32,60,,,,,,,,,0,87,87,89,1,stimuli/objects/ducttape.jpg,right,new,90,,,,,,,,,,,,,,,
,,,,,,,,2,2021-04-18_14h32.53.571,premceCat2_ses-02_part-02_label-phase2,2020.2.10,Win32,60,,,,,left,0.775,4,0.315,,,,,,,,,,left,0.295,0,0,0,0,1,,,,,,,,
,,,,,,,,2,2021-04-18_14h32.53.571,premceCat2_ses-02_part-02_label-phase2,2020.2.10,Win32,60,,,,,,,,,0,88,88,118,1,stimuli/objects/toyhardhat.jpg,left,old,119,,,,,,,,,,,,,,,
,,,,,,,,2,2021-04-18_14h32.53.571,premceCat2_ses-02_part-02_label-phase2,2020.2.10,Win32,60,,,,,left,1.916,1,1.256,,,,,,,,,,right,1.998,0,0,0,0,1,,,,,,,,
,,,,,,,,2,2021-04-18_14h32.53.571,premceCat2_ses-02_part-02_label-phase2,2020.2.10,Win32,60,,,,,,,,,0,89,89,54,1,stimuli/objects/pda.jpg,right,new,55,,,,,,,,,,,,,,,
,,,,,,,,2,2021-04-18_14h32.53.571,premceCat2_ses-02_part-02_label-phase2,2020.2.10,Win32,60,,,,,right,1.646,3,2.06,0,90,90,121,1,stimuli/objects/ceilingspeaker.jpg,right,new,122,,,,,,,,,,,,,,,
,,,,,,,,2,2021-04-18_14h32.53.571,premceCat2_ses-02_part-02_label-phase2,2020.2.10,Win32,60,,,,,left,1.475,2,0.751,,,,,,,,,,right,1.09,0,0,0,0,1,,,,,,,,
,,,,,,,,2,2021-04-18_14h32.53.571,premceCat2_ses-02_part-02_label-phase2,2020.2.10,Win32,60,,,,,,,,,0,91,91,71,1,stimuli/objects/faxmachine.jpg,right,new,72,,,,,,,,,,,,,,,
,,,,,,,,2,2021-04-18_14h32.53.571,premceCat2_ses-02_part-02_label-phase2,2020.2.10,Win32,60,,,,,left,0.928,4,0.318,,,,,,,,,,left,0.475,0,0,0,0,1,,,,,,,,
,,,,,,,,2,2021-04-18_14h32.53.571,premceCat2_ses-02_part-02_label-phase2,2020.2.10,Win32,60,,,,,,,,,0,92,92,135,1,stimuli/objects/wheelbarrow01.jpg,left,old,136,,,,,,,,,,,,,,,
,,,,,,,,2,2021-04-18_14h32.53.571,premceCat2_ses-02_part-02_label-phase2,2020.2.10,Win32,60,,,,,left,1.347,2,0.598,,,,,,,,,,right,1.551,0,0,0,0,1,,,,,,,,
,,,,,,,,2,2021-04-18_14h32.53.571,premceCat2_ses-02_part-02_label-phase2,2020.2.10,Win32,60,,,,,,,,,0,93,93,60,1,stimuli/objects/glass02a.jpg,right,new,61,,,,,,,,,,,,,,,
,,,,,,,,2,2021-04-18_14h32.53.571,premceCat2_ses-02_part-02_label-phase2,2020.2.10,Win32,60,,,,,right,3.235,2,2.05,0,94,94,9,1,stimuli/objects/measuringtape01.jpg,right,new,10,,,,,,,,,,,,,,,
,,,,,,,,2,2021-04-18_14h32.53.571,premceCat2_ses-02_part-02_label-phase2,2020.2.10,Win32,60,,,,,right,1.046,3,0.853,0,95,95,108,1,stimuli/objects/metalscissors.jpg,right,new,109,,,,,,,,,,,,,,,
,,,,,,,,2,2021-04-18_14h32.53.571,premceCat2_ses-02_part-02_label-phase2,2020.2.10,Win32,60,,,,,right,1.788,3,0.407,0,96,96,38,1,stimuli/objects/soundmixer.jpg,right,new,39,,,,,,,,,,,,,,,
,,,,,,,,2,2021-04-18_14h32.53.571,premceCat2_ses-02_part-02_label-phase2,2020.2.10,Win32,60,,,,,left,3.824,2,0.453,,,,,,,,,,right,0.621,0,0,0,0,1,,,,,,,,
,,,,,,,,2,2021-04-18_14h32.53.571,premceCat2_ses-02_part-02_label-phase2,2020.2.10,Win32,60,,,,,,,,,0,97,97,113,1,stimuli/objects/powercable.jpg,right,new,114,,,,,,,,,,,,,,,
,,,,,,,,2,2021-04-18_14h32.53.571,premceCat2_ses-02_part-02_label-phase2,2020.2.10,Win32,60,,,,,left,1.38,3,0.273,,,,,,,,,,right,0.48,0,0,0,0,1,,,,,,,,
,,,,,,,,2,2021-04-18_14h32.53.571,premceCat2_ses-02_part-02_label-phase2,2020.2.10,Win32,60,,,,,,,,,0,98,98,134,1,stimuli/objects/screwdriver04b.jpg,right,new,135,,,,,,,,,,,,,,,
,,,,,,,,2,2021-04-18_14h32.53.571,premceCat2_ses-02_part-02_label-phase2,2020.2.10,Win32,60,,,,,left,1.504,2,0.347,,,,,,,,,,left,0.554,0,0,0,0,1,,,,,,,,
,,,,,,,,2,2021-04-18_14h32.53.571,premceCat2_ses-02_part-02_label-phase2,2020.2.10,Win32,60,,,,,,,,,0,99,99,112,1,stimuli/objects/gymnasticring.jpg,right,new,113,,,,,,,,,,,,,,,
,,,,,,,,2,2021-04-18_14h32.53.571,premceCat2_ses-02_part-02_label-phase2,2020.2.10,Win32,60,,,,,left,0.958,3,1.046,,,,,,,,,,left,0.415,0,0,0,0,1,,,,,,,,
,,,,,,,,2,2021-04-18_14h32.53.571,premceCat2_ses-02_part-02_label-phase2,2020.2.10,Win32,60,,,,,,,,,0,100,100,17,1,stimuli/objects/exercisebench.jpg,right,new,18,,,,,,,,,,,,,,,
,,,,,,,,2,2021-04-18_14h32.53.571,premceCat2_ses-02_part-02_label-phase2,2020.2.10,Win32,60,,,,,left,1.585,1,0.695,,,,,,,,,,right,0.493,0,0,0,0,1,,,,,,,,
,,,,,,,,2,2021-04-18_14h32.53.571,premceCat2_ses-02_part-02_label-phase2,2020.2.10,Win32,60,,,,,,,,,0,101,101,30,1,stimuli/objects/printer02.jpg,right,new,31,,,,,,,,,,,,,,,
,,,,,,,,2,2021-04-18_14h32.53.571,premceCat2_ses-02_part-02_label-phase2,2020.2.10,Win32,60,,,,,left,0.751,2,0.85,,,,,,,,,,left,0.288,0,0,0,0,1,,,,,,,,
,,,,,,,,2,2021-04-18_14h32.53.571,premceCat2_ses-02_part-02_label-phase2,2020.2.10,Win32,60,,,,,,,,,0,102,102,24,1,stimuli/objects/skateboard.jpg,right,new,25,,,,,,,,,,,,,,,
,,,,,,,,2,2021-04-18_14h32.53.571,premceCat2_ses-02_part-02_label-phase2,2020.2.10,Win32,60,,,,,right,1.761,3,2.455,0,103,103,83,1,stimuli/objects/kitchenscale01a.jpg,right,new,84,,,,,,,,,,,,,,,
,,,,,,,,2,2021-04-18_14h32.53.571,premceCat2_ses-02_part-02_label-phase2,2020.2.10,Win32,60,,,,,left,1.372,4,0.448,,,,,,,,,,left,0.889,0,0,0,0,1,,,,,,,,
,,,,,,,,2,2021-04-18_14h32.53.571,premceCat2_ses-02_part-02_label-phase2,2020.2.10,Win32,60,,,,,,,,,0,104,104,67,1,stimuli/objects/cooler01.jpg,left,old,68,,,,,,,,,,,,,,,
,,,,,,,,2,2021-04-18_14h32.53.571,premceCat2_ses-02_part-02_label-phase2,2020.2.10,Win32,60,,,,,right,2.064,3,1.534,0,105,105,63,1,stimuli/objects/butterdish.jpg,right,new,64,,,,,,,,,,,,,,,
,,,,,,,,2,2021-04-18_14h32.53.571,premceCat2_ses-02_part-02_label-phase2,2020.2.10,Win32,60,,,,,left,1.313,4,1.171,,,,,,,,,,right,0.57,0,0,0,0,1,,,,,,,,
,,,,,,,,2,2021-04-18_14h32.53.571,premceCat2_ses-02_part-02_label-phase2,2020.2.10,Win32,60,,,,,,,,,0,106,106,36,1,stimuli/objects/antenna.jpg,left,old,37,,,,,,,,,,,,,,,
,,,,,,,,2,2021-04-18_14h32.53.571,premceCat2_ses-02_part-02_label-phase2,2020.2.10,Win32,60,,,,,right,1.751,3,1.535,0,107,107,55,1,stimuli/objects/toolbox02.jpg,right,new,56,,,,,,,,,,,,,,,
,,,,,,,,2,2021-04-18_14h32.53.571,premceCat2_ses-02_part-02_label-phase2,2020.2.10,Win32,60,,,,,right,1.188,3,0.452,0,108,108,57,1,stimuli/objects/audiocablesplitter.jpg,right,new,58,,,,,,,,,,,,,,,
,,,,,,,,2,2021-04-18_14h32.53.571,premceCat2_ses-02_part-02_label-phase2,2020.2.10,Win32,60,,,,,left,1.007,4,0.403,,,,,,,,,,left,1.407,0,0,0,0,1,,,,,,,,
,,,,,,,,2,2021-04-18_14h32.53.571,premceCat2_ses-02_part-02_label-phase2,2020.2.10,Win32,60,,,,,,,,,0,109,109,140,1,stimuli/objects/anchor.jpg,left,old,141,,,,,,,,,,,,,,,
,,,,,,,,2,2021-04-18_14h32.53.571,premceCat2_ses-02_part-02_label-phase2,2020.2.10,Win32,60,,,,,left,0.927,4,0.272,,,,,,,,,,right,0.348,0,0,0,0,1,,,,,,,,
,,,,,,,,2,2021-04-18_14h32.53.571,premceCat2_ses-02_part-02_label-phase2,2020.2.10,Win32,60,,,,,,,,,0,110,110,97,1,stimuli/objects/satellitedish01.jpg,left,old,98,,,,,,,,,,,,,,,
,,,,,,,,2,2021-04-18_14h32.53.571,premceCat2_ses-02_part-02_label-phase2,2020.2.10,Win32,60,,,,,left,0.85,2,0.864,,,,,,,,,,left,0.38,0,0,0,0,1,,,,,,,,
,,,,,,,,2,2021-04-18_14h32.53.571,premceCat2_ses-02_part-02_label-phase2,2020.2.10,Win32,60,,,,,,,,,0,111,111,96,1,stimuli/objects/golfbag.jpg,right,new,97,,,,,,,,,,,,,,,
,,,,,,,,2,2021-04-18_14h32.53.571,premceCat2_ses-02_part-02_label-phase2,2020.2.10,Win32,60,,,,,left,0.793,4,0.362,,,,,,,,,,left,0.304,0,0,0,0,1,,,,,,,,
,,,,,,,,2,2021-04-18_14h32.53.571,premceCat2_ses-02_part-02_label-phase2,2020.2.10,Win32,60,,,,,,,,,0,112,112,126,1,stimuli/objects/tableknife02.jpg,right,new,127,,,,,,,,,,,,,,,
,,,,,,,,2,2021-04-18_14h32.53.571,premceCat2_ses-02_part-02_label-phase2,2020.2.10,Win32,60,,,,,right,1.388,2,1.503,0,113,113,73,1,stimuli/objects/clock01a.jpg,right,new,74,,,,,,,,,,,,,,,
,,,,,,,,2,2021-04-18_14h32.53.571,premceCat2_ses-02_part-02_label-phase2,2020.2.10,Win32,60,,,,,left,1.014,4,0.368,,,,,,,,,,left,0.332,0,0,0,0,1,,,,,,,,
,,,,,,,,2,2021-04-18_14h32.53.571,premceCat2_ses-02_part-02_label-phase2,2020.2.10,Win32,60,,,,,,,,,0,114,114,74,1,stimuli/objects/baseball01a.jpg,left,old,75,,,,,,,,,,,,,,,
,,,,,,,,2,2021-04-18_14h32.53.571,premceCat2_ses-02_part-02_label-phase2,2020.2.10,Win32,60,,,,,left,0.853,4,0.735,,,,,,,,,,left,0.783,0,0,0,0,1,,,,,,,,
,,,,,,,,2,2021-04-18_14h32.53.571,premceCat2_ses-02_part-02_label-phase2,2020.2.10,Win32,60,,,,,,,,,0,115,115,0,1,stimuli/objects/electricoutlet.jpg,left,old,1,,,,,,,,,,,,,,,
,,,,,,,,2,2021-04-18_14h32.53.571,premceCat2_ses-02_part-02_label-phase2,2020.2.10,Win32,60,,,,,left,0.688,4,0.277,,,,,,,,,,left,0.316,0,0,0,0,1,,,,,,,,
,,,,,,,,2,2021-04-18_14h32.53.571,premceCat2_ses-02_part-02_label-phase2,2020.2.10,Win32,60,,,,,,,,,0,116,116,49,1,stimuli/objects/canoepaddle02.jpg,left,old,50,,,,,,,,,,,,,,,
,,,,,,,,2,2021-04-18_14h32.53.571,premceCat2_ses-02_part-02_label-phase2,2020.2.10,Win32,60,,,,,left,0.632,4,0.315,,,,,,,,,,left,0.276,0,0,0,0,1,,,,,,,,
,,,,,,,,2,2021-04-18_14h32.53.571,premceCat2_ses-02_part-02_label-phase2,2020.2.10,Win32,60,,,,,,,,,0,117,117,62,1,stimuli/objects/pastaspoon.jpg,left,old,63,,,,,,,,,,,,,,,
,,,,,,,,2,2021-04-18_14h32.53.571,premceCat2_ses-02_part-02_label-phase2,2020.2.10,Win32,60,,,,,right,2.738,2,0.897,0,118,118,116,1,stimuli/objects/radio01.jpg,right,new,117,,,,,,,,,,,,,,,
,,,,,,,,2,2021-04-18_14h32.53.571,premceCat2_ses-02_part-02_label-phase2,2020.2.10,Win32,60,,,,,left,0.918,4,1.459,,,,,,,,,,left,0.726,0,0,0,0,1,,,,,,,,
,,,,,,,,2,2021-04-18_14h32.53.571,premceCat2_ses-02_part-02_label-phase2,2020.2.10,Win32,60,,,,,,,,,0,119,119,84,1,stimuli/objects/catchermask.jpg,left,old,85,,,,,,,,,,,,,,,
,,,,,,,,2,2021-04-18_14h32.53.571,premceCat2_ses-02_part-02_label-phase2,2020.2.10,Win32,60,,,,,right,2.38,2,0.953,0,120,120,42,1,stimuli/objects/snowshoe.jpg,right,new,43,,,,,,,,,,,,,,,
,,,,,,,,2,2021-04-18_14h32.53.571,premceCat2_ses-02_part-02_label-phase2,2020.2.10,Win32,60,,,,,left,1.158,4,0.251,,,,,,,,,,right,0.247,0,0,0,0,1,,,,,,,,
,,,,,,,,2,2021-04-18_14h32.53.571,premceCat2_ses-02_part-02_label-phase2,2020.2.10,Win32,60,,,,,,,,,0,121,121,95,1,stimuli/objects/lectern01.jpg,left,old,96,,,,,,,,,,,,,,,
,,,,,,,,2,2021-04-18_14h32.53.571,premceCat2_ses-02_part-02_label-phase2,2020.2.10,Win32,60,,,,,left,4.012,2,0.611,,,,,,,,,,right,1.42,0,0,0,0,1,,,,,,,,
,,,,,,,,2,2021-04-18_14h32.53.571,premceCat2_ses-02_part-02_label-phase2,2020.2.10,Win32,60,,,,,,,,,0,122,122,39,1,stimuli/objects/sippycup.jpg,right,new,40,,,,,,,,,,,,,,,
,,,,,,,,2,2021-04-18_14h32.53.571,premceCat2_ses-02_part-02_label-phase2,2020.2.10,Win32,60,,,,,left,0.818,3,2.097,,,,,,,,,,left,1.786,0,0,0,0,1,,,,,,,,
,,,,,,,,2,2021-04-18_14h32.53.571,premceCat2_ses-02_part-02_label-phase2,2020.2.10,Win32,60,,,,,,,,,0,123,123,53,1,stimuli/objects/binoculars01b.jpg,right,new,54,,,,,,,,,,,,,,,
,,,,,,,,2,2021-04-18_14h32.53.571,premceCat2_ses-02_part-02_label-phase2,2020.2.10,Win32,60,,,,,left,0.89,4,0.312,,,,,,,,,,left,0.178,0,0,0,0,1,,,,,,,,
,,,,,,,,2,2021-04-18_14h32.53.571,premceCat2_ses-02_part-02_label-phase2,2020.2.10,Win32,60,,,,,,,,,0,124,124,127,1,stimuli/objects/hockeygoaliepad.jpg,left,old,128,,,,,,,,,,,,,,,
,,,,,,,,2,2021-04-18_14h32.53.571,premceCat2_ses-02_part-02_label-phase2,2020.2.10,Win32,60,,,,,left,0.986,4,0.291,,,,,,,,,,left,2.324,0,0,0,0,1,,,,,,,,
,,,,,,,,2,2021-04-18_14h32.53.571,premceCat2_ses-02_part-02_label-phase2,2020.2.10,Win32,60,,,,,,,,,0,125,125,114,1,stimuli/objects/espressomachine.jpg,left,old,115,,,,,,,,,,,,,,,
,,,,,,,,2,2021-04-18_14h32.53.571,premceCat2_ses-02_part-02_label-phase2,2020.2.10,Win32,60,,,,,left,0.667,3,2.274,,,,,,,,,,left,0.239,0,0,0,0,1,,,,,,,,
,,,,,,,,2,2021-04-18_14h32.53.571,premceCat2_ses-02_part-02_label-phase2,2020.2.10,Win32,60,,,,,,,,,0,126,126,23,1,stimuli/objects/football.jpg,right,new,24,,,,,,,,,,,,,,,
,,,,,,,,2,2021-04-18_14h32.53.571,premceCat2_ses-02_part-02_label-phase2,2020.2.10,Win32,60,,,,,left,1.41,4,0.309,,,,,,,,,,left,0.272,0,0,0,0,1,,,,,,,,
,,,,,,,,2,2021-04-18_14h32.53.571,premceCat2_ses-02_part-02_label-phase2,2020.2.10,Win32,60,,,,,,,,,0,127,127,124,1,stimuli/objects/bikepump01.jpg,left,old,125,,,,,,,,,,,,,,,
,,,,,,,,2,2021-04-18_14h32.53.571,premceCat2_ses-02_part-02_label-phase2,2020.2.10,Win32,60,,,,,left,0.773,4,0.277,,,,,,,,,,left,0.243,0,0,0,0,1,,,,,,,,
,,,,,,,,2,2021-04-18_14h32.53.571,premceCat2_ses-02_part-02_label-phase2,2020.2.10,Win32,60,,,,,,,,,0,128,128,98,1,stimuli/objects/podium.jpg,left,old,99,,,,,,,,,,,,,,,
,,,,,,,,2,2021-04-18_14h32.53.571,premceCat2_ses-02_part-02_label-phase2,2020.2.10,Win32,60,,,,,left,2.374,4,0.31,,,,,,,,,,left,0.313,0,0,0,0,1,,,,,,,,
,,,,,,,,2,2021-04-18_14h32.53.571,premceCat2_ses-02_part-02_label-phase2,2020.2.10,Win32,60,,,,,,,,,0,129,129,34,1,stimuli/objects/treadmill.jpg,left,old,35,,,,,,,,,,,,,,,
,,,,,,,,2,2021-04-18_14h32.53.571,premceCat2_ses-02_part-02_label-phase2,2020.2.10,Win32,60,,,,,right,3.335,3,1.139,0,130,130,109,1,stimuli/objects/winerack.jpg,right,new,110,,,,,,,,,,,,,,,
,,,,,,,,2,2021-04-18_14h32.53.571,premceCat2_ses-02_part-02_label-phase2,2020.2.10,Win32,60,,,,,left,2.239,1,0.927,,,,,,,,,,left,0.449,0,0,0,0,1,,,,,,,,
,,,,,,,,2,2021-04-18_14h32.53.571,premceCat2_ses-02_part-02_label-phase2,2020.2.10,Win32,60,,,,,,,,,0,131,131,78,1,stimuli/objects/handmixer01d.jpg,left,old,79,,,,,,,,,,,,,,,
,,,,,,,,2,2021-04-18_14h32.53.571,premceCat2_ses-02_part-02_label-phase2,2020.2.10,Win32,60,,,,,left,1.118,3,0.542,,,,,,,,,,right,1.834,0,0,0,0,1,,,,,,,,
,,,,,,,,2,2021-04-18_14h32.53.571,premceCat2_ses-02_part-02_label-phase2,2020.2.10,Win32,60,,,,,,,,,0,132,132,40,1,stimuli/objects/sledgehammer.jpg,left,old,41,,,,,,,,,,,,,,,
,,,,,,,,2,2021-04-18_14h32.53.571,premceCat2_ses-02_part-02_label-phase2,2020.2.10,Win32,60,,,,,left,1.045,4,0.326,,,,,,,,,,right,0.441,0,0,0,0,1,,,,,,,,
,,,,,,,,2,2021-04-18_14h32.53.571,premceCat2_ses-02_part-02_label-phase2,2020.2.10,Win32,60,,,,,,,,,0,133,133,129,1,stimuli/objects/gasburner.jpg,left,old,130,,,,,,,,,,,,,,,
,,,,,,,,2,2021-04-18_14h32.53.571,premceCat2_ses-02_part-02_label-phase2,2020.2.10,Win32,60,,,,,right,1.616,3,1.108,0,134,134,119,1,stimuli/objects/tongs01b.jpg,right,new,120,,,,,,,,,,,,,,,
,,,,,,,,2,2021-04-18_14h32.53.571,premceCat2_ses-02_part-02_label-phase2,2020.2.10,Win32,60,,,,,left,1.011,4,0.358,,,,,,,,,,left,0.367,0,0,0,0,1,,,,,,,,
,,,,,,,,2,2021-04-18_14h32.53.571,premceCat2_ses-02_part-02_label-phase2,2020.2.10,Win32,60,,,,,,,,,0,135,135,102,1,stimuli/objects/hockeygoalieglove.jpg,left,old,103,,,,,,,,,,,,,,,
,,,,,,,,2,2021-04-18_14h32.53.571,premceCat2_ses-02_part-02_label-phase2,2020.2.10,Win32,60,,,,,right,2.447,3,1.327,0,136,136,86,1,stimuli/objects/toasteroven.jpg,right,new,87,,,,,,,,,,,,,,,
,,,,,,,,2,2021-04-18_14h32.53.571,premceCat2_ses-02_part-02_label-phase2,2020.2.10,Win32,60,,,,,left,1.152,4,0.448,,,,,,,,,,left,1.717,0,0,0,0,1,,,,,,,,
,,,,,,,,2,2021-04-18_14h32.53.571,premceCat2_ses-02_part-02_label-phase2,2020.2.10,Win32,60,,,,,,,,,0,137,137,16,1,stimuli/objects/pressurewasher.jpg,left,old,17,,,,,,,,,,,,,,,
,,,,,,,,2,2021-04-18_14h32.53.571,premceCat2_ses-02_part-02_label-phase2,2020.2.10,Win32,60,,,,,right,3.098,3,0.913,0,138,138,125,1,stimuli/objects/shoulderpad.jpg,right,new,126,,,,,,,,,,,,,,,
,,,,,,,,2,2021-04-18_14h32.53.571,premceCat2_ses-02_part-02_label-phase2,2020.2.10,Win32,60,,,,,left,2.337,2,0.791,,,,,,,,,,left,0.342,0,0,0,0,1,,,,,,,,
,,,,,,,,2,2021-04-18_14h32.53.571,premceCat2_ses-02_part-02_label-phase2,2020.2.10,Win32,60,,,,,,,,,0,139,139,85,1,stimuli/objects/golfball.jpg,right,new,86,,,,,,,,,,,,,,,
,,,,,,,,2,2021-04-18_14h32.53.571,premceCat2_ses-02_part-02_label-phase2,2020.2.10,Win32,60,,,,,left,1.126,4,0.286,,,,,,,,,,right,0.819,0,0,0,0,1,,,,,,,,
,,,,,,,,2,2021-04-18_14h32.53.571,premceCat2_ses-02_part-02_label-phase2,2020.2.10,Win32,60,,,,,,,,,0,140,140,47,1,stimuli/objects/flooringstapler.jpg,left,old,48,,,,,,,,,,,,,,,
,,,,,,,,2,2021-04-18_14h32.53.571,premceCat2_ses-02_part-02_label-phase2,2020.2.10,Win32,60,,,,,left,1.568,2,0.429,,,,,,,,,,right,1.698,0,0,0,0,1,,,,,,,,
,,,,,,,,2,2021-04-18_14h32.53.571,premceCat2_ses-02_part-02_label-phase2,2020.2.10,Win32,60,,,,,,,,,0,141,141,92,1,stimuli/objects/carjack.jpg,right,new,93,,,,,,,,,,,,,,,
,,,,,,,,2,2021-04-18_14h32.53.571,premceCat2_ses-02_part-02_label-phase2,2020.2.10,Win32,60,,,,,left,1.12,2,1.124,,,,,,,,,,left,0.279,0,0,0,0,1,,,,,,,,
,,,,,,,,2,2021-04-18_14h32.53.571,premceCat2_ses-02_part-02_label-phase2,2020.2.10,Win32,60,,,,,,,,,0,142,142,6,1,stimuli/objects/saladspinner.jpg,left,old,7,,,,,,,,,,,,,,,
,,,,,,,,2,2021-04-18_14h32.53.571,premceCat2_ses-02_part-02_label-phase2,2020.2.10,Win32,60,,,,,,,,,,,,,,,,,,,,,,,,,space,70.25,0,0,0,0,1,condition_files/ImagesforRecog3_1.csv
,,,,,,,,2,2021-04-18_14h32.53.571,premceCat2_ses-02_part-02_label-phase2,2020.2.10,Win32,60,,,,,right,1.418,2,0.856,0,0,0,99,1,stimuli/objects/floodlight.jpg,right,new,243,,,,,,,,,,,,,,,
,,,,,,,,2,2021-04-18_14h32.53.571,premceCat2_ses-02_part-02_label-phase2,2020.2.10,Win32,60,,,,,left,0.744,3,1.416,,,,,,,,,,left,0.311,0,0,0,0,1,,,,,,,,
,,,,,,,,2,2021-04-18_14h32.53.571,premceCat2_ses-02_part-02_label-phase2,2020.2.10,Win32,60,,,,,,,,,0,1,1,36,1,stimuli/objects/loppingshears.jpg,right,new,180,,,,,,,,,,,,,,,
,,,,,,,,2,2021-04-18_14h32.53.571,premceCat2_ses-02_part-02_label-phase2,2020.2.10,Win32,60,,,,,left,3.293,4,1.094,,,,,,,,,,left,1.948,0,0,0,0,1,,,,,,,,
,,,,,,,,2,2021-04-18_14h32.53.571,premceCat2_ses-02_part-02_label-phase2,2020.2.10,Win32,60,,,,,,,,,0,2,2,14,1,stimuli/objects/fishingrod.jpg,left,old,158,,,,,,,,,,,,,,,
,,,,,,,,2,2021-04-18_14h32.53.571,premceCat2_ses-02_part-02_label-phase2,2020.2.10,Win32,60,,,,,left,1.433,2,0.785,,,,,,,,,,left,0.36,0,0,0,0,1,,,,,,,,
,,,,,,,,2,2021-04-18_14h32.53.571,premceCat2_ses-02_part-02_label-phase2,2020.2.10,Win32,60,,,,,,,,,0,3,3,140,1,stimuli/objects/wineglass01.jpg,right,new,284,,,,,,,,,,,,,,,
,,,,,,,,2,2021-04-18_14h32.53.571,premceCat2_ses-02_part-02_label-phase2,2020.2.10,Win32,60,,,,,left,0.869,4,0.327,,,,,,,,,,left,0.518,0,0,0,0,1,,,,,,,,
,,,,,,,,2,2021-04-18_14h32.53.571,premceCat2_ses-02_part-02_label-phase2,2020.2.10,Win32,60,,,,,,,,,0,4,4,33,1,stimuli/objects/ipod.jpg,left,old,177,,,,,,,,,,,,,,,
,,,,,,,,2,2021-04-18_14h32.53.571,premceCat2_ses-02_part-02_label-phase2,2020.2.10,Win32,60,,,,,right,0.932,3,0.777,0,5,5,133,1,stimuli/objects/birdie.jpg,right,new,277,,,,,,,,,,,,,,,
,,,,,,,,2,2021-04-18_14h32.53.571,premceCat2_ses-02_part-02_label-phase2,2020.2.10,Win32,60,,,,,left,1.143,1,1.522,,,,,,,,,,right,0.386,0,0,0,0,1,,,,,,,,
,,,,,,,,2,2021-04-18_14h32.53.571,premceCat2_ses-02_part-02_label-phase2,2020.2.10,Win32,60,,,,,,,,,0,6,6,5,1,stimuli/objects/pickaxe02.jpg,right,new,149,,,,,,,,,,,,,,,
,,,,,,,,2,2021-04-18_14h32.53.571,premceCat2_ses-02_part-02_label-phase2,2020.2.10,Win32,60,,,,,right,1.023,2,2.256,0,7,7,55,1,stimuli/objects/fonduefork01.jpg,right,new,199,,,,,,,,,,,,,,,
,,,,,,,,2,2021-04-18_14h32.53.571,premceCat2_ses-02_part-02_label-phase2,2020.2.10,Win32,60,,,,,right,1.795,2,1.018,0,8,8,46,1,stimuli/objects/waterbottleholder.jpg,right,new,190,,,,,,,,,,,,,,,
,,,,,,,,2,2021-04-18_14h32.53.571,premceCat2_ses-02_part-02_label-phase2,2020.2.10,Win32,60,,,,,left,1.626,2,0.497,,,,,,,,,,right,0.965,0,0,0,0,1,,,,,,,,
,,,,,,,,2,2021-04-18_14h32.53.571,premceCat2_ses-02_part-02_label-phase2,2020.2.10,Win32,60,,,,,,,,,0,9,9,123,1,stimuli/objects/jackhammer.jpg,right,new,267,,,,,,,,,,,,,,,
,,,,,,,,2,2021-04-18_14h32.53.571,premceCat2_ses-02_part-02_label-phase2,2020.2.10,Win32,60,,,,,left,2.598,3,0.814,,,,,,,,,,left,0.279,0,0,0,0,1,,,,,,,,
,,,,,,,,2,2021-04-18_14h32.53.571,premceCat2_ses-02_part-02_label-phase2,2020.2.10,Win32,60,,,,,,,,,0,10,10,4,1,stimuli/objects/cassettetape01a.jpg,right,new,148,,,,,,,,,,,,,,,
,,,,,,,,2,2021-04-18_14h32.53.571,premceCat2_ses-02_part-02_label-phase2,2020.2.10,Win32,60,,,,,left,0.954,4,0.147,,,,,,,,,,right,0.999,0,0,0,0,1,,,,,,,,
,,,,,,,,2,2021-04-18_14h32.53.571,premceCat2_ses-02_part-02_label-phase2,2020.2.10,Win32,60,,,,,,,,,0,11,11,109,1,stimuli/objects/toothpick02.jpg,left,old,253,,,,,,,,,,,,,,,
,,,,,,,,2,2021-04-18_14h32.53.571,premceCat2_ses-02_part-02_label-phase2,2020.2.10,Win32,60,,,,,left,1.655,2,0.676,,,,,,,,,,left,0.173,0,0,0,0,1,,,,,,,,
,,,,,,,,2,2021-04-18_14h32.53.571,premceCat2_ses-02_part-02_label-phase2,2020.2.10,Win32,60,,,,,,,,,0,12,12,68,1,stimuli/objects/ladle02a.jpg,right,new,212,,,,,,,,,,,,,,,
,,,,,,,,2,2021-04-18_14h32.53.571,premceCat2_ses-02_part-02_label-phase2,2020.2.10,Win32,60,,,,,left,0.819,4,0.261,,,,,,,,,,left,0.272,0,0,0,0,1,,,,,,,,
,,,,,,,,2,2021-04-18_14h32.53.571,premceCat2_ses-02_part-02_label-phase2,2020.2.10,Win32,60,,,,,,,,,0,13,13,64,1,stimuli/objects/surfboard.jpg,left,old,208,,,,,,,,,,,,,,,
,,,,,,,,2,2021-04-18_14h32.53.571,premceCat2_ses-02_part-02_label-phase2,2020.2.10,Win32,60,,,,,left,0.769,4,0.51,,,,,,,,,,left,1.765,0,0,0,0,1,,,,,,,,
,,,,,,,,2,2021-04-18_14h32.53.571,premceCat2_ses-02_part-02_label-phase2,2020.2.10,Win32,60,,,,,,,,,0,14,14,125,1,stimuli/objects/sewingmachine01a.jpg,left,old,269,,,,,,,,,,,,,,,
,,,,,,,,2,2021-04-18_14h32.53.571,premceCat2_ses-02_part-02_label-phase2,2020.2.10,Win32,60,,,,,right,3.632,2,1.104,0,15,15,2,1,stimuli/objects/wetfloorsign.jpg,right,new,146,,,,,,,,,,,,,,,
,,,,,,,,2,2021-04-18_14h32.53.571,premceCat2_ses-02_part-02_label-phase2,2020.2.10,Win32,60,,,,,left,1.619,3,1.156,,,,,,,,,,left,1.288,0,0,0,0,1,,,,,,,,
,,,,,,,,2,2021-04-18_14h32.53.571,premceCat2_ses-02_part-02_label-phase2,2020.2.10,Win32,60,,,,,,,,,0,16,16,126,1,stimuli/objects/reflector.jpg,left,old,270,,,,,,,,,,,,,,,
,,,,,,,,2,2021-04-18_14h32.53.571,premceCat2_ses-02_part-02_label-phase2,2020.2.10,Win32,60,,,,,left,0.942,3,0.425,,,,,,,,,,left,0.334,0,0,0,0,1,,,,,,,,
,,,,,,,,2,2021-04-18_14h32.53.571,premceCat2_ses-02_part-02_label-phase2,2020.2.10,Win32,60,,,,,,,,,0,17,17,119,1,stimuli/objects/muffintray01.jpg,left,old,263,,,,,,,,,,,,,,,
,,,,,,,,2,2021-04-18_14h32.53.571,premceCat2_ses-02_part-02_label-phase2,2020.2.10,Win32,60,,,,,left,0.926,3,0.502,,,,,,,,,,right,0.803,0,0,0,0,1,,,,,,,,
,,,,,,,,2,2021-04-18_14h32.53.571,premceCat2_ses-02_part-02_label-phase2,2020.2.10,Win32,60,,,,,,,,,0,18,18,18,1,stimuli/objects/fluorescentlightbulb.jpg,left,old,162,,,,,,,,,,,,,,,
,,,,,,,,2,2021-04-18_14h32.53.571,premceCat2_ses-02_part-02_label-phase2,2020.2.10,Win32,60,,,,,right,2.054,3,0.548,0,19,19,60,1,stimuli/objects/kite.jpg,right,new,204,,,,,,,,,,,,,,,
,,,,,,,,2,2021-04-18_14h32.53.571,premceCat2_ses-02_part-02_label-phase2,2020.2.10,Win32,60,,,,,left,1.971,3,1.662,,,,,,,,,,left,0.268,0,0,0,0,1,,,,,,,,
,,,,,,,,2,2021-04-18_14h32.53.571,premceCat2_ses-02_part-02_label-phase2,2020.2.10,Win32,60,,,,,,,,,0,20,20,128,1,stimuli/objects/spoon01.jpg,left,old,272,,,,,,,,,,,,,,,
,,,,,,,,2,2021-04-18_14h32.53.571,premceCat2_ses-02_part-02_label-phase2,2020.2.10,Win32,60,,,,,right,1.817,2,1.734,0,21,21,98,1,stimuli/objects/cameracase01a.jpg,right,new,242,,,,,,,,,,,,,,,
,,,,,,,,2,2021-04-18_14h32.53.571,premceCat2_ses-02_part-02_label-phase2,2020.2.10,Win32,60,,,,,left,0.865,3,0.331,,,,,,,,,,left,0.571,0,0,0,0,1,,,,,,,,
,,,,,,,,2,2021-04-18_14h32.53.571,premceCat2_ses-02_part-02_label-phase2,2020.2.10,Win32,60,,,,,,,,,0,22,22,43,1,stimuli/objects/bowrake.jpg,right,new,187,,,,,,,,,,,,,,,
,,,,,,,,2,2021-04-18_14h32.53.571,premceCat2_ses-02_part-02_label-phase2,2020.2.10,Win32,60,,,,,left,0.891,4,0.284,,,,,,,,,,left,0.191,0,0,0,0,1,,,,,,,,
,,,,,,,,2,2021-04-18_14h32.53.571,premceCat2_ses-02_part-02_label-phase2,2020.2.10,Win32,60,,,,,,,,,0,23,23,74,1,stimuli/objects/shinpad.jpg,left,old,218,,,,,,,,,,,,,,,
,,,,,,,,2,2021-04-18_14h32.53.571,premceCat2_ses-02_part-02_label-phase2,2020.2.10,Win32,60,,,,,right,1.222,3,0.86,0,24,24,111,1,stimuli/objects/diaperbag.jpg,right,new,255,,,,,,,,,,,,,,,
,,,,,,,,2,2021-04-18_14h32.53.571,premceCat2_ses-02_part-02_label-phase2,2020.2.10,Win32,60,,,,,left,1.335,2,0.799,,,,,,,,,,right,0.333,0,0,0,0,1,,,,,,,,
,,,,,,,,2,2021-04-18_14h32.53.571,premceCat2_ses-02_part-02_label-phase2,2020.2.10,Win32,60,,,,,,,,,0,25,25,12,1,stimuli/objects/fanheater.jpg,right,new,156,,,,,,,,,,,,,,,
,,,,,,,,2,2021-04-18_14h32.53.571,premceCat2_ses-02_part-02_label-phase2,2020.2.10,Win32,60,,,,,left,1.019,4,1.738,,,,,,,,,,left,0.178,0,0,0,0,1,,,,,,,,
,,,,,,,,2,2021-04-18_14h32.53.571,premceCat2_ses-02_part-02_label-phase2,2020.2.10,Win32,60,,,,,,,,,0,26,26,73,1,stimuli/objects/baseballglove.jpg,left,old,217,,,,,,,,,,,,,,,
,,,,,,,,2,2021-04-18_14h32.53.571,premceCat2_ses-02_part-02_label-phase2,2020.2.10,Win32,60,,,,,left,0.802,4,0.264,,,,,,,,,,left,0.195,0,0,0,0,1,,,,,,,,
,,,,,,,,2,2021-04-18_14h32.53.571,premceCat2_ses-02_part-02_label-phase2,2020.2.10,Win32,60,,,,,,,,,0,27,27,57,1,stimuli/objects/swimgoggles.jpg,left,old,201,,,,,,,,,,,,,,,
,,,,,,,,2,2021-04-18_14h32.53.571,premceCat2_ses-02_part-02_label-phase2,2020.2.10,Win32,60,,,,,left,1.157,4,0.238,,,,,,,,,,left,0.232,0,0,0,0,1,,,,,,,,
,,,,,,,,2,2021-04-18_14h32.53.571,premceCat2_ses-02_part-02_label-phase2,2020.2.10,Win32,60,,,,,,,,,0,28,28,136,1,stimuli/objects/hockeypuck.jpg,left,old,280,,,,,,,,,,,,,,,
,,,,,,,,2,2021-04-18_14h32.53.571,premceCat2_ses-02_part-02_label-phase2,2020.2.10,Win32,60,,,,,left,1.979,2,0.315,,,,,,,,,,left,0.337,0,0,0,0,1,,,,,,,,
,,,,,,,,2,2021-04-18_14h32.53.571,premceCat2_ses-02_part-02_label-phase2,2020.2.10,Win32,60,,,,,,,,,0,29,29,138,1,stimuli/objects/beermug01a.jpg,right,new,282,,,,,,,,,,,,,,,
,,,,,,,,2,2021-04-18_14h32.53.571,premceCat2_ses-02_part-02_label-phase2,2020.2.10,Win32,60,,,,,left,0.625,4,0.484,,,,,,,,,,left,1.708,0,0,0,0,1,,,,,,,,
,,,,,,,,2,2021-04-18_14h32.53.571,premceCat2_ses-02_part-02_label-phase2,2020.2.10,Win32,60,,,,,,,,,0,30,30,108,1,stimuli/objects/telephone01b.jpg,left,old,252,,,,,,,,,,,,,,,
,,,,,,,,2,2021-04-18_14h32.53.571,premceCat2_ses-02_part-02_label-phase2,2020.2.10,Win32,60,,,,,left,0.717,4,0.042,,,,,,,,,,left,0.12,0,0,0,0,1,,,,,,,,
,,,,,,,,2,2021-04-18_14h32.53.571,premceCat2_ses-02_part-02_label-phase2,2020.2.10,Win32,60,,,,,,,,,0,31,31,63,1,stimuli/objects/towel01.jpg,left,old,207,,,,,,,,,,,,,,,
,,,,,,,,2,2021-04-18_14h32.53.571,premceCat2_ses-02_part-02_label-phase2,2020.2.10,Win32,60,,,,,left,0.741,4,0.11,,,,,,,,,,left,0.127,0,0,0,0,1,,,,,,,,
,,,,,,,,2,2021-04-18_14h32.53.571,premceCat2_ses-02_part-02_label-phase2,2020.2.10,Win32,60,,,,,,,,,0,32,32,141,1,stimuli/objects/travelmug.jpg,left,old,285,,,,,,,,,,,,,,,
,,,,,,,,2,2021-04-18_14h32.53.571,premceCat2_ses-02_part-02_label-phase2,2020.2.10,Win32,60,,,,,right,2.104,3,0.66,0,33,33,9,1,stimuli/objects/alarmsystem.jpg,right,new,153,,,,,,,,,,,,,,,
,,,,,,,,2,2021-04-18_14h32.53.571,premceCat2_ses-02_part-02_label-phase2,2020.2.10,Win32,60,,,,,left,0.758,4,0.207,,,,,,,,,,left,0.04,0,0,0,0,1,,,,,,,,
,,,,,,,,2,2021-04-18_14h32.53.571,premceCat2_ses-02_part-02_label-phase2,2020.2.10,Win32,60,,,,,,,,,0,34,34,28,1,stimuli/objects/canister.jpg,left,old,172,,,,,,,,,,,,,,,
,,,,,,,,2,2021-04-18_14h32.53.571,premceCat2_ses-02_part-02_label-phase2,2020.2.10,Win32,60,,,,,left,1.134,4,0.277,,,,,,,,,,left,1.458,0,0,0,0,1,,,,,,,,
,,,,,,,,2,2021-04-18_14h32.53.571,premceCat2_ses-02_part-02_label-phase2,2020.2.10,Win32,60,,,,,,,,,0,35,35,139,1,stimuli/objects/corkscrew03a.jpg,left,old,283,,,,,,,,,,,,,,,
,,,,,,,,2,2021-04-18_14h32.53.571,premceCat2_ses-02_part-02_label-phase2,2020.2.10,Win32,60,,,,,left,0.732,4,0.184,,,,,,,,,,right,0.13,0,0,0,0,1,,,,,,,,
,,,,,,,,2,2021-04-18_14h32.53.571,premceCat2_ses-02_part-02_label-phase2,2020.2.10,Win32,60,,,,,,,,,0,36,36,52,1,stimuli/objects/securitycamera.jpg,left,old,196,,,,,,,,,,,,,,,
,,,,,,,,2,2021-04-18_14h32.53.571,premceCat2_ses-02_part-02_label-phase2,2020.2.10,Win32,60,,,,,right,2.435,4,1.102,0,37,37,131,1,stimuli/objects/handblender.jpg,right,new,275,,,,,,,,,,,,,,,
,,,,,,,,2,2021-04-18_14h32.53.571,premceCat2_ses-02_part-02_label-phase2,2020.2.10,Win32,60,,,,,right,1.354,2,0.702,0,38,38,82,1,stimuli/objects/shopvac.jpg,right,new,226,,,,,,,,,,,,,,,
,,,,,,,,2,2021-04-18_14h32.53.571,premceCat2_ses-02_part-02_label-phase2,2020.2.10,Win32,60,,,,,left,0.623,4,0.292,,,,,,,,,,left,0.411,0,0,0,0,1,,,,,,,,
,,,,,,,,2,2021-04-18_14h32.53.571,premceCat2_ses-02_part-02_label-phase2,2020.2.10,Win32,60,,,,,,,,,0,39,39,31,1,stimuli/objects/soccerball.jpg,left,old,175,,,,,,,,,,,,,,,
,,,,,,,,2,2021-04-18_14h32.53.571,premceCat2_ses-02_part-02_label-phase2,2020.2.10,Win32,60,,,,,left,1.487,3,0.665,,,,,,,,,,right,0.475,0,0,0,0,1,,,,,,,,
,,,,,,,,2,2021-04-18_14h32.53.571,premceCat2_ses-02_part-02_label-phase2,2020.2.10,Win32,60,,,,,,,,,0,40,40,37,1,stimuli/objects/computerkeyboard02.jpg,left,old,181,,,,,,,,,,,,,,,
,,,,,,,,2,2021-04-18_14h32.53.571,premceCat2_ses-02_part-02_label-phase2,2020.2.10,Win32,60,,,,,right,1.583,3,2.407,0,41,41,101,1,stimuli/objects/lifejacket.jpg,right,new,245,,,,,,,,,,,,,,,
,,,,,,,,2,2021-04-18_14h32.53.571,premceCat2_ses-02_part-02_label-phase2,2020.2.10,Win32,60,,,,,left,0.692,4,1.331,,,,,,,,,,left,0.3,0,0,0,0,1,,,,,,,,
,,,,,,,,2,2021-04-18_14h32.53.571,premceCat2_ses-02_part-02_label-phase2,2020.2.10,Win32,60,,,,,,,,,0,42,42,115,1,stimuli/objects/tray.jpg,left,old,259,,,,,,,,,,,,,,,
,,,,,,,,2,2021-04-18_14h32.53.571,premceCat2_ses-02_part-02_label-phase2,2020.2.10,Win32,60,,,,,left,1.431,2,0.337,,,,,,,,,,left,0.411,0,0,0,0,1,,,,,,,,
,,,,,,,,2,2021-04-18_14h32.53.571,premceCat2_ses-02_part-02_label-phase2,2020.2.10,Win32,60,,,,,,,,,0,43,43,49,1,stimuli/objects/cakeplatter.jpg,right,new,193,,,,,,,,,,,,,,,
,,,,,,,,2,2021-04-18_14h32.53.571,premceCat2_ses-02_part-02_label-phase2,2020.2.10,Win32,60,,,,,right,1.393,4,1.339,0,44,44,137,1,stimuli/objects/nutcracker01.jpg,right,new,281,,,,,,,,,,,,,,,
,,,,,,,,2,2021-04-18_14h32.53.571,premceCat2_ses-02_part-02_label-phase2,2020.2.10,Win32,60,,,,,left,1.746,4,0.609,,,,,,,,,,left,0.921,0,0,0,0,1,,,,,,,,
,,,,,,,,2,2021-04-18_14h32.53.571,premceCat2_ses-02_part-02_label-phase2,2020.2.10,Win32,60,,,,,,,,,0,45,45,79,1,stimuli/objects/boatmotor.jpg,left,old,223,,,,,,,,,,,,,,,
,,,,,,,,2,2021-04-18_14h32.53.571,premceCat2_ses-02_part-02_label-phase2,2020.2.10,Win32,60,,,,,left,0.816,4,0.127,,,,,,,,,,left,0.306,0,0,0,0,1,,,,,,,,
,,,,,,,,2,2021-04-18_14h32.53.571,premceCat2_ses-02_part-02_label-phase2,2020.2.10,Win32,60,,,,,,,,,0,46,46,25,1,stimuli/objects/shotglass.jpg,left,old,169,,,,,,,,,,,,,,,
,,,,,,,,2,2021-04-18_14h32.53.571,premceCat2_ses-02_part-02_label-phase2,2020.2.10,Win32,60,,,,,right,2.06,3,0.491,0,47,47,40,1,stimuli/objects/tablesaw.jpg,right,new,184,,,,,,,,,,,,,,,
,,,,,,,,2,2021-04-18_14h32.53.571,premceCat2_ses-02_part-02_label-phase2,2020.2.10,Win32,60,,,,,left,0.886,4,0.004,,,,,,,,,,right,0.98,0,0,0,0,1,,,,,,,,
,,,,,,,,2,2021-04-18_14h32.53.571,premceCat2_ses-02_part-02_label-phase2,2020.2.10,Win32,60,,,,,,,,,0,48,48,92,1,stimuli/objects/snowshovel.jpg,left,old,236,,,,,,,,,,,,,,,
,,,,,,,,2,2021-04-18_14h32.53.571,premceCat2_ses-02_part-02_label-phase2,2020.2.10,Win32,60,,,,,left,0.806,4,0.334,,,,,,,,,,right,0.241,0,0,0,0,1,,,,,,,,
,,,,,,,,2,2021-04-18_14h32.53.571,premceCat2_ses-02_part-02_label-phase2,2020.2.10,Win32,60,,,,,,,,,0,49,49,27,1,stimuli/objects/saw02b.jpg,left,old,171,,,,,,,,,,,,,,,
,,,,,,,,2,2021-04-18_14h32.53.571,premceCat2_ses-02_part-02_label-phase2,2020.2.10,Win32,60,,,,,left,0.67,4,0.168,,,,,,,,,,left,2.016,0,0,0,0,1,,,,,,,,
,,,,,,,,2,2021-04-18_14h32.53.571,premceCat2_ses-02_part-02_label-phase2,2020.2.10,Win32,60,,,,,,,,,0,50,50,72,1,stimuli/objects/wheel01.jpg,left,old,216,,,,,,,,,,,,,,,
,,,,,,,,2,2021-04-18_14h32.53.571,premceCat2_ses-02_part-02_label-phase2,2020.2.10,Win32,60,,,,,left,0.623,4,0.118,,,,,,,,,,left,0.198,0,0,0,0,1,,,,,,,,
,,,,,,,,2,2021-04-18_14h32.53.571,premceCat2_ses-02_part-02_label-phase2,2020.2.10,Win32,60,,,,,,,,,0,51,51,90,1,stimuli/objects/toyhockeystick01.jpg,left,old,234,,,,,,,,,,,,,,,
,,,,,,,,2,2021-04-18_14h32.53.571,premceCat2_ses-02_part-02_label-phase2,2020.2.10,Win32,60,,,,,left,0.656,3,0.899,,,,,,,,,,left,0.83,0,0,0,0,1,,,,,,,,
,,,,,,,,2,2021-04-18_14h32.53.571,premceCat2_ses-02_part-02_label-phase2,2020.2.10,Win32,60,,,,,,,,,0,52,52,17,1,stimuli/objects/backpack01a.jpg,left,old,161,,,,,,,,,,,,,,,
,,,,,,,,2,2021-04-18_14h32.53.571,premceCat2_ses-02_part-02_label-phase2,2020.2.10,Win32,60,,,,,right,1.477,2,0.427,0,53,53,19,1,stimuli/objects/mug01.jpg,right,new,163,,,,,,,,,,,,,,,
,,,,,,,,2,2021-04-18_14h32.53.571,premceCat2_ses-02_part-02_label-phase2,2020.2.10,Win32,60,,,,,left,0.94,3,0.425,,,,,,,,,,right,0.381,0,0,0,0,1,,,,,,,,
,,,,,,,,2,2021-04-18_14h32.53.571,premceCat2_ses-02_part-02_label-phase2,2020.2.10,Win32,60,,,,,,,,,0,54,54,129,1,stimuli/objects/hoe.jpg,left,old,273,,,,,,,,,,,,,,,
,,,,,,,,2,2021-04-18_14h32.53.571,premceCat2_ses-02_part-02_label-phase2,2020.2.10,Win32,60,,,,,left,0.911,3,0.981,,,,,,,,,,left,0.087,0,0,0,0,1,,,,,,,,
,,,,,,,,2,2021-04-18_14h32.53.571,premceCat2_ses-02_part-02_label-phase2,2020.2.10,Win32,60,,,,,,,,,0,55,55,3,1,stimuli/objects/boxingglove01.jpg,right,new,147,,,,,,,,,,,,,,,
,,,,,,,,2,2021-04-18_14h32.53.571,premceCat2_ses-02_part-02_label-phase2,2020.2.10,Win32,60,,,,,right,0.918,3,0.89,0,56,56,62,1,stimuli/objects/pot01.jpg,left,old,206,,,,,,,,,,,,,,,
,,,,,,,,2,2021-04-18_14h32.53.571,premceCat2_ses-02_part-02_label-phase2,2020.2.10,Win32,60,,,,,left,2.543,2,0.462,,,,,,,,,,right,0.844,0,0,0,0,1,,,,,,,,
,,,,,,,,2,2021-04-18_14h32.53.571,premceCat2_ses-02_part-02_label-phase2,2020.2.10,Win32,60,,,,,,,,,0,57,57,135,1,stimuli/objects/mortarandpestle.jpg,right,new,279,,,,,,,,,,,,,,,
,,,,,,,,2,2021-04-18_14h32.53.571,premceCat2_ses-02_part-02_label-phase2,2020.2.10,Win32,60,,,,,left,1.052,3,0.976,,,,,,,,,,left,0.468,0,0,0,0,1,,,,,,,,
,,,,,,,,2,2021-04-18_14h32.53.571,premceCat2_ses-02_part-02_label-phase2,2020.2.10,Win32,60,,,,,,,,,0,58,58,113,1,stimuli/objects/hedgeshears.jpg,left,old,257,,,,,,,,,,,,,,,
,,,,,,,,2,2021-04-18_14h32.53.571,premceCat2_ses-02_part-02_label-phase2,2020.2.10,Win32,60,,,,,left,0.617,4,0.313,,,,,,,,,,left,0.209,0,0,0,0,1,,,,,,,,
,,,,,,,,2,2021-04-18_14h32.53.571,premceCat2_ses-02_part-02_label-phase2,2020.2.10,Win32,60,,,,,,,,,0,59,59,20,1,stimuli/objects/bikehelmet.jpg,left,old,164,,,,,,,,,,,,,,,
,,,,,,,,2,2021-04-18_14h32.53.571,premceCat2_ses-02_part-02_label-phase2,2020.2.10,Win32,60,,,,,right,2.687,2,0.521,0,60,60,95,1,stimuli/objects/tennisball01b.jpg,right,new,239,,,,,,,,,,,,,,,
,,,,,,,,2,2021-04-18_14h32.53.571,premceCat2_ses-02_part-02_label-phase2,2020.2.10,Win32,60,,,,,left,1.591,1,0.494,,,,,,,,,,right,0.432,0,0,0,0,1,,,,,,,,
,,,,,,,,2,2021-04-18_14h32.53.571,premceCat2_ses-02_part-02_label-phase2,2020.2.10,Win32,60,,,,,,,,,0,61,61,24,1,stimuli/objects/monitor.jpg,right,new,168,,,,,,,,,,,,,,,
,,,,,,,,2,2021-04-18_14h32.53.571,premceCat2_ses-02_part-02_label-phase2,2020.2.10,Win32,60,,,,,left,0.809,4,0.004,,,,,,,,,,right,1.398,0,0,0,0,1,,,,,,,,
,,,,,,,,2,2021-04-18_14h32.53.571,premceCat2_ses-02_part-02_label-phase2,2020.2.10,Win32,60,,,,,,,,,0,62,62,84,1,stimuli/objects/patioumbrella.jpg,left,old,228,,,,,,,,,,,,,,,
,,,,,,,,2,2021-04-18_14h32.53.571,premceCat2_ses-02_part-02_label-phase2,2020.2.10,Win32,60,,,,,left,0.618,4,0.172,,,,,,,,,,left,0.114,0,0,0,0,1,,,,,,,,
,,,,,,,,2,2021-04-18_14h32.53.571,premceCat2_ses-02_part-02_label-phase2,2020.2.10,Win32,60,,,,,,,,,0,63,63,38,1,stimuli/objects/breadknife.jpg,left,old,182,,,,,,,,,,,,,,,
,,,,,,,,2,2021-04-18_14h32.53.571,premceCat2_ses-02_part-02_label-phase2,2020.2.10,Win32,60,,,,,left,0.86,3,0.829,,,,,,,,,,left,0.348,0,0,0,0,1,,,,,,,,
,,,,,,,,2,2021-04-18_14h32.53.571,premceCat2_ses-02_part-02_label-phase2,2020.2.10,Win32,60,,,,,,,,,0,64,64,77,1,stimuli/objects/contactlens.jpg,left,old,221,,,,,,,,,,,,,,,
,,,,,,,,2,2021-04-18_14h32.53.571,premceCat2_ses-02_part-02_label-phase2,2020.2.10,Win32,60,,,,,left,0.88,4,0.27,,,,,,,,,,right,0.064,0,0,0,0,1,,,,,,,,
,,,,,,,,2,2021-04-18_14h32.53.571,premceCat2_ses-02_part-02_label-phase2,2020.2.10,Win32,60,,,,,,,,,0,65,65,29,1,stimuli/objects/chandelier.jpg,left,old,173,,,,,,,,,,,,,,,
,,,,,,,,2,2021-04-18_14h32.53.571,premceCat2_ses-02_part-02_label-phase2,2020.2.10,Win32,60,,,,,left,1.669,3,0.654,,,,,,,,,,left,0.343,0,0,0,0,1,,,,,,,,
,,,,,,,,2,2021-04-18_14h32.53.571,premceCat2_ses-02_part-02_label-phase2,2020.2.10,Win32,60,,,,,,,,,0,66,66,59,1,stimuli/objects/speedball.jpg,right,new,203,,,,,,,,,,,,,,,
,,,,,,,,2,2021-04-18_14h32.53.571,premceCat2_ses-02_part-02_label-phase2,2020.2.10,Win32,60,,,,,left,0.819,2,1.828,,,,,,,,,,left,0.055,0,0,0,0,1,,,,,,,,
,,,,,,,,2,2021-04-18_14h32.53.571,premceCat2_ses-02_part-02_label-phase2,2020.2.10,Win32,60,,,,,,,,,0,67,67,44,1,stimuli/objects/toaster01.jpg,right,new,188,,,,,,,,,,,,,,,
,,,,,,,,2,2021-04-18_14h32.53.571,premceCat2_ses-02_part-02_label-phase2,2020.2.10,Win32,60,,,,,right,1.675,1,1.306,0,68,68,26,1,stimuli/objects/flashlight02b.jpg,right,new,170,,,,,,,,,,,,,,,
,,,,,,,,2,2021-04-18_14h32.53.571,premceCat2_ses-02_part-02_label-phase2,2020.2.10,Win32,60,,,,,left,0.6,3,0.574,,,,,,,,,,left,0.309,0,0,0,0,1,,,,,,,,
,,,,,,,,2,2021-04-18_14h32.53.571,premceCat2_ses-02_part-02_label-phase2,2020.2.10,Win32,60,,,,,,,,,0,69,69,58,1,stimuli/objects/volleyball.jpg,left,old,202,,,,,,,,,,,,,,,
,,,,,,,,2,2021-04-18_14h32.53.571,premceCat2_ses-02_part-02_label-phase2,2020.2.10,Win32,60,,,,,left,0.733,2,0.962,,,,,,,,,,left,0.384,0,0,0,0,1,,,,,,,,
,,,,,,,,2,2021-04-18_14h32.53.571,premceCat2_ses-02_part-02_label-phase2,2020.2.10,Win32,60,,,,,,,,,0,70,70,122,1,stimuli/objects/hockeystick.jpg,right,new,266,,,,,,,,,,,,,,,
,,,,,,,,2,2021-04-18_14h32.53.571,premceCat2_ses-02_part-02_label-phase2,2020.2.10,Win32,60,,,,,left,1.625,4,0.52,,,,,,,,,,right,0.852,0,0,0,0,1,,,,,,,,
,,,,,,,,2,2021-04-18_14h32.53.571,premceCat2_ses-02_part-02_label-phase2,2020.2.10,Win32,60,,,,,,,,,0,71,71,1,1,stimuli/objects/crocodileclips.jpg,left,old,145,,,,,,,,,,,,,,,
,,,,,,,,2,2021-04-18_14h32.53.571,premceCat2_ses-02_part-02_label-phase2,2020.2.10,Win32,60,,,,,left,0.95,4,0.175,,,,,,,,,,right,0.238,0,0,0,0,1,,,,,,,,
,,,,,,,,2,2021-04-18_14h32.53.571,premceCat2_ses-02_part-02_label-phase2,2020.2.10,Win32,60,,,,,,,,,0,72,72,11,1,stimuli/objects/vhstape.jpg,left,old,155,,,,,,,,,,,,,,,
,,,,,,,,2,2021-04-18_14h32.53.571,premceCat2_ses-02_part-02_label-phase2,2020.2.10,Win32,60,,,,,right,0.873,4,0.972,0,73,73,120,1,stimuli/objects/tent.jpg,right,new,264,,,,,,,,,,,,,,,
,,,,,,,,2,2021-04-18_14h32.53.571,premceCat2_ses-02_part-02_label-phase2,2020.2.10,Win32,60,,,,,left,0.742,4,0.349,,,,,,,,,,left,0.254,0,0,0,0,1,,,,,,,,
,,,,,,,,2,2021-04-18_14h32.53.571,premceCat2_ses-02_part-02_label-phase2,2020.2.10,Win32,60,,,,,,,,,0,74,74,23,1,stimuli/objects/snowboard.jpg,left,old,167,,,,,,,,,,,,,,,
,,,,,,,,2,2021-04-18_14h32.53.571,premceCat2_ses-02_part-02_label-phase2,2020.2.10,Win32,60,,,,,right,1.914,2,0.676,0,75,75,51,1,stimuli/objects/cheeseknife01.jpg,right,new,195,,,,,,,,,,,,,,,
,,,,,,,,2,2021-04-18_14h32.53.571,premceCat2_ses-02_part-02_label-phase2,2020.2.10,Win32,60,,,,,right,1.295,1,0.561,0,76,76,107,1,stimuli/objects/dolly01.jpg,right,new,251,,,,,,,,,,,,,,,
,,,,,,,,2,2021-04-18_14h32.53.571,premceCat2_ses-02_part-02_label-phase2,2020.2.10,Win32,60,,,,,left,0.824,2,0.304,,,,,,,,,,left,0.151,0,0,0,0,1,,,,,,,,
,,,,,,,,2,2021-04-18_14h32.53.571,premceCat2_ses-02_part-02_label-phase2,2020.2.10,Win32,60,,,,,,,,,0,77,77,47,1,stimuli/objects/plate01b.jpg,right,new,191,,,,,,,,,,,,,,,
,,,,,,,,2,2021-04-18_14h32.53.571,premceCat2_ses-02_part-02_label-phase2,2020.2.10,Win32,60,,,,,left,1.953,4,0.33,,,,,,,,,,right,1.354,0,0,0,0,1,,,,,,,,
,,,,,,,,2,2021-04-18_14h32.53.571,premceCat2_ses-02_part-02_label-phase2,2020.2.10,Win32,60,,,,,,,,,0,78,78,75,1,stimuli/objects/mallet01b.jpg,left,old,219,,,,,,,,,,,,,,,
,,,,,,,,2,2021-04-18_14h32.53.571,premceCat2_ses-02_part-02_label-phase2,2020.2.10,Win32,60,,,,,left,1.388,4,0.18,,,,,,,,,,left,0.156,0,0,0,0,1,,,,,,,,
,,,,,,,,2,2021-04-18_14h32.53.571,premceCat2_ses-02_part-02_label-phase2,2020.2.10,Win32,60,,,,,,,,,0,79,79,32,1,stimuli/objects/rollingpin01a.jpg,left,old,176,,,,,,,,,,,,,,,
,,,,,,,,2,2021-04-18_14h32.53.571,premceCat2_ses-02_part-02_label-phase2,2020.2.10,Win32,60,,,,,left,1.1,4,0.161,,,,,,,,,,right,2.315,0,0,0,0,1,,,,,,,,
,,,,,,,,2,2021-04-18_14h32.53.571,premceCat2_ses-02_part-02_label-phase2,2020.2.10,Win32,60,,,,,,,,,0,80,80,130,1,stimuli/objects/fuse.jpg,left,old,274,,,,,,,,,,,,,,,
,,,,,,,,2,2021-04-18_14h32.53.571,premceCat2_ses-02_part-02_label-phase2,2020.2.10,Win32,60,,,,,right,1.066,3,1.044,0,81,81,35,1,stimuli/objects/stroller.jpg,right,new,179,,,,,,,,,,,,,,,
,,,,,,,,2,2021-04-18_14h32.53.571,premceCat2_ses-02_part-02_label-phase2,2020.2.10,Win32,60,,,,,left,1.16,2,0.273,,,,,,,,,,left,0.358,0,0,0,0,1,,,,,,,,
,,,,,,,,2,2021-04-18_14h32.53.571,premceCat2_ses-02_part-02_label-phase2,2020.2.10,Win32,60,,,,,,,,,0,82,82,10,1,stimuli/objects/skihelmet01.jpg,left,old,154,,,,,,,,,,,,,,,
,,,,,,,,2,2021-04-18_14h32.53.571,premceCat2_ses-02_part-02_label-phase2,2020.2.10,Win32,60,,,,,left,1.565,3,0.541,,,,,,,,,,right,1.045,0,0,0,0,1,,,,,,,,
,,,,,,,,2,2021-04-18_14h32.53.571,premceCat2_ses-02_part-02_label-phase2,2020.2.10,Win32,60,,,,,,,,,0,83,83,41,1,stimuli/objects/flask.jpg,right,new,185,,,,,,,,,,,,,,,
,,,,,,,,2,2021-04-18_14h32.53.571,premceCat2_ses-02_part-02_label-phase2,2020.2.10,Win32,60,,,,,left,0.72,4,0.806,,,,,,,,,,left,0.163,0,0,0,0,1,,,,,,,,
,,,,,,,,2,2021-04-18_14h32.53.571,premceCat2_ses-02_part-02_label-phase2,2020.2.10,Win32,60,,,,,,,,,0,84,84,97,1,stimuli/objects/tupperware03a.jpg,left,old,241,,,,,,,,,,,,,,,
,,,,,,,,2,2021-04-18_14h32.53.571,premceCat2_ses-02_part-02_label-phase2,2020.2.10,Win32,60,,,,,left,0.877,4,0.105,,,,,,,,,,right,0.353,0,0,0,0,1,,,,,,,,
,,,,,,,,2,2021-04-18_14h32.53.571,premceCat2_ses-02_part-02_label-phase2,2020.2.10,Win32,60,,,,,,,,,0,85,85,54,1,stimuli/objects/stubbywrench01a.jpg,left,old,198,,,,,,,,,,,,,,,
,,,,,,,,2,2021-04-18_14h32.53.571,premceCat2_ses-02_part-02_label-phase2,2020.2.10,Win32,60,,,,,right,1.196,2,0.706,0,86,86,127,1,stimuli/objects/skigoggles01.jpg,right,new,271,,,,,,,,,,,,,,,
,,,,,,,,2,2021-04-18_14h32.53.571,premceCat2_ses-02_part-02_label-phase2,2020.2.10,Win32,60,,,,,left,1.09,4,0.034,,,,,,,,,,right,0.876,0,0,0,0,1,,,,,,,,
,,,,,,,,2,2021-04-18_14h32.53.571,premceCat2_ses-02_part-02_label-phase2,2020.2.10,Win32,60,,,,,,,,,0,87,87,67,1,stimuli/objects/fan.jpg,left,old,211,,,,,,,,,,,,,,,
,,,,,,,,2,2021-04-18_14h32.53.571,premceCat2_ses-02_part-02_label-phase2,2020.2.10,Win32,60,,,,,left,1.031,4,0.104,,,,,,,,,,left,0.435,0,0,0,0,1,,,,,,,,
,,,,,,,,2,2021-04-18_14h32.53.571,premceCat2_ses-02_part-02_label-phase2,2020.2.10,Win32,60,,,,,,,,,0,88,88,53,1,stimuli/objects/metalbrush.jpg,left,old,197,,,,,,,,,,,,,,,
,,,,,,,,2,2021-04-18_14h32.53.571,premceCat2_ses-02_part-02_label-phase2,2020.2.10,Win32,60,,,,,right,1.473,3,2.115,0,89,89,39,1,stimuli/objects/wafflemaker.jpg,right,new,183,,,,,,,,,,,,,,,
,,,,,,,,2,2021-04-18_14h32.53.571,premceCat2_ses-02_part-02_label-phase2,2020.2.10,Win32,60,,,,,left,1.063,4,0.272,,,,,,,,,,left,0.317,0,0,0,0,1,,,,,,,,
,,,,,,,,2,2021-04-18_14h32.53.571,premceCat2_ses-02_part-02_label-phase2,2020.2.10,Win32,60,,,,,,,,,0,90,90,89,1,stimuli/objects/cleaver01.jpg,left,old,233,,,,,,,,,,,,,,,
,,,,,,,,2,2021-04-18_14h32.53.571,premceCat2_ses-02_part-02_label-phase2,2020.2.10,Win32,60,,,,,right,1.689,3,1.313,0,91,91,48,1,stimuli/objects/eggslicer.jpg,right,new,192,,,,,,,,,,,,,,,
,,,,,,,,2,2021-04-18_14h32.53.571,premceCat2_ses-02_part-02_label-phase2,2020.2.10,Win32,60,,,,,left,1.029,4,0.508,,,,,,,,,,right,0.892,0,0,0,0,1,,,,,,,,
,,,,,,,,2,2021-04-18_14h32.53.571,premceCat2_ses-02_part-02_label-phase2,2020.2.10,Win32,60,,,,,,,,,0,92,92,134,1,stimuli/objects/carantenna.jpg,left,old,278,,,,,,,,,,,,,,,
,,,,,,,,2,2021-04-18_14h32.53.571,premceCat2_ses-02_part-02_label-phase2,2020.2.10,Win32,60,,,,,right,1.93,3,0.797,0,93,93,91,1,stimuli/objects/cuttingpliers02.jpg,right,new,235,,,,,,,,,,,,,,,
,,,,,,,,2,2021-04-18_14h32.53.571,premceCat2_ses-02_part-02_label-phase2,2020.2.10,Win32,60,,,,,right,1.041,3,0.431,0,94,94,15,1,stimuli/objects/computermouse06.jpg,right,new,159,,,,,,,,,,,,,,,
,,,,,,,,2,2021-04-18_14h32.53.571,premceCat2_ses-02_part-02_label-phase2,2020.2.10,Win32,60,,,,,right,2.615,2,0.3,0,95,95,142,1,stimuli/objects/needlenosepliers01.jpg,right,new,286,,,,,,,,,,,,,,,
,,,,,,,,2,2021-04-18_14h32.53.571,premceCat2_ses-02_part-02_label-phase2,2020.2.10,Win32,60,,,,,right,1.095,3,1.17,0,96,96,69,1,stimuli/objects/straw.jpg,right,new,213,,,,,,,,,,,,,,,
,,,,,,,,2,2021-04-18_14h32.53.571,premceCat2_ses-02_part-02_label-phase2,2020.2.10,Win32,60,,,,,left,0.875,3,0.598,,,,,,,,,,left,0.329,0,0,0,0,1,,,,,,,,
,,,,,,,,2,2021-04-18_14h32.53.571,premceCat2_ses-02_part-02_label-phase2,2020.2.10,Win32,60,,,,,,,,,0,97,97,50,1,stimuli/objects/hockeygoaliemask.jpg,left,old,194,,,,,,,,,,,,,,,
,,,,,,,,2,2021-04-18_14h32.53.571,premceCat2_ses-02_part-02_label-phase2,2020.2.10,Win32,60,,,,,left,1.38,2,1.172,,,,,,,,,,right,0.452,0,0,0,0,1,,,,,,,,
,,,,,,,,2,2021-04-18_14h32.53.571,premceCat2_ses-02_part-02_label-phase2,2020.2.10,Win32,60,,,,,,,,,0,98,98,94,1,stimuli/objects/file.jpg,right,new,238,,,,,,,,,,,,,,,
,,,,,,,,2,2021-04-18_14h32.53.571,premceCat2_ses-02_part-02_label-phase2,2020.2.10,Win32,60,,,,,right,3.718,2,0.894,0,99,99,81,1,stimuli/objects/grill.jpg,right,new,225,,,,,,,,,,,,,,,
,,,,,,,,2,2021-04-18_14h32.53.571,premceCat2_ses-02_part-02_label-phase2,2020.2.10,Win32,60,,,,,left,0.875,4,0.15,,,,,,,,,,right,0.574,0,0,0,0,1,,,,,,,,
,,,,,,,,2,2021-04-18_14h32.53.571,premceCat2_ses-02_part-02_label-phase2,2020.2.10,Win32,60,,,,,,,,,0,100,100,100,1,stimuli/objects/caulking.jpg,left,old,244,,,,,,,,,,,,,,,
,,,,,,,,2,2021-04-18_14h32.53.571,premceCat2_ses-02_part-02_label-phase2,2020.2.10,Win32,60,,,,,left,0.916,3,2.701,,,,,,,,,,right,0.466,0,0,0,0,1,,,,,,,,
,,,,,,,,2,2021-04-18_14h32.53.571,premceCat2_ses-02_part-02_label-phase2,2020.2.10,Win32,60,,,,,,,,,0,101,101,118,1,stimuli/objects/pliers02b.jpg,left,old,262,,,,,,,,,,,,,,,
,,,,,,,,2,2021-04-18_14h32.53.571,premceCat2_ses-02_part-02_label-phase2,2020.2.10,Win32,60,,,,,left,0.94,4,0.324,,,,,,,,,,right,0.203,0,0,0,0,1,,,,,,,,
,,,,,,,,2,2021-04-18_14h32.53.571,premceCat2_ses-02_part-02_label-phase2,2020.2.10,Win32,60,,,,,,,,,0,102,102,104,1,stimuli/objects/alarmclock01.jpg,left,old,248,,,,,,,,,,,,,,,
,,,,,,,,2,2021-04-18_14h32.53.571,premceCat2_ses-02_part-02_label-phase2,2020.2.10,Win32,60,,,,,left,0.929,4,0.168,,,,,,,,,,right,0.292,0,0,0,0,1,,,,,,,,
,,,,,,,,2,2021-04-18_14h32.53.571,premceCat2_ses-02_part-02_label-phase2,2020.2.10,Win32,60,,,,,,,,,0,103,103,76,1,stimuli/objects/headphones02b.jpg,left,old,220,,,,,,,,,,,,,,,
,,,,,,,,2,2021-04-18_14h32.53.571,premceCat2_ses-02_part-02_label-phase2,2020.2.10,Win32,60,,,,,left,0.928,4,0.004,,,,,,,,,,right,0.547,0,0,0,0,1,,,,,,,,
,,,,,,,,2,2021-04-18_14h32.53.571,premceCat2_ses-02_part-02_label-phase2,2020.2.10,Win32,60,,,,,,,,,0,104,104,13,1,stimuli/objects/bungeecord02.jpg,left,old,157,,,,,,,,,,,,,,,
,,,,,,,,2,2021-04-18_14h32.53.571,premceCat2_ses-02_part-02_label-phase2,2020.2.10,Win32,60,,,,,left,0.771,4,0.004,,,,,,,,,,left,1.248,0,0,0,0,1,,,,,,,,
,,,,,,,,2,2021-04-18_14h32.53.571,premceCat2_ses-02_part-02_label-phase2,2020.2.10,Win32,60,,,,,,,,,0,105,105,22,1,stimuli/objects/paintroller01.jpg,left,old,166,,,,,,,,,,,,,,,
,,,,,,,,2,2021-04-18_14h32.53.571,premceCat2_ses-02_part-02_label-phase2,2020.2.10,Win32,60,,,,,right,3.568,2,0.552,0,106,106,124,1,stimuli/objects/basketball01.jpg,right,new,268,,,,,,,,,,,,,,,
,,,,,,,,2,2021-04-18_14h32.53.571,premceCat2_ses-02_part-02_label-phase2,2020.2.10,Win32,60,,,,,left,1.64,4,0.434,,,,,,,,,,left,0.788,0,0,0,0,1,,,,,,,,
,,,,,,,,2,2021-04-18_14h32.53.571,premceCat2_ses-02_part-02_label-phase2,2020.2.10,Win32,60,,,,,,,,,0,107,107,65,1,stimuli/objects/bucket02.jpg,left,old,209,,,,,,,,,,,,,,,
,,,,,,,,2,2021-04-18_14h32.53.571,premceCat2_ses-02_part-02_label-phase2,2020.2.10,Win32,60,,,,,left,0.718,4,0.207,,,,,,,,,,right,0.434,0,0,0,0,1,,,,,,,,
,,,,,,,,2,2021-04-18_14h32.53.571,premceCat2_ses-02_part-02_label-phase2,2020.2.10,Win32,60,,,,,,,,,0,108,108,88,1,stimuli/objects/magneticcompass.jpg,left,old,232,,,,,,,,,,,,,,,
,,,,,,,,2,2021-04-18_14h32.53.571,premceCat2_ses-02_part-02_label-phase2,2020.2.10,Win32,60,,,,,right,1.224,4,1.757,0,109,109,87,1,stimuli/objects/wiicontroller.jpg,right,new,231,,,,,,,,,,,,,,,
,,,,,,,,2,2021-04-18_14h32.53.571,premceCat2_ses-02_part-02_label-phase2,2020.2.10,Win32,60,,,,,left,1.209,3,0.895,,,,,,,,,,left,0.624,0,0,0,0,1,,,,,,,,
,,,,,,,,2,2021-04-18_14h32.53.571,premceCat2_ses-02_part-02_label-phase2,2020.2.10,Win32,60,,,,,,,,,0,110,110,7,1,stimuli/objects/butterknife.jpg,left,old,151,,,,,,,,,,,,,,,
,,,,,,,,2,2021-04-18_14h32.53.571,premceCat2_ses-02_part-02_label-phase2,2020.2.10,Win32,60,,,,,left,0.828,3,1.474,,,,,,,,,,right,0.663,0,0,0,0,1,,,,,,,,
,,,,,,,,2,2021-04-18_14h32.53.571,premceCat2_ses-02_part-02_label-phase2,2020.2.10,Win32,60,,,,,,,,,0,111,111,102,1,stimuli/objects/beachumbrella01.jpg,right,new,246,,,,,,,,,,,,,,,
,,,,,,,,2,2021-04-18_14h32.53.571,premceCat2_ses-02_part-02_label-phase2,2020.2.10,Win32,60,,,,,left,1.567,3,0.985,,,,,,,,,,right,0.347,0,0,0,0,1,,,,,,,,
,,,,,,,,2,2021-04-18_14h32.53.571,premceCat2_ses-02_part-02_label-phase2,2020.2.10,Win32,60,,,,,,,,,0,112,112,66,1,stimuli/objects/heatpump.jpg,right,new,210,,,,,,,,,,,,,,,
,,,,,,,,2,2021-04-18_14h32.53.571,premceCat2_ses-02_part-02_label-phase2,2020.2.10,Win32,60,,,,,right,1.547,3,2.018,0,113,113,114,1,stimuli/objects/drinkshaker.jpg,right,new,258,,,,,,,,,,,,,,,
,,,,,,,,2,2021-04-18_14h32.53.571,premceCat2_ses-02_part-02_label-phase2,2020.2.10,Win32,60,,,,,right,1.415,3,0.602,0,114,114,16,1,stimuli/objects/bottleopener01.jpg,right,new,160,,,,,,,,,,,,,,,
,,,,,,,,2,2021-04-18_14h32.53.571,premceCat2_ses-02_part-02_label-phase2,2020.2.10,Win32,60,,,,,left,0.772,4,0.15,,,,,,,,,,right,0.755,0,0,0,0,1,,,,,,,,
,,,,,,,,2,2021-04-18_14h32.53.571,premceCat2_ses-02_part-02_label-phase2,2020.2.10,Win32,60,,,,,,,,,0,115,115,8,1,stimuli/objects/hammer01.jpg,left,old,152,,,,,,,,,,,,,,,
,,,,,,,,2,2021-04-18_14h32.53.571,premceCat2_ses-02_part-02_label-phase2,2020.2.10,Win32,60,,,,,left,1.74,2,0.116,,,,,,,,,,left,0.429,0,0,0,0,1,,,,,,,,
,,,,,,,,2,2021-04-18_14h32.53.571,premceCat2_ses-02_part-02_label-phase2,2020.2.10,Win32,60,,,,,,,,,0,116,116,105,1,stimuli/objects/pitcher02b.jpg,left,old,249,,,,,,,,,,,,,,,
,,,,,,,,2,2021-04-18_14h32.53.571,premceCat2_ses-02_part-02_label-phase2,2020.2.10,Win32,60,,,,,left,3.255,3,1.179,,,,,,,,,,left,2.618,0,0,0,0,1,,,,,,,,
,,,,,,,,2,2021-04-18_14h32.53.571,premceCat2_ses-02_part-02_label-phase2,2020.2.10,Win32,60,,,,,,,,,0,117,117,21,1,stimuli/objects/drill01b.jpg,left,old,165,,,,,,,,,,,,,,,
,,,,,,,,2,2021-04-18_14h32.53.571,premceCat2_ses-02_part-02_label-phase2,2020.2.10,Win32,60,,,,,left,1.872,1,0.562,,,,,,,,,,right,0.043,0,0,0,0,1,,,,,,,,
,,,,,,,,2,2021-04-18_14h32.53.571,premceCat2_ses-02_part-02_label-phase2,2020.2.10,Win32,60,,,,,,,,,0,118,118,78,1,stimuli/objects/lightswitch01.jpg,right,new,222,,,,,,,,,,,,,,,
,,,,,,,,2,2021-04-18_14h32.53.571,premceCat2_ses-02_part-02_label-phase2,2020.2.10,Win32,60,,,,,right,2.662,2,1.845,0,119,119,116,1,stimuli/objects/lockingplier.jpg,right,new,260,,,,,,,,,,,,,,,
,,,,,,,,2,2021-04-18_14h32.53.571,premceCat2_ses-02_part-02_label-phase2,2020.2.10,Win32,60,,,,,left,1.691,4,0.421,,,,,,,,,,right,0.146,0,0,0,0,1,,,,,,,,
,,,,,,,,2,2021-04-18_14h32.53.571,premceCat2_ses-02_part-02_label-phase2,2020.2.10,Win32,60,,,,,,,,,0,120,120,106,1,stimuli/objects/extensioncord.jpg,left,old,250,,,,,,,,,,,,,,,
,,,,,,,,2,2021-04-18_14h32.53.571,premceCat2_ses-02_part-02_label-phase2,2020.2.10,Win32,60,,,,,right,1.311,3,1.258,0,121,121,103,1,stimuli/objects/swissarmyknife01a.jpg,right,new,247,,,,,,,,,,,,,,,
,,,,,,,,2,2021-04-18_14h32.53.571,premceCat2_ses-02_part-02_label-phase2,2020.2.10,Win32,60,,,,,left,0.669,4,0.25,,,,,,,,,,left,0.256,0,0,0,0,1,,,,,,,,
,,,,,,,,2,2021-04-18_14h32.53.571,premceCat2_ses-02_part-02_label-phase2,2020.2.10,Win32,60,,,,,,,,,0,122,122,110,1,stimuli/objects/skiboot01a.jpg,left,old,254,,,,,,,,,,,,,,,
,,,,,,,,2,2021-04-18_14h32.53.571,premceCat2_ses-02_part-02_label-phase2,2020.2.10,Win32,60,,,,,left,1.011,4,0.005,,,,,,,,,,left,0.461,0,0,0,0,1,,,,,,,,
,,,,,,,,2,2021-04-18_14h32.53.571,premceCat2_ses-02_part-02_label-phase2,2020.2.10,Win32,60,,,,,,,,,0,123,123,71,1,stimuli/objects/handgripper.jpg,left,old,215,,,,,,,,,,,,,,,
,,,,,,,,2,2021-04-18_14h32.53.571,premceCat2_ses-02_part-02_label-phase2,2020.2.10,Win32,60,,,,,left,1.168,3,0.918,,,,,,,,,,right,1.178,0,0,0,0,1,,,,,,,,
,,,,,,,,2,2021-04-18_14h32.53.571,premceCat2_ses-02_part-02_label-phase2,2020.2.10,Win32,60,,,,,,,,,0,124,124,56,1,stimuli/objects/thermos.jpg,left,old,200,,,,,,,,,,,,,,,
,,,,,,,,2,2021-04-18_14h32.53.571,premceCat2_ses-02_part-02_label-phase2,2020.2.10,Win32,60,,,,,right,2.623,3,1.191,0,125,125,34,1,stimuli/objects/kneepad01c.jpg,right,new,178,,,,,,,,,,,,,,,
,,,,,,,,2,2021-04-18_14h32.53.571,premceCat2_ses-02_part-02_label-phase2,2020.2.10,Win32,60,,,,,left,0.789,2,0.751,,,,,,,,,,left,0.202,0,0,0,0,1,,,,,,,,
,,,,,,,,2,2021-04-18_14h32.53.571,premceCat2_ses-02_part-02_label-phase2,2020.2.10,Win32,60,,,,,,,,,0,126,126,42,1,stimuli/objects/tennisracket.jpg,right,new,186,,,,,,,,,,,,,,,
,,,,,,,,2,2021-04-18_14h32.53.571,premceCat2_ses-02_part-02_label-phase2,2020.2.10,Win32,60,,,,,right,5.271,2,1.291,0,127,127,121,1,stimuli/objects/parachute.jpg,right,new,265,,,,,,,,,,,,,,,
,,,,,,,,2,2021-04-18_14h32.53.571,premceCat2_ses-02_part-02_label-phase2,2020.2.10,Win32,60,,,,,left,0.717,4,0.202,,,,,,,,,,right,0.453,0,0,0,0,1,,,,,,,,
,,,,,,,,2,2021-04-18_14h32.53.571,premceCat2_ses-02_part-02_label-phase2,2020.2.10,Win32,60,,,,,,,,,0,128,128,85,1,stimuli/objects/filmnegative.jpg,left,old,229,,,,,,,,,,,,,,,
,,,,,,,,2,2021-04-18_14h32.53.571,premceCat2_ses-02_part-02_label-phase2,2020.2.10,Win32,60,,,,,left,0.934,3,1.697,,,,,,,,,,left,1.319,0,0,0,0,1,,,,,,,,
,,,,,,,,2,2021-04-18_14h32.53.571,premceCat2_ses-02_part-02_label-phase2,2020.2.10,Win32,60,,,,,,,,,0,129,129,45,1,stimuli/objects/charcoalbarbecue.jpg,left,old,189,,,,,,,,,,,,,,,
,,,,,,,,2,2021-04-18_14h32.53.571,premceCat2_ses-02_part-02_label-phase2,2020.2.10,Win32,60,,,,,left,1.386,3,0.906,,,,,,,,,,left,0.234,0,0,0,0,1,,,,,,,,
,,,,,,,,2,2021-04-18_14h32.53.571,premceCat2_ses-02_part-02_label-phase2,2020.2.10,Win32,60,,,,,,,,,0,130,130,96,1,stimuli/objects/wateringcan.jpg,left,old,240,,,,,,,,,,,,,,,
,,,,,,,,2,2021-04-18_14h32.53.571,premceCat2_ses-02_part-02_label-phase2,2020.2.10,Win32,60,,,,,left,1.328,1,0.297,,,,,,,,,,right,0.901,0,0,0,0,1,,,,,,,,
,,,,,,,,2,2021-04-18_14h32.53.571,premceCat2_ses-02_part-02_label-phase2,2020.2.10,Win32,60,,,,,,,,,0,131,131,132,1,stimuli/objects/wirestripper.jpg,right,new,276,,,,,,,,,,,,,,,
,,,,,,,,2,2021-04-18_14h32.53.571,premceCat2_ses-02_part-02_label-phase2,2020.2.10,Win32,60,,,,,left,1.263,2,0.9,,,,,,,,,,left,0.329,0,0,0,0,1,,,,,,,,
,,,,,,,,2,2021-04-18_14h32.53.571,premceCat2_ses-02_part-02_label-phase2,2020.2.10,Win32,60,,,,,,,,,0,132,132,70,1,stimuli/objects/shovel01.jpg,right,new,214,,,,,,,,,,,,,,,
,,,,,,,,2,2021-04-18_14h32.53.571,premceCat2_ses-02_part-02_label-phase2,2020.2.10,Win32,60,,,,,left,0.891,4,0.406,,,,,,,,,,right,0.457,0,0,0,0,1,,,,,,,,
,,,,,,,,2,2021-04-18_14h32.53.571,premceCat2_ses-02_part-02_label-phase2,2020.2.10,Win32,60,,,,,,,,,0,133,133,112,1,stimuli/objects/slidetray.jpg,left,old,256,,,,,,,,,,,,,,,
,,,,,,,,2,2021-04-18_14h32.53.571,premceCat2_ses-02_part-02_label-phase2,2020.2.10,Win32,60,,,,,left,0.837,4,0.396,,,,,,,,,,left,0.341,0,0,0,0,1,,,,,,,,
,,,,,,,,2,2021-04-18_14h32.53.571,premceCat2_ses-02_part-02_label-phase2,2020.2.10,Win32,60,,,,,,,,,0,134,134,117,1,stimuli/objects/poolnet.jpg,left,old,261,,,,,,,,,,,,,,,
,,,,,,,,2,2021-04-18_14h32.53.571,premceCat2_ses-02_part-02_label-phase2,2020.2.10,Win32,60,,,,,right,4.041,2,1.173,0,135,135,83,1,stimuli/objects/icecubetray01a.jpg,right,new,227,,,,,,,,,,,,,,,
,,,,,,,,2,2021-04-18_14h32.53.571,premceCat2_ses-02_part-02_label-phase2,2020.2.10,Win32,60,,,,,right,1.391,3,0.534,0,136,136,86,1,stimuli/objects/trampoline.jpg,right,new,230,,,,,,,,,,,,,,,
,,,,,,,,2,2021-04-18_14h32.53.571,premceCat2_ses-02_part-02_label-phase2,2020.2.10,Win32,60,,,,,right,1.471,3,0.524,0,137,137,30,1,stimuli/objects/halogenlightbulb.jpg,right,new,174,,,,,,,,,,,,,,,
,,,,,,,,2,2021-04-18_14h32.53.571,premceCat2_ses-02_part-02_label-phase2,2020.2.10,Win32,60,,,,,left,1.388,2,0.349,,,,,,,,,,right,0.971,0,0,0,0,1,,,,,,,,
,,,,,,,,2,2021-04-18_14h32.53.571,premceCat2_ses-02_part-02_label-phase2,2020.2.10,Win32,60,,,,,,,,,0,138,138,0,1,stimuli/objects/smokedetector02.jpg,right,new,144,,,,,,,,,,,,,,,
,,,,,,,,2,2021-04-18_14h32.53.571,premceCat2_ses-02_part-02_label-phase2,2020.2.10,Win32,60,,,,,left,0.874,4,0.283,,,,,,,,,,right,1.599,0,0,0,0,1,,,,,,,,
,,,,,,,,2,2021-04-18_14h32.53.571,premceCat2_ses-02_part-02_label-phase2,2020.2.10,Win32,60,,,,,,,,,0,139,139,93,1,stimuli/objects/chainsaw.jpg,left,old,237,,,,,,,,,,,,,,,
,,,,,,,,2,2021-04-18_14h32.53.571,premceCat2_ses-02_part-02_label-phase2,2020.2.10,Win32,60,,,,,left,1.355,2,0.26,,,,,,,,,,right,1.24,0,0,0,0,1,,,,,,,,
,,,,,,,,2,2021-04-18_14h32.53.571,premceCat2_ses-02_part-02_label-phase2,2020.2.10,Win32,60,,,,,,,,,0,140,140,80,1,stimuli/objects/barbecue03.jpg,right,new,224,,,,,,,,,,,,,,,
,,,,,,,,2,2021-04-18_14h32.53.571,premceCat2_ses-02_part-02_label-phase2,2020.2.10,Win32,60,,,,,left,1.059,4,0.197,,,,,,,,,,left,0.97,0,0,0,0,1,,,,,,,,
,,,,,,,,2,2021-04-18_14h32.53.571,premceCat2_ses-02_part-02_label-phase2,2020.2.10,Win32,60,,,,,,,,,0,141,141,61,1,stimuli/objects/jumpercables.jpg,left,old,205,,,,,,,,,,,,,,,
,,,,,,,,2,2021-04-18_14h32.53.571,premceCat2_ses-02_part-02_label-phase2,2020.2.10,Win32,60,,,,,right,1.186,2,0.308,0,142,142,6,1,stimuli/objects/solderingwire.jpg,right,new,150,,,,,,,,,,,,,,,
,,,,,,,,2,2021-04-18_14h32.53.571,premceCat2_ses-02_part-02_label-phase2,2020.2.10,Win32,60,,,,,,,,,,,,,,,,,,,,,,,,,space,4.184,0,1,1,1,1,condition_files/ImagesforRecog3_2.csv
