instructions_loop.thisRepN,instructions_loop.thisTrialN,instructions_loop.thisN,instructions_loop.thisIndex,instructions_loop.ran,text1,text2,text3,participant,date,expName,psychopyVersion,OS,frameRate,key_resp_2.keys,key_resp_2.rt,key_resp_3.keys,key_resp_3.rt,recog_resp.keys,recog_resp.rt,conf_resp.keys,conf_resp.rt,recog_loop.thisRepN,recog_loop.thisTrialN,recog_loop.thisN,recog_loop.thisIndex,recog_loop.ran,images,corr_ans,type,order,resp_assoc.keys,resp_assoc.rt,assoc_loop.thisRepN,assoc_loop.thisTrialN,assoc_loop.thisN,assoc_loop.thisIndex,assoc_loop.ran,key_resp_break.keys,key_resp_break.rt,list_loop.thisRepN,list_loop.thisTrialN,list_loop.thisN,list_loop.thisIndex,list_loop.ran,recog_list
0,0,0,0,1,Welcome to the last phase of this experiment!,.,Please press the space bar to continue,3,2021-04-11_17h04.41.025,premceCat2_ses-02_part-02_label-phase2,2020.2.10,Win32,60,,,,,,,,,,,,,,,,,,,,,,,,,,,,,,,,
0,1,1,1,1,.,"In this phase, you will see some objects. 

For each object, you should indicate whether you have seen it before during the experiment.

Press LEFT ARROW for YES
Press RIGHT ARROW for NO

",Please press the space bar to continue ,3,2021-04-11_17h04.41.025,premceCat2_ses-02_part-02_label-phase2,2020.2.10,Win32,60,,,,,,,,,,,,,,,,,,,,,,,,,,,,,,,,
0,2,2,2,1,.,"After that, you will be asked how confident you are of your choice.

Please rate the confidence in your choice with the numbers from 1 to 4 of your keyboard. 

The numbers correspond to:

1 = Very unsure
2 = Unsure
3 = Sure
4 = Very Sure",Please press the space bar to continue,3,2021-04-11_17h04.41.025,premceCat2_ses-02_part-02_label-phase2,2020.2.10,Win32,60,,,,,,,,,,,,,,,,,,,,,,,,,,,,,,,,
,,,,,,,,3,2021-04-11_17h04.41.025,premceCat2_ses-02_part-02_label-phase2,2020.2.10,Win32,60,space,7.52395,space,7.692845,right,3.62573,1,1.627655,0,0,0,105,1,stimuli/objects/videocamera01a.jpg,left,old,106,,,,,,,,,,,,,,,
,,,,,,,,3,2021-04-11_17h04.41.025,premceCat2_ses-02_part-02_label-phase2,2020.2.10,Win32,60,,,,,left,1.50011,3,2.021765,,,,,,,,,,left,1.335675,0,0,0,0,1,,,,,,,,
,,,,,,,,3,2021-04-11_17h04.41.025,premceCat2_ses-02_part-02_label-phase2,2020.2.10,Win32,60,,,,,,,,,0,1,1,139,1,stimuli/objects/frisbee.jpg,right,new,140,,,,,,,,,,,,,,,
,,,,,,,,3,2021-04-11_17h04.41.025,premceCat2_ses-02_part-02_label-phase2,2020.2.10,Win32,60,,,,,left,1.75307,4,2.20382,,,,,,,,,,right,3.074385,0,0,0,0,1,,,,,,,,
,,,,,,,,3,2021-04-11_17h04.41.025,premceCat2_ses-02_part-02_label-phase2,2020.2.10,Win32,60,,,,,,,,,0,2,2,101,1,stimuli/objects/chandelier.jpg,left,old,102,,,,,,,,,,,,,,,
,,,,,,,,3,2021-04-11_17h04.41.025,premceCat2_ses-02_part-02_label-phase2,2020.2.10,Win32,60,,,,,left,2.996295,2,1.63656,,,,,,,,,,left,0.87296,0,0,0,0,1,,,,,,,,
,,,,,,,,3,2021-04-11_17h04.41.025,premceCat2_ses-02_part-02_label-phase2,2020.2.10,Win32,60,,,,,,,,,0,3,3,109,1,stimuli/objects/winerack.jpg,right,new,110,,,,,,,,,,,,,,,
,,,,,,,,3,2021-04-11_17h04.41.025,premceCat2_ses-02_part-02_label-phase2,2020.2.10,Win32,60,,,,,left,2.025785,3,1.538945,,,,,,,,,,right,1.182235,0,0,0,0,1,,,,,,,,
,,,,,,,,3,2021-04-11_17h04.41.025,premceCat2_ses-02_part-02_label-phase2,2020.2.10,Win32,60,,,,,,,,,0,4,4,106,1,stimuli/objects/minifridge.jpg,right,new,107,,,,,,,,,,,,,,,
,,,,,,,,3,2021-04-11_17h04.41.025,premceCat2_ses-02_part-02_label-phase2,2020.2.10,Win32,60,,,,,left,1.39697,4,2.829905,,,,,,,,,,left,0.8117,0,0,0,0,1,,,,,,,,
,,,,,,,,3,2021-04-11_17h04.41.025,premceCat2_ses-02_part-02_label-phase2,2020.2.10,Win32,60,,,,,,,,,0,5,5,35,1,stimuli/objects/crocodileclips.jpg,left,old,36,,,,,,,,,,,,,,,
,,,,,,,,3,2021-04-11_17h04.41.025,premceCat2_ses-02_part-02_label-phase2,2020.2.10,Win32,60,,,,,left,1.314725,4,0.90086,,,,,,,,,,left,0.77281,0,0,0,0,1,,,,,,,,
,,,,,,,,3,2021-04-11_17h04.41.025,premceCat2_ses-02_part-02_label-phase2,2020.2.10,Win32,60,,,,,,,,,0,6,6,3,1,stimuli/objects/dishrack.jpg,left,old,4,,,,,,,,,,,,,,,
,,,,,,,,3,2021-04-11_17h04.41.025,premceCat2_ses-02_part-02_label-phase2,2020.2.10,Win32,60,,,,,right,3.949255,4,0.436505,0,7,7,33,1,stimuli/objects/microwave.jpg,right,new,34,,,,,,,,,,,,,,,
,,,,,,,,3,2021-04-11_17h04.41.025,premceCat2_ses-02_part-02_label-phase2,2020.2.10,Win32,60,,,,,right,1.444945,1,0.66271,0,8,8,22,1,stimuli/objects/umbrella04.jpg,right,new,23,,,,,,,,,,,,,,,
,,,,,,,,3,2021-04-11_17h04.41.025,premceCat2_ses-02_part-02_label-phase2,2020.2.10,Win32,60,,,,,right,2.21559,4,0.755955,0,9,9,72,1,stimuli/objects/cclamp.jpg,right,new,73,,,,,,,,,,,,,,,
,,,,,,,,3,2021-04-11_17h04.41.025,premceCat2_ses-02_part-02_label-phase2,2020.2.10,Win32,60,,,,,left,3.35955,2,2.848675,,,,,,,,,,right,0.66076,0,0,0,0,1,,,,,,,,
,,,,,,,,3,2021-04-11_17h04.41.025,premceCat2_ses-02_part-02_label-phase2,2020.2.10,Win32,60,,,,,,,,,0,10,10,81,1,stimuli/objects/avcable.jpg,right,new,82,,,,,,,,,,,,,,,
,,,,,,,,3,2021-04-11_17h04.41.025,premceCat2_ses-02_part-02_label-phase2,2020.2.10,Win32,60,,,,,left,1.10337,4,0.99858,,,,,,,,,,left,0.819905,0,0,0,0,1,,,,,,,,
,,,,,,,,3,2021-04-11_17h04.41.025,premceCat2_ses-02_part-02_label-phase2,2020.2.10,Win32,60,,,,,,,,,0,11,11,37,1,stimuli/objects/bungeecord02.jpg,left,old,38,,,,,,,,,,,,,,,
,,,,,,,,3,2021-04-11_17h04.41.025,premceCat2_ses-02_part-02_label-phase2,2020.2.10,Win32,60,,,,,right,5.37134,4,0.804375,0,12,12,50,1,stimuli/objects/chisel02b.jpg,right,new,51,,,,,,,,,,,,,,,
,,,,,,,,3,2021-04-11_17h04.41.025,premceCat2_ses-02_part-02_label-phase2,2020.2.10,Win32,60,,,,,left,1.545395,1,1.04684,,,,,,,,,,left,0.77798,0,0,0,0,1,,,,,,,,
,,,,,,,,3,2021-04-11_17h04.41.025,premceCat2_ses-02_part-02_label-phase2,2020.2.10,Win32,60,,,,,,,,,0,13,13,142,1,stimuli/objects/spoon01.jpg,left,old,143,,,,,,,,,,,,,,,
,,,,,,,,3,2021-04-11_17h04.41.025,premceCat2_ses-02_part-02_label-phase2,2020.2.10,Win32,60,,,,,left,3.88105,4,1.30542,,,,,,,,,,right,0.83939,0,0,0,0,1,,,,,,,,
,,,,,,,,3,2021-04-11_17h04.41.025,premceCat2_ses-02_part-02_label-phase2,2020.2.10,Win32,60,,,,,,,,,0,14,14,79,1,stimuli/objects/dvdplayer.jpg,left,old,80,,,,,,,,,,,,,,,
,,,,,,,,3,2021-04-11_17h04.41.025,premceCat2_ses-02_part-02_label-phase2,2020.2.10,Win32,60,,,,,right,2.17748,1,1.286235,0,15,15,9,1,stimuli/objects/measuringtape01.jpg,right,new,10,,,,,,,,,,,,,,,
,,,,,,,,3,2021-04-11_17h04.41.025,premceCat2_ses-02_part-02_label-phase2,2020.2.10,Win32,60,,,,,left,1.52155,4,1.29433,,,,,,,,,,left,0.81035,0,0,0,0,1,,,,,,,,
,,,,,,,,3,2021-04-11_17h04.41.025,premceCat2_ses-02_part-02_label-phase2,2020.2.10,Win32,60,,,,,,,,,0,16,16,99,1,stimuli/objects/snowblower.jpg,left,old,100,,,,,,,,,,,,,,,
,,,,,,,,3,2021-04-11_17h04.41.025,premceCat2_ses-02_part-02_label-phase2,2020.2.10,Win32,60,,,,,left,2.30785,3,1.18449,,,,,,,,,,right,2.12251,0,0,0,0,1,,,,,,,,
,,,,,,,,3,2021-04-11_17h04.41.025,premceCat2_ses-02_part-02_label-phase2,2020.2.10,Win32,60,,,,,,,,,0,17,17,75,1,stimuli/objects/stepladder.jpg,right,new,76,,,,,,,,,,,,,,,
,,,,,,,,3,2021-04-11_17h04.41.025,premceCat2_ses-02_part-02_label-phase2,2020.2.10,Win32,60,,,,,right,4.18463,1,1.191205,0,18,18,121,1,stimuli/objects/ceilingspeaker.jpg,right,new,122,,,,,,,,,,,,,,,
,,,,,,,,3,2021-04-11_17h04.41.025,premceCat2_ses-02_part-02_label-phase2,2020.2.10,Win32,60,,,,,right,3.84362,1,0.84319,0,19,19,92,1,stimuli/objects/carjack.jpg,right,new,93,,,,,,,,,,,,,,,
,,,,,,,,3,2021-04-11_17h04.41.025,premceCat2_ses-02_part-02_label-phase2,2020.2.10,Win32,60,,,,,left,2.30921,1,1.146395,,,,,,,,,,right,1.105795,0,0,0,0,1,,,,,,,,
,,,,,,,,3,2021-04-11_17h04.41.025,premceCat2_ses-02_part-02_label-phase2,2020.2.10,Win32,60,,,,,,,,,0,20,20,96,1,stimuli/objects/golfbag.jpg,right,new,97,,,,,,,,,,,,,,,
,,,,,,,,3,2021-04-11_17h04.41.025,premceCat2_ses-02_part-02_label-phase2,2020.2.10,Win32,60,,,,,left,1.147145,4,1.359125,,,,,,,,,,left,0.928435,0,0,0,0,1,,,,,,,,
,,,,,,,,3,2021-04-11_17h04.41.025,premceCat2_ses-02_part-02_label-phase2,2020.2.10,Win32,60,,,,,,,,,0,21,21,45,1,stimuli/objects/aluminiumfoil.jpg,left,old,46,,,,,,,,,,,,,,,
,,,,,,,,3,2021-04-11_17h04.41.025,premceCat2_ses-02_part-02_label-phase2,2020.2.10,Win32,60,,,,,left,1.67874,3,1.177415,,,,,,,,,,left,1.009425,0,0,0,0,1,,,,,,,,
,,,,,,,,3,2021-04-11_17h04.41.025,premceCat2_ses-02_part-02_label-phase2,2020.2.10,Win32,60,,,,,,,,,0,22,22,53,1,stimuli/objects/binoculars01b.jpg,right,new,54,,,,,,,,,,,,,,,
,,,,,,,,3,2021-04-11_17h04.41.025,premceCat2_ses-02_part-02_label-phase2,2020.2.10,Win32,60,,,,,right,1.349945,2,1.051685,0,23,23,111,1,stimuli/objects/speaker04.jpg,right,new,112,,,,,,,,,,,,,,,
,,,,,,,,3,2021-04-11_17h04.41.025,premceCat2_ses-02_part-02_label-phase2,2020.2.10,Win32,60,,,,,right,3.05854,3,2.46739,0,24,24,94,1,stimuli/objects/electricmixer.jpg,right,new,95,,,,,,,,,,,,,,,
,,,,,,,,3,2021-04-11_17h04.41.025,premceCat2_ses-02_part-02_label-phase2,2020.2.10,Win32,60,,,,,left,1.17849,3,1.511205,,,,,,,,,,left,0.56197,0,0,0,0,1,,,,,,,,
,,,,,,,,3,2021-04-11_17h04.41.025,premceCat2_ses-02_part-02_label-phase2,2020.2.10,Win32,60,,,,,,,,,0,25,25,78,1,stimuli/objects/tupperware03a.jpg,left,old,79,,,,,,,,,,,,,,,
,,,,,,,,3,2021-04-11_17h04.41.025,premceCat2_ses-02_part-02_label-phase2,2020.2.10,Win32,60,,,,,left,1.474835,4,0.86874,,,,,,,,,,right,0.683965,0,0,0,0,1,,,,,,,,
,,,,,,,,3,2021-04-11_17h04.41.025,premceCat2_ses-02_part-02_label-phase2,2020.2.10,Win32,60,,,,,,,,,0,26,26,115,1,stimuli/objects/pipewrench.jpg,left,old,116,,,,,,,,,,,,,,,
,,,,,,,,3,2021-04-11_17h04.41.025,premceCat2_ses-02_part-02_label-phase2,2020.2.10,Win32,60,,,,,left,1.226945,4,0.90072,,,,,,,,,,right,0.376175,0,0,0,0,1,,,,,,,,
,,,,,,,,3,2021-04-11_17h04.41.025,premceCat2_ses-02_part-02_label-phase2,2020.2.10,Win32,60,,,,,,,,,0,27,27,138,1,stimuli/objects/taperecorder.jpg,right,new,139,,,,,,,,,,,,,,,
,,,,,,,,3,2021-04-11_17h04.41.025,premceCat2_ses-02_part-02_label-phase2,2020.2.10,Win32,60,,,,,left,1.41365,4,0.833695,,,,,,,,,,right,0.44022,0,0,0,0,1,,,,,,,,
,,,,,,,,3,2021-04-11_17h04.41.025,premceCat2_ses-02_part-02_label-phase2,2020.2.10,Win32,60,,,,,,,,,0,28,28,118,1,stimuli/objects/sledgehammer.jpg,left,old,119,,,,,,,,,,,,,,,
,,,,,,,,3,2021-04-11_17h04.41.025,premceCat2_ses-02_part-02_label-phase2,2020.2.10,Win32,60,,,,,left,1.02205,3,1.03716,,,,,,,,,,right,0.481245,0,0,0,0,1,,,,,,,,
,,,,,,,,3,2021-04-11_17h04.41.025,premceCat2_ses-02_part-02_label-phase2,2020.2.10,Win32,60,,,,,,,,,0,29,29,0,1,stimuli/objects/ethernetcable02.jpg,left,old,1,,,,,,,,,,,,,,,
,,,,,,,,3,2021-04-11_17h04.41.025,premceCat2_ses-02_part-02_label-phase2,2020.2.10,Win32,60,,,,,left,0.851925,3,1.55939,,,,,,,,,,left,2.808985,0,0,0,0,1,,,,,,,,
,,,,,,,,3,2021-04-11_17h04.41.025,premceCat2_ses-02_part-02_label-phase2,2020.2.10,Win32,60,,,,,,,,,0,30,30,28,1,stimuli/objects/anchor.jpg,left,old,29,,,,,,,,,,,,,,,
,,,,,,,,3,2021-04-11_17h04.41.025,premceCat2_ses-02_part-02_label-phase2,2020.2.10,Win32,60,,,,,left,1.33446,4,0.505525,,,,,,,,,,right,0.65912,0,0,0,0,1,,,,,,,,
,,,,,,,,3,2021-04-11_17h04.41.025,premceCat2_ses-02_part-02_label-phase2,2020.2.10,Win32,60,,,,,,,,,0,31,31,10,1,stimuli/objects/dvdcase01.jpg,left,old,11,,,,,,,,,,,,,,,
,,,,,,,,3,2021-04-11_17h04.41.025,premceCat2_ses-02_part-02_label-phase2,2020.2.10,Win32,60,,,,,right,2.693265,3,2.720265,0,32,32,63,1,stimuli/objects/butterdish.jpg,right,new,64,,,,,,,,,,,,,,,
,,,,,,,,3,2021-04-11_17h04.41.025,premceCat2_ses-02_part-02_label-phase2,2020.2.10,Win32,60,,,,,right,2.05905,4,1.776615,0,33,33,49,1,stimuli/objects/volleyball.jpg,left,old,50,,,,,,,,,,,,,,,
,,,,,,,,3,2021-04-11_17h04.41.025,premceCat2_ses-02_part-02_label-phase2,2020.2.10,Win32,60,,,,,left,1.17199,4,1.24457,,,,,,,,,,left,2.348035,0,0,0,0,1,,,,,,,,
,,,,,,,,3,2021-04-11_17h04.41.025,premceCat2_ses-02_part-02_label-phase2,2020.2.10,Win32,60,,,,,,,,,0,34,34,40,1,stimuli/objects/wateringcan.jpg,left,old,41,,,,,,,,,,,,,,,
,,,,,,,,3,2021-04-11_17h04.41.025,premceCat2_ses-02_part-02_label-phase2,2020.2.10,Win32,60,,,,,left,1.225645,4,0.731275,,,,,,,,,,right,0.73492,0,0,0,0,1,,,,,,,,
,,,,,,,,3,2021-04-11_17h04.41.025,premceCat2_ses-02_part-02_label-phase2,2020.2.10,Win32,60,,,,,,,,,0,35,35,1,1,stimuli/objects/photocopier.jpg,left,old,2,,,,,,,,,,,,,,,
,,,,,,,,3,2021-04-11_17h04.41.025,premceCat2_ses-02_part-02_label-phase2,2020.2.10,Win32,60,,,,,left,1.06005,4,0.98068,,,,,,,,,,right,0.48344,0,0,0,0,1,,,,,,,,
,,,,,,,,3,2021-04-11_17h04.41.025,premceCat2_ses-02_part-02_label-phase2,2020.2.10,Win32,60,,,,,,,,,0,36,36,44,1,stimuli/objects/pliers02b.jpg,left,old,45,,,,,,,,,,,,,,,
,,,,,,,,3,2021-04-11_17h04.41.025,premceCat2_ses-02_part-02_label-phase2,2020.2.10,Win32,60,,,,,right,2.551425,1,0.845805,0,37,37,26,1,stimuli/objects/boogieboard.jpg,right,new,27,,,,,,,,,,,,,,,
,,,,,,,,3,2021-04-11_17h04.41.025,premceCat2_ses-02_part-02_label-phase2,2020.2.10,Win32,60,,,,,left,0.941755,4,0.84564,,,,,,,,,,left,0.45774,0,0,0,0,1,,,,,,,,
,,,,,,,,3,2021-04-11_17h04.41.025,premceCat2_ses-02_part-02_label-phase2,2020.2.10,Win32,60,,,,,,,,,0,38,38,58,1,stimuli/objects/toyhardhat.jpg,left,old,59,,,,,,,,,,,,,,,
,,,,,,,,3,2021-04-11_17h04.41.025,premceCat2_ses-02_part-02_label-phase2,2020.2.10,Win32,60,,,,,right,1.262185,2,1.44319,0,39,39,116,1,stimuli/objects/radio01.jpg,right,new,117,,,,,,,,,,,,,,,
,,,,,,,,3,2021-04-11_17h04.41.025,premceCat2_ses-02_part-02_label-phase2,2020.2.10,Win32,60,,,,,left,3.01557,1,0.824355,,,,,,,,,,left,0.303535,0,0,0,0,1,,,,,,,,
,,,,,,,,3,2021-04-11_17h04.41.025,premceCat2_ses-02_part-02_label-phase2,2020.2.10,Win32,60,,,,,,,,,0,40,40,64,1,stimuli/objects/knifesharpener.jpg,left,old,65,,,,,,,,,,,,,,,
,,,,,,,,3,2021-04-11_17h04.41.025,premceCat2_ses-02_part-02_label-phase2,2020.2.10,Win32,60,,,,,right,1.608565,1,0.92861,0,41,41,126,1,stimuli/objects/tableknife02.jpg,right,new,127,,,,,,,,,,,,,,,
,,,,,,,,3,2021-04-11_17h04.41.025,premceCat2_ses-02_part-02_label-phase2,2020.2.10,Win32,60,,,,,left,1.3894,4,0.83586,,,,,,,,,,left,0.343765,0,0,0,0,1,,,,,,,,
,,,,,,,,3,2021-04-11_17h04.41.025,premceCat2_ses-02_part-02_label-phase2,2020.2.10,Win32,60,,,,,,,,,0,42,42,114,1,stimuli/objects/butterknife.jpg,left,old,115,,,,,,,,,,,,,,,
,,,,,,,,3,2021-04-11_17h04.41.025,premceCat2_ses-02_part-02_label-phase2,2020.2.10,Win32,60,,,,,left,4.821025,1,1.20913,,,,,,,,,,left,0.56835,0,0,0,0,1,,,,,,,,
,,,,,,,,3,2021-04-11_17h04.41.025,premceCat2_ses-02_part-02_label-phase2,2020.2.10,Win32,60,,,,,,,,,0,43,43,119,1,stimuli/objects/tongs01b.jpg,right,new,120,,,,,,,,,,,,,,,
,,,,,,,,3,2021-04-11_17h04.41.025,premceCat2_ses-02_part-02_label-phase2,2020.2.10,Win32,60,,,,,left,1.187235,2,1.23384,,,,,,,,,,right,0.43123,0,0,0,0,1,,,,,,,,
,,,,,,,,3,2021-04-11_17h04.41.025,premceCat2_ses-02_part-02_label-phase2,2020.2.10,Win32,60,,,,,,,,,0,44,44,97,1,stimuli/objects/coffeemachine.jpg,left,old,98,,,,,,,,,,,,,,,
,,,,,,,,3,2021-04-11_17h04.41.025,premceCat2_ses-02_part-02_label-phase2,2020.2.10,Win32,60,,,,,left,1.03463,3,1.02113,,,,,,,,,,left,0.44635,0,0,0,0,1,,,,,,,,
,,,,,,,,3,2021-04-11_17h04.41.025,premceCat2_ses-02_part-02_label-phase2,2020.2.10,Win32,60,,,,,,,,,0,45,45,74,1,stimuli/objects/toyhockeystick01.jpg,left,old,75,,,,,,,,,,,,,,,
,,,,,,,,3,2021-04-11_17h04.41.025,premceCat2_ses-02_part-02_label-phase2,2020.2.10,Win32,60,,,,,left,6.05929,1,0.77019,,,,,,,,,,right,0.26309,0,0,0,0,1,,,,,,,,
,,,,,,,,3,2021-04-11_17h04.41.025,premceCat2_ses-02_part-02_label-phase2,2020.2.10,Win32,60,,,,,,,,,0,46,46,133,1,stimuli/objects/icebucket.jpg,right,new,134,,,,,,,,,,,,,,,
,,,,,,,,3,2021-04-11_17h04.41.025,premceCat2_ses-02_part-02_label-phase2,2020.2.10,Win32,60,,,,,right,1.51414,1,0.82849,0,47,47,134,1,stimuli/objects/screwdriver04b.jpg,right,new,135,,,,,,,,,,,,,,,
,,,,,,,,3,2021-04-11_17h04.41.025,premceCat2_ses-02_part-02_label-phase2,2020.2.10,Win32,60,,,,,left,1.07517,4,0.61506,,,,,,,,,,left,0.351595,0,0,0,0,1,,,,,,,,
,,,,,,,,3,2021-04-11_17h04.41.025,premceCat2_ses-02_part-02_label-phase2,2020.2.10,Win32,60,,,,,,,,,0,48,48,120,1,stimuli/objects/pot01.jpg,left,old,121,,,,,,,,,,,,,,,
,,,,,,,,3,2021-04-11_17h04.41.025,premceCat2_ses-02_part-02_label-phase2,2020.2.10,Win32,60,,,,,right,2.022445,2,1.17983,0,49,49,71,1,stimuli/objects/faxmachine.jpg,right,new,72,,,,,,,,,,,,,,,
,,,,,,,,3,2021-04-11_17h04.41.025,premceCat2_ses-02_part-02_label-phase2,2020.2.10,Win32,60,,,,,left,1.305395,3,1.420625,,,,,,,,,,left,4.28048,0,0,0,0,1,,,,,,,,
,,,,,,,,3,2021-04-11_17h04.41.025,premceCat2_ses-02_part-02_label-phase2,2020.2.10,Win32,60,,,,,,,,,0,50,50,135,1,stimuli/objects/pressurewasher.jpg,left,old,136,,,,,,,,,,,,,,,
,,,,,,,,3,2021-04-11_17h04.41.025,premceCat2_ses-02_part-02_label-phase2,2020.2.10,Win32,60,,,,,right,4.32341,4,0.77853,0,51,51,51,1,stimuli/objects/webcam.jpg,right,new,52,,,,,,,,,,,,,,,
,,,,,,,,3,2021-04-11_17h04.41.025,premceCat2_ses-02_part-02_label-phase2,2020.2.10,Win32,60,,,,,left,1.542545,3,1.07946,,,,,,,,,,left,1.225145,0,0,0,0,1,,,,,,,,
,,,,,,,,3,2021-04-11_17h04.41.025,premceCat2_ses-02_part-02_label-phase2,2020.2.10,Win32,60,,,,,,,,,0,52,52,93,1,stimuli/objects/icepack.jpg,right,new,94,,,,,,,,,,,,,,,
,,,,,,,,3,2021-04-11_17h04.41.025,premceCat2_ses-02_part-02_label-phase2,2020.2.10,Win32,60,,,,,left,3.55395,1,1.21594,,,,,,,,,,right,1.607515,0,0,0,0,1,,,,,,,,
,,,,,,,,3,2021-04-11_17h04.41.025,premceCat2_ses-02_part-02_label-phase2,2020.2.10,Win32,60,,,,,,,,,0,53,53,136,1,stimuli/objects/battery02b.jpg,right,new,137,,,,,,,,,,,,,,,
,,,,,,,,3,2021-04-11_17h04.41.025,premceCat2_ses-02_part-02_label-phase2,2020.2.10,Win32,60,,,,,left,2.30055,4,0.345245,,,,,,,,,,left,2.15066,0,0,0,0,1,,,,,,,,
,,,,,,,,3,2021-04-11_17h04.41.025,premceCat2_ses-02_part-02_label-phase2,2020.2.10,Win32,60,,,,,,,,,0,54,54,124,1,stimuli/objects/reflector.jpg,left,old,125,,,,,,,,,,,,,,,
,,,,,,,,3,2021-04-11_17h04.41.025,premceCat2_ses-02_part-02_label-phase2,2020.2.10,Win32,60,,,,,right,1.58178,1,1.01064,0,55,55,90,1,stimuli/objects/carlighter02.jpg,right,new,91,,,,,,,,,,,,,,,
,,,,,,,,3,2021-04-11_17h04.41.025,premceCat2_ses-02_part-02_label-phase2,2020.2.10,Win32,60,,,,,left,1.160095,4,0.286375,,,,,,,,,,right,1.854195,0,0,0,0,1,,,,,,,,
,,,,,,,,3,2021-04-11_17h04.41.025,premceCat2_ses-02_part-02_label-phase2,2020.2.10,Win32,60,,,,,,,,,0,56,56,5,1,stimuli/objects/fan.jpg,left,old,6,,,,,,,,,,,,,,,
,,,,,,,,3,2021-04-11_17h04.41.025,premceCat2_ses-02_part-02_label-phase2,2020.2.10,Win32,60,,,,,left,1.59242,4,0.27731,,,,,,,,,,left,0.25172,0,0,0,0,1,,,,,,,,
,,,,,,,,3,2021-04-11_17h04.41.025,premceCat2_ses-02_part-02_label-phase2,2020.2.10,Win32,60,,,,,,,,,0,57,57,27,1,stimuli/objects/baseballglove.jpg,left,old,28,,,,,,,,,,,,,,,
,,,,,,,,3,2021-04-11_17h04.41.025,premceCat2_ses-02_part-02_label-phase2,2020.2.10,Win32,60,,,,,right,1.68476,1,0.673015,0,58,58,30,1,stimuli/objects/printer02.jpg,right,new,31,,,,,,,,,,,,,,,
,,,,,,,,3,2021-04-11_17h04.41.025,premceCat2_ses-02_part-02_label-phase2,2020.2.10,Win32,60,,,,,left,0.979395,4,0.21283,,,,,,,,,,left,0.467135,0,0,0,0,1,,,,,,,,
,,,,,,,,3,2021-04-11_17h04.41.025,premceCat2_ses-02_part-02_label-phase2,2020.2.10,Win32,60,,,,,,,,,0,59,59,129,1,stimuli/objects/cleaver01.jpg,left,old,130,,,,,,,,,,,,,,,
,,,,,,,,3,2021-04-11_17h04.41.025,premceCat2_ses-02_part-02_label-phase2,2020.2.10,Win32,60,,,,,right,2.072075,1,1.11857,0,60,60,113,1,stimuli/objects/powercable.jpg,right,new,114,,,,,,,,,,,,,,,
,,,,,,,,3,2021-04-11_17h04.41.025,premceCat2_ses-02_part-02_label-phase2,2020.2.10,Win32,60,,,,,right,1.756475,1,0.868005,0,61,61,88,1,stimuli/objects/measuringcup01.jpg,left,old,89,,,,,,,,,,,,,,,
,,,,,,,,3,2021-04-11_17h04.41.025,premceCat2_ses-02_part-02_label-phase2,2020.2.10,Win32,60,,,,,right,1.2045,3,1.18557,0,62,62,24,1,stimuli/objects/skateboard.jpg,right,new,25,,,,,,,,,,,,,,,
,,,,,,,,3,2021-04-11_17h04.41.025,premceCat2_ses-02_part-02_label-phase2,2020.2.10,Win32,60,,,,,left,1.23036,3,0.960365,,,,,,,,,,left,1.459255,0,0,0,0,1,,,,,,,,
,,,,,,,,3,2021-04-11_17h04.41.025,premceCat2_ses-02_part-02_label-phase2,2020.2.10,Win32,60,,,,,,,,,0,63,63,83,1,stimuli/objects/kitchenscale01a.jpg,right,new,84,,,,,,,,,,,,,,,
,,,,,,,,3,2021-04-11_17h04.41.025,premceCat2_ses-02_part-02_label-phase2,2020.2.10,Win32,60,,,,,right,1.60007,1,0.752945,0,64,64,21,1,stimuli/objects/paintbrush01.jpg,right,new,22,,,,,,,,,,,,,,,
,,,,,,,,3,2021-04-11_17h04.41.025,premceCat2_ses-02_part-02_label-phase2,2020.2.10,Win32,60,,,,,left,0.926165,4,0.27266,,,,,,,,,,right,0.923845,0,0,0,0,1,,,,,,,,
,,,,,,,,3,2021-04-11_17h04.41.025,premceCat2_ses-02_part-02_label-phase2,2020.2.10,Win32,60,,,,,,,,,0,65,65,2,1,stimuli/objects/filmnegative.jpg,left,old,3,,,,,,,,,,,,,,,
,,,,,,,,3,2021-04-11_17h04.41.025,premceCat2_ses-02_part-02_label-phase2,2020.2.10,Win32,60,,,,,left,1.76026,4,0.882235,,,,,,,,,,right,1.70994,0,0,0,0,1,,,,,,,,
,,,,,,,,3,2021-04-11_17h04.41.025,premceCat2_ses-02_part-02_label-phase2,2020.2.10,Win32,60,,,,,,,,,0,66,66,16,1,stimuli/objects/stubbywrench01a.jpg,left,old,17,,,,,,,,,,,,,,,
,,,,,,,,3,2021-04-11_17h04.41.025,premceCat2_ses-02_part-02_label-phase2,2020.2.10,Win32,60,,,,,left,1.118185,4,0.509265,,,,,,,,,,right,0.27069,0,0,0,0,1,,,,,,,,
,,,,,,,,3,2021-04-11_17h04.41.025,premceCat2_ses-02_part-02_label-phase2,2020.2.10,Win32,60,,,,,,,,,0,67,67,95,1,stimuli/objects/lectern01.jpg,left,old,96,,,,,,,,,,,,,,,
,,,,,,,,3,2021-04-11_17h04.41.025,premceCat2_ses-02_part-02_label-phase2,2020.2.10,Win32,60,,,,,right,2.27918,1,0.92978,0,68,68,46,1,stimuli/objects/walkman.jpg,right,new,47,,,,,,,,,,,,,,,
,,,,,,,,3,2021-04-11_17h04.41.025,premceCat2_ses-02_part-02_label-phase2,2020.2.10,Win32,60,,,,,left,4.73431,3,0.771565,,,,,,,,,,left,0.760665,0,0,0,0,1,,,,,,,,
,,,,,,,,3,2021-04-11_17h04.41.025,premceCat2_ses-02_part-02_label-phase2,2020.2.10,Win32,60,,,,,,,,,0,69,69,14,1,stimuli/objects/wheelbarrow01.jpg,left,old,15,,,,,,,,,,,,,,,
,,,,,,,,3,2021-04-11_17h04.41.025,premceCat2_ses-02_part-02_label-phase2,2020.2.10,Win32,60,,,,,left,1.100245,4,0.28283,,,,,,,,,,left,0.257665,0,0,0,0,1,,,,,,,,
,,,,,,,,3,2021-04-11_17h04.41.025,premceCat2_ses-02_part-02_label-phase2,2020.2.10,Win32,60,,,,,,,,,0,70,70,107,1,stimuli/objects/canister.jpg,left,old,108,,,,,,,,,,,,,,,
,,,,,,,,3,2021-04-11_17h04.41.025,premceCat2_ses-02_part-02_label-phase2,2020.2.10,Win32,60,,,,,left,0.841365,4,0.529465,,,,,,,,,,right,0.347245,0,0,0,0,1,,,,,,,,
,,,,,,,,3,2021-04-11_17h04.41.025,premceCat2_ses-02_part-02_label-phase2,2020.2.10,Win32,60,,,,,,,,,0,71,71,7,1,stimuli/objects/puttyknife.jpg,left,old,8,,,,,,,,,,,,,,,
,,,,,,,,3,2021-04-11_17h04.41.025,premceCat2_ses-02_part-02_label-phase2,2020.2.10,Win32,60,,,,,right,1.113905,2,1.336515,0,72,72,18,1,stimuli/objects/cashregister01.jpg,right,new,19,,,,,,,,,,,,,,,
,,,,,,,,3,2021-04-11_17h04.41.025,premceCat2_ses-02_part-02_label-phase2,2020.2.10,Win32,60,,,,,left,1.846885,4,1.71986,,,,,,,,,,right,0.69156,0,0,0,0,1,,,,,,,,
,,,,,,,,3,2021-04-11_17h04.41.025,premceCat2_ses-02_part-02_label-phase2,2020.2.10,Win32,60,,,,,,,,,0,73,73,54,1,stimuli/objects/pda.jpg,right,new,55,,,,,,,,,,,,,,,
,,,,,,,,3,2021-04-11_17h04.41.025,premceCat2_ses-02_part-02_label-phase2,2020.2.10,Win32,60,,,,,left,1.405295,3,1.030825,,,,,,,,,,left,1.15637,0,0,0,0,1,,,,,,,,
,,,,,,,,3,2021-04-11_17h04.41.025,premceCat2_ses-02_part-02_label-phase2,2020.2.10,Win32,60,,,,,,,,,0,74,74,17,1,stimuli/objects/exercisebench.jpg,right,new,18,,,,,,,,,,,,,,,
,,,,,,,,3,2021-04-11_17h04.41.025,premceCat2_ses-02_part-02_label-phase2,2020.2.10,Win32,60,,,,,right,1.57179,2,0.63677,0,75,75,132,1,stimuli/objects/djmixer02.jpg,left,old,133,,,,,,,,,,,,,,,
,,,,,,,,3,2021-04-11_17h04.41.025,premceCat2_ses-02_part-02_label-phase2,2020.2.10,Win32,60,,,,,right,1.05004,3,1.23858,0,76,76,76,1,stimuli/objects/megaphone.jpg,right,new,77,,,,,,,,,,,,,,,
,,,,,,,,3,2021-04-11_17h04.41.025,premceCat2_ses-02_part-02_label-phase2,2020.2.10,Win32,60,,,,,left,3.06905,1,0.92537,,,,,,,,,,right,0.83649,0,0,0,0,1,,,,,,,,
,,,,,,,,3,2021-04-11_17h04.41.025,premceCat2_ses-02_part-02_label-phase2,2020.2.10,Win32,60,,,,,,,,,0,77,77,102,1,stimuli/objects/propanetank01.jpg,left,old,103,,,,,,,,,,,,,,,
,,,,,,,,3,2021-04-11_17h04.41.025,premceCat2_ses-02_part-02_label-phase2,2020.2.10,Win32,60,,,,,left,1.642425,3,0.76584,,,,,,,,,,right,0.361885,0,0,0,0,1,,,,,,,,
,,,,,,,,3,2021-04-11_17h04.41.025,premceCat2_ses-02_part-02_label-phase2,2020.2.10,Win32,60,,,,,,,,,0,78,78,122,1,stimuli/objects/extensioncord.jpg,left,old,123,,,,,,,,,,,,,,,
,,,,,,,,3,2021-04-11_17h04.41.025,premceCat2_ses-02_part-02_label-phase2,2020.2.10,Win32,60,,,,,right,2.509825,2,1.088715,0,79,79,110,1,stimuli/objects/lock03a.jpg,right,new,111,,,,,,,,,,,,,,,
,,,,,,,,3,2021-04-11_17h04.41.025,premceCat2_ses-02_part-02_label-phase2,2020.2.10,Win32,60,,,,,left,1.145825,4,0.83096,,,,,,,,,,left,1.10038,0,0,0,0,1,,,,,,,,
,,,,,,,,3,2021-04-11_17h04.41.025,premceCat2_ses-02_part-02_label-phase2,2020.2.10,Win32,60,,,,,,,,,0,80,80,67,1,stimuli/objects/bikelock.jpg,left,old,68,,,,,,,,,,,,,,,
,,,,,,,,3,2021-04-11_17h04.41.025,premceCat2_ses-02_part-02_label-phase2,2020.2.10,Win32,60,,,,,left,1.07887,4,0.44997,,,,,,,,,,left,0.2085,0,0,0,0,1,,,,,,,,
,,,,,,,,3,2021-04-11_17h04.41.025,premceCat2_ses-02_part-02_label-phase2,2020.2.10,Win32,60,,,,,,,,,0,81,81,103,1,stimuli/objects/towel01.jpg,left,old,104,,,,,,,,,,,,,,,
,,,,,,,,3,2021-04-11_17h04.41.025,premceCat2_ses-02_part-02_label-phase2,2020.2.10,Win32,60,,,,,right,4.60821,3,0.62741,0,82,82,57,1,stimuli/objects/audiocablesplitter.jpg,right,new,58,,,,,,,,,,,,,,,
,,,,,,,,3,2021-04-11_17h04.41.025,premceCat2_ses-02_part-02_label-phase2,2020.2.10,Win32,60,,,,,left,2.900765,1,1.273395,,,,,,,,,,left,0.72892,0,0,0,0,1,,,,,,,,
,,,,,,,,3,2021-04-11_17h04.41.025,premceCat2_ses-02_part-02_label-phase2,2020.2.10,Win32,60,,,,,,,,,0,83,83,125,1,stimuli/objects/shoulderpad.jpg,right,new,126,,,,,,,,,,,,,,,
,,,,,,,,3,2021-04-11_17h04.41.025,premceCat2_ses-02_part-02_label-phase2,2020.2.10,Win32,60,,,,,left,2.57818,2,1.22837,,,,,,,,,,right,2.06168,0,0,0,0,1,,,,,,,,
,,,,,,,,3,2021-04-11_17h04.41.025,premceCat2_ses-02_part-02_label-phase2,2020.2.10,Win32,60,,,,,,,,,0,84,84,36,1,stimuli/objects/gps.jpg,left,old,37,,,,,,,,,,,,,,,
,,,,,,,,3,2021-04-11_17h04.41.025,premceCat2_ses-02_part-02_label-phase2,2020.2.10,Win32,60,,,,,left,2.333415,1,0.385515,,,,,,,,,,right,0.600995,0,0,0,0,1,,,,,,,,
,,,,,,,,3,2021-04-11_17h04.41.025,premceCat2_ses-02_part-02_label-phase2,2020.2.10,Win32,60,,,,,,,,,0,85,85,56,1,stimuli/objects/thermos.jpg,left,old,57,,,,,,,,,,,,,,,
,,,,,,,,3,2021-04-11_17h04.41.025,premceCat2_ses-02_part-02_label-phase2,2020.2.10,Win32,60,,,,,left,1.909055,1,1.020735,,,,,,,,,,left,0.461325,0,0,0,0,1,,,,,,,,
,,,,,,,,3,2021-04-11_17h04.41.025,premceCat2_ses-02_part-02_label-phase2,2020.2.10,Win32,60,,,,,,,,,0,86,86,84,1,stimuli/objects/hockeypuck.jpg,left,old,85,,,,,,,,,,,,,,,
,,,,,,,,3,2021-04-11_17h04.41.025,premceCat2_ses-02_part-02_label-phase2,2020.2.10,Win32,60,,,,,right,1.79481,1,0.97923,0,87,87,68,1,stimuli/objects/leafblower01.jpg,right,new,69,,,,,,,,,,,,,,,
,,,,,,,,3,2021-04-11_17h04.41.025,premceCat2_ses-02_part-02_label-phase2,2020.2.10,Win32,60,,,,,right,1.53442,3,0.32105,0,88,88,108,1,stimuli/objects/metalscissors.jpg,right,new,109,,,,,,,,,,,,,,,
,,,,,,,,3,2021-04-11_17h04.41.025,premceCat2_ses-02_part-02_label-phase2,2020.2.10,Win32,60,,,,,right,1.03187,1,1.134975,0,89,89,89,1,stimuli/objects/ducttape.jpg,right,new,90,,,,,,,,,,,,,,,
,,,,,,,,3,2021-04-11_17h04.41.025,premceCat2_ses-02_part-02_label-phase2,2020.2.10,Win32,60,,,,,left,1.08312,3,2.15379,,,,,,,,,,right,0.900445,0,0,0,0,1,,,,,,,,
,,,,,,,,3,2021-04-11_17h04.41.025,premceCat2_ses-02_part-02_label-phase2,2020.2.10,Win32,60,,,,,,,,,0,90,90,4,1,stimuli/objects/microphone01.jpg,right,new,5,,,,,,,,,,,,,,,
,,,,,,,,3,2021-04-11_17h04.41.025,premceCat2_ses-02_part-02_label-phase2,2020.2.10,Win32,60,,,,,left,1.21291,3,0.68392,,,,,,,,,,left,0.860235,0,0,0,0,1,,,,,,,,
,,,,,,,,3,2021-04-11_17h04.41.025,premceCat2_ses-02_part-02_label-phase2,2020.2.10,Win32,60,,,,,,,,,0,91,91,47,1,stimuli/objects/hoe.jpg,left,old,48,,,,,,,,,,,,,,,
,,,,,,,,3,2021-04-11_17h04.41.025,premceCat2_ses-02_part-02_label-phase2,2020.2.10,Win32,60,,,,,left,1.02365,1,3.276315,,,,,,,,,,left,0.51561,0,0,0,0,1,,,,,,,,
,,,,,,,,3,2021-04-11_17h04.41.025,premceCat2_ses-02_part-02_label-phase2,2020.2.10,Win32,60,,,,,,,,,0,92,92,130,1,stimuli/objects/soccerball.jpg,left,old,131,,,,,,,,,,,,,,,
,,,,,,,,3,2021-04-11_17h04.41.025,premceCat2_ses-02_part-02_label-phase2,2020.2.10,Win32,60,,,,,right,1.747195,2,1.432785,0,93,93,55,1,stimuli/objects/toolbox02.jpg,right,new,56,,,,,,,,,,,,,,,
,,,,,,,,3,2021-04-11_17h04.41.025,premceCat2_ses-02_part-02_label-phase2,2020.2.10,Win32,60,,,,,left,1.05605,4,1.151695,,,,,,,,,,right,0.626695,0,0,0,0,1,,,,,,,,
,,,,,,,,3,2021-04-11_17h04.41.025,premceCat2_ses-02_part-02_label-phase2,2020.2.10,Win32,60,,,,,,,,,0,94,94,31,1,stimuli/objects/mallet01b.jpg,left,old,32,,,,,,,,,,,,,,,
,,,,,,,,3,2021-04-11_17h04.41.025,premceCat2_ses-02_part-02_label-phase2,2020.2.10,Win32,60,,,,,right,1.46616,3,1.334095,0,95,95,86,1,stimuli/objects/toasteroven.jpg,right,new,87,,,,,,,,,,,,,,,
,,,,,,,,3,2021-04-11_17h04.41.025,premceCat2_ses-02_part-02_label-phase2,2020.2.10,Win32,60,,,,,right,2.472325,1,0.27915,0,96,96,112,1,stimuli/objects/gymnasticring.jpg,right,new,113,,,,,,,,,,,,,,,
,,,,,,,,3,2021-04-11_17h04.41.025,premceCat2_ses-02_part-02_label-phase2,2020.2.10,Win32,60,,,,,left,1.80596,4,0.49381,,,,,,,,,,left,2.530065,0,0,0,0,1,,,,,,,,
,,,,,,,,3,2021-04-11_17h04.41.025,premceCat2_ses-02_part-02_label-phase2,2020.2.10,Win32,60,,,,,,,,,0,97,97,80,1,stimuli/objects/snowman.jpg,right,new,81,,,,,,,,,,,,,,,
,,,,,,,,3,2021-04-11_17h04.41.025,premceCat2_ses-02_part-02_label-phase2,2020.2.10,Win32,60,,,,,right,5.36304,4,1.80655,0,98,98,141,1,stimuli/objects/generator.jpg,right,new,142,,,,,,,,,,,,,,,
,,,,,,,,3,2021-04-11_17h04.41.025,premceCat2_ses-02_part-02_label-phase2,2020.2.10,Win32,60,,,,,right,2.003505,2,1.380975,0,99,99,140,1,stimuli/objects/catchermask.jpg,left,old,141,,,,,,,,,,,,,,,
,,,,,,,,3,2021-04-11_17h04.41.025,premceCat2_ses-02_part-02_label-phase2,2020.2.10,Win32,60,,,,,right,1.019805,4,0.428855,0,100,100,23,1,stimuli/objects/football.jpg,right,new,24,,,,,,,,,,,,,,,
,,,,,,,,3,2021-04-11_17h04.41.025,premceCat2_ses-02_part-02_label-phase2,2020.2.10,Win32,60,,,,,left,1.12584,3,1.821355,,,,,,,,,,right,0.668915,0,0,0,0,1,,,,,,,,
,,,,,,,,3,2021-04-11_17h04.41.025,premceCat2_ses-02_part-02_label-phase2,2020.2.10,Win32,60,,,,,,,,,0,101,101,77,1,stimuli/objects/headphones02b.jpg,left,old,78,,,,,,,,,,,,,,,
,,,,,,,,3,2021-04-11_17h04.41.025,premceCat2_ses-02_part-02_label-phase2,2020.2.10,Win32,60,,,,,left,1.795005,2,1.32883,,,,,,,,,,left,0.258395,0,0,0,0,1,,,,,,,,
,,,,,,,,3,2021-04-11_17h04.41.025,premceCat2_ses-02_part-02_label-phase2,2020.2.10,Win32,60,,,,,,,,,0,102,102,123,1,stimuli/objects/gasburner.jpg,left,old,124,,,,,,,,,,,,,,,
,,,,,,,,3,2021-04-11_17h04.41.025,premceCat2_ses-02_part-02_label-phase2,2020.2.10,Win32,60,,,,,left,2.12529,3,4.16087,,,,,,,,,,left,0.91804,0,0,0,0,1,,,,,,,,
,,,,,,,,3,2021-04-11_17h04.41.025,premceCat2_ses-02_part-02_label-phase2,2020.2.10,Win32,60,,,,,,,,,0,103,103,65,1,stimuli/objects/squeegee01b.jpg,left,old,66,,,,,,,,,,,,,,,
,,,,,,,,3,2021-04-11_17h04.41.025,premceCat2_ses-02_part-02_label-phase2,2020.2.10,Win32,60,,,,,left,1.04692,4,0.363035,,,,,,,,,,left,0.30952,0,0,0,0,1,,,,,,,,
,,,,,,,,3,2021-04-11_17h04.41.025,premceCat2_ses-02_part-02_label-phase2,2020.2.10,Win32,60,,,,,,,,,0,104,104,48,1,stimuli/objects/breadknife.jpg,left,old,49,,,,,,,,,,,,,,,
,,,,,,,,3,2021-04-11_17h04.41.025,premceCat2_ses-02_part-02_label-phase2,2020.2.10,Win32,60,,,,,left,1.426555,4,1.40261,,,,,,,,,,left,0.847795,0,0,0,0,1,,,,,,,,
,,,,,,,,3,2021-04-11_17h04.41.025,premceCat2_ses-02_part-02_label-phase2,2020.2.10,Win32,60,,,,,,,,,0,105,105,52,1,stimuli/objects/spatula04.jpg,left,old,53,,,,,,,,,,,,,,,
,,,,,,,,3,2021-04-11_17h04.41.025,premceCat2_ses-02_part-02_label-phase2,2020.2.10,Win32,60,,,,,right,1.30051,2,1.350475,0,106,106,128,1,stimuli/objects/tripod01.jpg,right,new,129,,,,,,,,,,,,,,,
,,,,,,,,3,2021-04-11_17h04.41.025,premceCat2_ses-02_part-02_label-phase2,2020.2.10,Win32,60,,,,,right,2.313905,4,0.79287,0,107,107,12,1,stimuli/objects/garlicpress02a.jpg,right,new,13,,,,,,,,,,,,,,,
,,,,,,,,3,2021-04-11_17h04.41.025,premceCat2_ses-02_part-02_label-phase2,2020.2.10,Win32,60,,,,,right,2.659705,1,0.316285,0,108,108,13,1,stimuli/objects/bastingbrush.jpg,right,new,14,,,,,,,,,,,,,,,
,,,,,,,,3,2021-04-11_17h04.41.025,premceCat2_ses-02_part-02_label-phase2,2020.2.10,Win32,60,,,,,left,1.450345,4,0.609975,,,,,,,,,,left,0.36274,0,0,0,0,1,,,,,,,,
,,,,,,,,3,2021-04-11_17h04.41.025,premceCat2_ses-02_part-02_label-phase2,2020.2.10,Win32,60,,,,,,,,,0,109,109,70,1,stimuli/objects/martiniglass01b.jpg,left,old,71,,,,,,,,,,,,,,,
,,,,,,,,3,2021-04-11_17h04.41.025,premceCat2_ses-02_part-02_label-phase2,2020.2.10,Win32,60,,,,,right,1.51908,2,1.786465,0,110,110,91,1,stimuli/objects/chainsaw.jpg,left,old,92,,,,,,,,,,,,,,,
,,,,,,,,3,2021-04-11_17h04.41.025,premceCat2_ses-02_part-02_label-phase2,2020.2.10,Win32,60,,,,,left,1.520595,2,1.509825,,,,,,,,,,right,0.3107,0,0,0,0,1,,,,,,,,
,,,,,,,,3,2021-04-11_17h04.41.025,premceCat2_ses-02_part-02_label-phase2,2020.2.10,Win32,60,,,,,,,,,0,111,111,87,1,stimuli/objects/fluorescentlightbulb.jpg,left,old,88,,,,,,,,,,,,,,,
,,,,,,,,3,2021-04-11_17h04.41.025,premceCat2_ses-02_part-02_label-phase2,2020.2.10,Win32,60,,,,,right,1.83766,4,0.953715,0,112,112,20,1,stimuli/objects/laptop01a.jpg,right,new,21,,,,,,,,,,,,,,,
,,,,,,,,3,2021-04-11_17h04.41.025,premceCat2_ses-02_part-02_label-phase2,2020.2.10,Win32,60,,,,,right,1.010015,4,0.191665,0,113,113,25,1,stimuli/objects/bowlingball.jpg,right,new,26,,,,,,,,,,,,,,,
,,,,,,,,3,2021-04-11_17h04.41.025,premceCat2_ses-02_part-02_label-phase2,2020.2.10,Win32,60,,,,,left,1.199175,4,0.9236,,,,,,,,,,left,0.310565,0,0,0,0,1,,,,,,,,
,,,,,,,,3,2021-04-11_17h04.41.025,premceCat2_ses-02_part-02_label-phase2,2020.2.10,Win32,60,,,,,,,,,0,114,114,32,1,stimuli/objects/mitresaw.jpg,right,new,33,,,,,,,,,,,,,,,
,,,,,,,,3,2021-04-11_17h04.41.025,premceCat2_ses-02_part-02_label-phase2,2020.2.10,Win32,60,,,,,right,1.448865,2,1.010235,0,115,115,8,1,stimuli/objects/basketballhoop01.jpg,right,new,9,,,,,,,,,,,,,,,
,,,,,,,,3,2021-04-11_17h04.41.025,premceCat2_ses-02_part-02_label-phase2,2020.2.10,Win32,60,,,,,left,1.388895,4,1.077545,,,,,,,,,,right,0.36452,0,0,0,0,1,,,,,,,,
,,,,,,,,3,2021-04-11_17h04.41.025,premceCat2_ses-02_part-02_label-phase2,2020.2.10,Win32,60,,,,,,,,,0,116,116,15,1,stimuli/objects/watercooler.jpg,left,old,16,,,,,,,,,,,,,,,
,,,,,,,,3,2021-04-11_17h04.41.025,premceCat2_ses-02_part-02_label-phase2,2020.2.10,Win32,60,,,,,right,1.86709,3,0.912525,0,117,117,131,1,stimuli/objects/spotlight.jpg,right,new,132,,,,,,,,,,,,,,,
,,,,,,,,3,2021-04-11_17h04.41.025,premceCat2_ses-02_part-02_label-phase2,2020.2.10,Win32,60,,,,,right,1.47574,2,0.94773,0,118,118,19,1,stimuli/objects/peppermill02b.jpg,right,new,20,,,,,,,,,,,,,,,
,,,,,,,,3,2021-04-11_17h04.41.025,premceCat2_ses-02_part-02_label-phase2,2020.2.10,Win32,60,,,,,right,1.276875,1,2.201305,0,119,119,61,1,stimuli/objects/metalbrush.jpg,left,old,62,,,,,,,,,,,,,,,
,,,,,,,,3,2021-04-11_17h04.41.025,premceCat2_ses-02_part-02_label-phase2,2020.2.10,Win32,60,,,,,right,2.262525,1,0.786395,0,120,120,60,1,stimuli/objects/glass02a.jpg,right,new,61,,,,,,,,,,,,,,,
,,,,,,,,3,2021-04-11_17h04.41.025,premceCat2_ses-02_part-02_label-phase2,2020.2.10,Win32,60,,,,,left,1.095455,3,1.205265,,,,,,,,,,right,1.399315,0,0,0,0,1,,,,,,,,
,,,,,,,,3,2021-04-11_17h04.41.025,premceCat2_ses-02_part-02_label-phase2,2020.2.10,Win32,60,,,,,,,,,0,121,121,11,1,stimuli/objects/telephone01b.jpg,left,old,12,,,,,,,,,,,,,,,
,,,,,,,,3,2021-04-11_17h04.41.025,premceCat2_ses-02_part-02_label-phase2,2020.2.10,Win32,60,,,,,left,1.18102,4,1.33074,,,,,,,,,,left,0.299335,0,0,0,0,1,,,,,,,,
,,,,,,,,3,2021-04-11_17h04.41.025,premceCat2_ses-02_part-02_label-phase2,2020.2.10,Win32,60,,,,,,,,,0,122,122,34,1,stimuli/objects/hockeygoaliemask.jpg,left,old,35,,,,,,,,,,,,,,,
,,,,,,,,3,2021-04-11_17h04.41.025,premceCat2_ses-02_part-02_label-phase2,2020.2.10,Win32,60,,,,,left,1.417105,1,0.604365,,,,,,,,,,left,0.22538,0,0,0,0,1,,,,,,,,
,,,,,,,,3,2021-04-11_17h04.41.025,premceCat2_ses-02_part-02_label-phase2,2020.2.10,Win32,60,,,,,,,,,0,123,123,43,1,stimuli/objects/punchingball.jpg,right,new,44,,,,,,,,,,,,,,,
,,,,,,,,3,2021-04-11_17h04.41.025,premceCat2_ses-02_part-02_label-phase2,2020.2.10,Win32,60,,,,,right,1.16279,2,1.07784,0,124,124,85,1,stimuli/objects/golfball.jpg,right,new,86,,,,,,,,,,,,,,,
,,,,,,,,3,2021-04-11_17h04.41.025,premceCat2_ses-02_part-02_label-phase2,2020.2.10,Win32,60,,,,,left,1.229735,3,2.00226,,,,,,,,,,right,1.99042,0,0,0,0,1,,,,,,,,
,,,,,,,,3,2021-04-11_17h04.41.025,premceCat2_ses-02_part-02_label-phase2,2020.2.10,Win32,60,,,,,,,,,0,125,125,29,1,stimuli/objects/computerkeyboard02.jpg,left,old,30,,,,,,,,,,,,,,,
,,,,,,,,3,2021-04-11_17h04.41.025,premceCat2_ses-02_part-02_label-phase2,2020.2.10,Win32,60,,,,,right,1.545405,4,0.495085,0,126,126,82,1,stimuli/objects/snowbrush.jpg,right,new,83,,,,,,,,,,,,,,,
,,,,,,,,3,2021-04-11_17h04.41.025,premceCat2_ses-02_part-02_label-phase2,2020.2.10,Win32,60,,,,,right,1.620175,2,1.175345,0,127,127,66,1,stimuli/objects/nailgun.jpg,right,new,67,,,,,,,,,,,,,,,
,,,,,,,,3,2021-04-11_17h04.41.025,premceCat2_ses-02_part-02_label-phase2,2020.2.10,Win32,60,,,,,left,0.974055,4,1.115785,,,,,,,,,,left,0.36573,0,0,0,0,1,,,,,,,,
,,,,,,,,3,2021-04-11_17h04.41.025,premceCat2_ses-02_part-02_label-phase2,2020.2.10,Win32,60,,,,,,,,,0,128,128,6,1,stimuli/objects/corkscrew03a.jpg,left,old,7,,,,,,,,,,,,,,,
,,,,,,,,3,2021-04-11_17h04.41.025,premceCat2_ses-02_part-02_label-phase2,2020.2.10,Win32,60,,,,,right,2.42398,2,1.017015,0,129,129,42,1,stimuli/objects/snowshoe.jpg,right,new,43,,,,,,,,,,,,,,,
,,,,,,,,3,2021-04-11_17h04.41.025,premceCat2_ses-02_part-02_label-phase2,2020.2.10,Win32,60,,,,,left,3.84958,2,1.493605,,,,,,,,,,right,0.364365,0,0,0,0,1,,,,,,,,
,,,,,,,,3,2021-04-11_17h04.41.025,premceCat2_ses-02_part-02_label-phase2,2020.2.10,Win32,60,,,,,,,,,0,130,130,100,1,stimuli/objects/remotecontrol04.jpg,right,new,101,,,,,,,,,,,,,,,
,,,,,,,,3,2021-04-11_17h04.41.025,premceCat2_ses-02_part-02_label-phase2,2020.2.10,Win32,60,,,,,right,1.02978,1,0.865785,0,131,131,73,1,stimuli/objects/clock01a.jpg,right,new,74,,,,,,,,,,,,,,,
,,,,,,,,3,2021-04-11_17h04.41.025,premceCat2_ses-02_part-02_label-phase2,2020.2.10,Win32,60,,,,,right,2.825685,2,0.51339,0,132,132,41,1,stimuli/objects/pylon01.jpg,right,new,42,,,,,,,,,,,,,,,
,,,,,,,,3,2021-04-11_17h04.41.025,premceCat2_ses-02_part-02_label-phase2,2020.2.10,Win32,60,,,,,right,1.260475,4,0.40015,0,133,133,39,1,stimuli/objects/sippycup.jpg,right,new,40,,,,,,,,,,,,,,,
,,,,,,,,3,2021-04-11_17h04.41.025,premceCat2_ses-02_part-02_label-phase2,2020.2.10,Win32,60,,,,,left,3.16993,1,0.86132,,,,,,,,,,left,0.33782,0,0,0,0,1,,,,,,,,
,,,,,,,,3,2021-04-11_17h04.41.025,premceCat2_ses-02_part-02_label-phase2,2020.2.10,Win32,60,,,,,,,,,0,134,134,38,1,stimuli/objects/soundmixer.jpg,right,new,39,,,,,,,,,,,,,,,
,,,,,,,,3,2021-04-11_17h04.41.025,premceCat2_ses-02_part-02_label-phase2,2020.2.10,Win32,60,,,,,left,1.036735,3,1.153695,,,,,,,,,,left,0.206795,0,0,0,0,1,,,,,,,,
,,,,,,,,3,2021-04-11_17h04.41.025,premceCat2_ses-02_part-02_label-phase2,2020.2.10,Win32,60,,,,,,,,,0,135,135,98,1,stimuli/objects/handgripper.jpg,left,old,99,,,,,,,,,,,,,,,
,,,,,,,,3,2021-04-11_17h04.41.025,premceCat2_ses-02_part-02_label-phase2,2020.2.10,Win32,60,,,,,right,1.193,2,0.93093,0,136,136,59,1,stimuli/objects/studiolight.jpg,right,new,60,,,,,,,,,,,,,,,
,,,,,,,,3,2021-04-11_17h04.41.025,premceCat2_ses-02_part-02_label-phase2,2020.2.10,Win32,60,,,,,left,0.98801,4,1.407945,,,,,,,,,,left,0.28351,0,0,0,0,1,,,,,,,,
,,,,,,,,3,2021-04-11_17h04.41.025,premceCat2_ses-02_part-02_label-phase2,2020.2.10,Win32,60,,,,,,,,,0,137,137,104,1,stimuli/objects/carantenna.jpg,left,old,105,,,,,,,,,,,,,,,
,,,,,,,,3,2021-04-11_17h04.41.025,premceCat2_ses-02_part-02_label-phase2,2020.2.10,Win32,60,,,,,left,1.39179,4,1.06817,,,,,,,,,,left,1.021625,0,0,0,0,1,,,,,,,,
,,,,,,,,3,2021-04-11_17h04.41.025,premceCat2_ses-02_part-02_label-phase2,2020.2.10,Win32,60,,,,,,,,,0,138,138,137,1,stimuli/objects/exercisebike.jpg,left,old,138,,,,,,,,,,,,,,,
,,,,,,,,3,2021-04-11_17h04.41.025,premceCat2_ses-02_part-02_label-phase2,2020.2.10,Win32,60,,,,,left,0.979535,4,0.37782,,,,,,,,,,left,0.161845,0,0,0,0,1,,,,,,,,
,,,,,,,,3,2021-04-11_17h04.41.025,premceCat2_ses-02_part-02_label-phase2,2020.2.10,Win32,60,,,,,,,,,0,139,139,62,1,stimuli/objects/potatomasher03b.jpg,left,old,63,,,,,,,,,,,,,,,
,,,,,,,,3,2021-04-11_17h04.41.025,premceCat2_ses-02_part-02_label-phase2,2020.2.10,Win32,60,,,,,left,0.745505,4,0.24355,,,,,,,,,,left,0.141595,0,0,0,0,1,,,,,,,,
,,,,,,,,3,2021-04-11_17h04.41.025,premceCat2_ses-02_part-02_label-phase2,2020.2.10,Win32,60,,,,,,,,,0,140,140,127,1,stimuli/objects/badmintonracket.jpg,left,old,128,,,,,,,,,,,,,,,
,,,,,,,,3,2021-04-11_17h04.41.025,premceCat2_ses-02_part-02_label-phase2,2020.2.10,Win32,60,,,,,left,1.161225,4,0.179015,,,,,,,,,,right,0.618635,0,0,0,0,1,,,,,,,,
,,,,,,,,3,2021-04-11_17h04.41.025,premceCat2_ses-02_part-02_label-phase2,2020.2.10,Win32,60,,,,,,,,,0,141,141,117,1,stimuli/objects/videotape01b.jpg,right,new,118,,,,,,,,,,,,,,,
,,,,,,,,3,2021-04-11_17h04.41.025,premceCat2_ses-02_part-02_label-phase2,2020.2.10,Win32,60,,,,,left,1.076335,4,0.14549,,,,,,,,,,right,0.00042,0,0,0,0,1,,,,,,,,
,,,,,,,,3,2021-04-11_17h04.41.025,premceCat2_ses-02_part-02_label-phase2,2020.2.10,Win32,60,,,,,,,,,0,142,142,69,1,stimuli/objects/atm.jpg,left,old,70,,,,,,,,,,,,,,,
,,,,,,,,3,2021-04-11_17h04.41.025,premceCat2_ses-02_part-02_label-phase2,2020.2.10,Win32,60,,,,,,,,,,,,,,,,,,,,,,,,,space,3.360515,0,0,0,0,1,condition_files/ImagesforRecog4_1.csv
,,,,,,,,3,2021-04-11_17h04.41.025,premceCat2_ses-02_part-02_label-phase2,2020.2.10,Win32,60,,,,,left,2.470065,4,0.32576,,,,,,,,,,left,0.35891,0,0,0,0,1,,,,,,,,
,,,,,,,,3,2021-04-11_17h04.41.025,premceCat2_ses-02_part-02_label-phase2,2020.2.10,Win32,60,,,,,,,,,0,0,0,61,1,stimuli/objects/flooringstapler.jpg,left,old,205,,,,,,,,,,,,,,,
,,,,,,,,3,2021-04-11_17h04.41.025,premceCat2_ses-02_part-02_label-phase2,2020.2.10,Win32,60,,,,,right,1.16041,3,0.58676,0,1,1,40,1,stimuli/objects/tablesaw.jpg,right,new,184,,,,,,,,,,,,,,,
,,,,,,,,3,2021-04-11_17h04.41.025,premceCat2_ses-02_part-02_label-phase2,2020.2.10,Win32,60,,,,,left,0.94209,4,0.853265,,,,,,,,,,left,0.241745,0,0,0,0,1,,,,,,,,
,,,,,,,,3,2021-04-11_17h04.41.025,premceCat2_ses-02_part-02_label-phase2,2020.2.10,Win32,60,,,,,,,,,0,2,2,139,1,stimuli/objects/pitcher02b.jpg,left,old,283,,,,,,,,,,,,,,,
,,,,,,,,3,2021-04-11_17h04.41.025,premceCat2_ses-02_part-02_label-phase2,2020.2.10,Win32,60,,,,,left,0.731175,4,0.63381,,,,,,,,,,left,0.200205,0,0,0,0,1,,,,,,,,
,,,,,,,,3,2021-04-11_17h04.41.025,premceCat2_ses-02_part-02_label-phase2,2020.2.10,Win32,60,,,,,,,,,0,3,3,42,1,stimuli/objects/tennisracket.jpg,right,new,186,,,,,,,,,,,,,,,
,,,,,,,,3,2021-04-11_17h04.41.025,premceCat2_ses-02_part-02_label-phase2,2020.2.10,Win32,60,,,,,left,0.99736,4,0.38266,,,,,,,,,,left,0.176315,0,0,0,0,1,,,,,,,,
,,,,,,,,3,2021-04-11_17h04.41.025,premceCat2_ses-02_part-02_label-phase2,2020.2.10,Win32,60,,,,,,,,,0,4,4,117,1,stimuli/objects/snowboard.jpg,left,old,261,,,,,,,,,,,,,,,
,,,,,,,,3,2021-04-11_17h04.41.025,premceCat2_ses-02_part-02_label-phase2,2020.2.10,Win32,60,,,,,left,4.630035,1,1.0732,,,,,,,,,,right,0.17001,0,0,0,0,1,,,,,,,,
,,,,,,,,3,2021-04-11_17h04.41.025,premceCat2_ses-02_part-02_label-phase2,2020.2.10,Win32,60,,,,,,,,,0,5,5,9,1,stimuli/objects/alarmsystem.jpg,right,new,153,,,,,,,,,,,,,,,
,,,,,,,,3,2021-04-11_17h04.41.025,premceCat2_ses-02_part-02_label-phase2,2020.2.10,Win32,60,,,,,right,1.491445,2,0.47041,0,6,6,78,1,stimuli/objects/lightswitch01.jpg,right,new,222,,,,,,,,,,,,,,,
,,,,,,,,3,2021-04-11_17h04.41.025,premceCat2_ses-02_part-02_label-phase2,2020.2.10,Win32,60,,,,,left,0.81581,4,0.88327,,,,,,,,,,left,0.72285,0,0,0,0,1,,,,,,,,
,,,,,,,,3,2021-04-11_17h04.41.025,premceCat2_ses-02_part-02_label-phase2,2020.2.10,Win32,60,,,,,,,,,0,7,7,43,1,stimuli/objects/bowrake.jpg,right,new,187,,,,,,,,,,,,,,,
,,,,,,,,3,2021-04-11_17h04.41.025,premceCat2_ses-02_part-02_label-phase2,2020.2.10,Win32,60,,,,,left,2.6417,4,0.694565,,,,,,,,,,right,0.71555,0,0,0,0,1,,,,,,,,
,,,,,,,,3,2021-04-11_17h04.41.025,premceCat2_ses-02_part-02_label-phase2,2020.2.10,Win32,60,,,,,,,,,0,8,8,52,1,stimuli/objects/usbkey.jpg,left,old,196,,,,,,,,,,,,,,,
,,,,,,,,3,2021-04-11_17h04.41.025,premceCat2_ses-02_part-02_label-phase2,2020.2.10,Win32,60,,,,,left,0.952415,4,0.441845,,,,,,,,,,right,0.402275,0,0,0,0,1,,,,,,,,
,,,,,,,,3,2021-04-11_17h04.41.025,premceCat2_ses-02_part-02_label-phase2,2020.2.10,Win32,60,,,,,,,,,0,9,9,80,1,stimuli/objects/barbecue03.jpg,right,new,224,,,,,,,,,,,,,,,
,,,,,,,,3,2021-04-11_17h04.41.025,premceCat2_ses-02_part-02_label-phase2,2020.2.10,Win32,60,,,,,left,1.360155,3,0.975595,,,,,,,,,,left,0.02579,0,0,0,0,1,,,,,,,,
,,,,,,,,3,2021-04-11_17h04.41.025,premceCat2_ses-02_part-02_label-phase2,2020.2.10,Win32,60,,,,,,,,,0,10,10,59,1,stimuli/objects/speedball.jpg,right,new,203,,,,,,,,,,,,,,,
,,,,,,,,3,2021-04-11_17h04.41.025,premceCat2_ses-02_part-02_label-phase2,2020.2.10,Win32,60,,,,,left,0.84987,4,0.593675,,,,,,,,,,left,0.761395,0,0,0,0,1,,,,,,,,
,,,,,,,,3,2021-04-11_17h04.41.025,premceCat2_ses-02_part-02_label-phase2,2020.2.10,Win32,60,,,,,,,,,0,11,11,77,1,stimuli/objects/bowl02a.jpg,left,old,221,,,,,,,,,,,,,,,
,,,,,,,,3,2021-04-11_17h04.41.025,premceCat2_ses-02_part-02_label-phase2,2020.2.10,Win32,60,,,,,left,1.7785,4,0.37573,,,,,,,,,,right,1.10773,0,0,0,0,1,,,,,,,,
,,,,,,,,3,2021-04-11_17h04.41.025,premceCat2_ses-02_part-02_label-phase2,2020.2.10,Win32,60,,,,,,,,,0,12,12,1,1,stimuli/objects/satellitedish01.jpg,left,old,145,,,,,,,,,,,,,,,
,,,,,,,,3,2021-04-11_17h04.41.025,premceCat2_ses-02_part-02_label-phase2,2020.2.10,Win32,60,,,,,left,0.70881,4,0.23701,,,,,,,,,,left,0.06305,0,0,0,0,1,,,,,,,,
,,,,,,,,3,2021-04-11_17h04.41.025,premceCat2_ses-02_part-02_label-phase2,2020.2.10,Win32,60,,,,,,,,,0,13,13,10,1,stimuli/objects/sportbag.jpg,left,old,154,,,,,,,,,,,,,,,
,,,,,,,,3,2021-04-11_17h04.41.025,premceCat2_ses-02_part-02_label-phase2,2020.2.10,Win32,60,,,,,left,0.714655,4,0.320635,,,,,,,,,,left,0.37633,0,0,0,0,1,,,,,,,,
,,,,,,,,3,2021-04-11_17h04.41.025,premceCat2_ses-02_part-02_label-phase2,2020.2.10,Win32,60,,,,,,,,,0,14,14,110,1,stimuli/objects/fishingrod.jpg,left,old,254,,,,,,,,,,,,,,,
,,,,,,,,3,2021-04-11_17h04.41.025,premceCat2_ses-02_part-02_label-phase2,2020.2.10,Win32,60,,,,,right,1.4261,1,0.278775,0,15,15,83,1,stimuli/objects/icecubetray01a.jpg,right,new,227,,,,,,,,,,,,,,,
,,,,,,,,3,2021-04-11_17h04.41.025,premceCat2_ses-02_part-02_label-phase2,2020.2.10,Win32,60,,,,,right,1.5935,1,0.122875,0,16,16,79,1,stimuli/objects/bikehelmet.jpg,left,old,223,,,,,,,,,,,,,,,
,,,,,,,,3,2021-04-11_17h04.41.025,premceCat2_ses-02_part-02_label-phase2,2020.2.10,Win32,60,,,,,right,1.225725,1,0.239405,0,17,17,107,1,stimuli/objects/dolly01.jpg,right,new,251,,,,,,,,,,,,,,,
,,,,,,,,3,2021-04-11_17h04.41.025,premceCat2_ses-02_part-02_label-phase2,2020.2.10,Win32,60,,,,,right,1.614895,1,1.19677,0,18,18,126,1,stimuli/objects/bikewheel.jpg,left,old,270,,,,,,,,,,,,,,,
,,,,,,,,3,2021-04-11_17h04.41.025,premceCat2_ses-02_part-02_label-phase2,2020.2.10,Win32,60,,,,,left,0.960485,3,0.737755,,,,,,,,,,left,1.034825,0,0,0,0,1,,,,,,,,
,,,,,,,,3,2021-04-11_17h04.41.025,premceCat2_ses-02_part-02_label-phase2,2020.2.10,Win32,60,,,,,,,,,0,19,19,128,1,stimuli/objects/hourglass.jpg,left,old,272,,,,,,,,,,,,,,,
,,,,,,,,3,2021-04-11_17h04.41.025,premceCat2_ses-02_part-02_label-phase2,2020.2.10,Win32,60,,,,,left,0.992115,2,0.59884,,,,,,,,,,left,0.84158,0,0,0,0,1,,,,,,,,
,,,,,,,,3,2021-04-11_17h04.41.025,premceCat2_ses-02_part-02_label-phase2,2020.2.10,Win32,60,,,,,,,,,0,20,20,88,1,stimuli/objects/iceskate.jpg,left,old,232,,,,,,,,,,,,,,,
,,,,,,,,3,2021-04-11_17h04.41.025,premceCat2_ses-02_part-02_label-phase2,2020.2.10,Win32,60,,,,,left,1.035,4,0.404445,,,,,,,,,,right,0.07155,0,0,0,0,1,,,,,,,,
,,,,,,,,3,2021-04-11_17h04.41.025,premceCat2_ses-02_part-02_label-phase2,2020.2.10,Win32,60,,,,,,,,,0,21,21,85,1,stimuli/objects/lamp04a.jpg,left,old,229,,,,,,,,,,,,,,,
,,,,,,,,3,2021-04-11_17h04.41.025,premceCat2_ses-02_part-02_label-phase2,2020.2.10,Win32,60,,,,,right,2.459535,1,0.692915,0,22,22,102,1,stimuli/objects/beachumbrella01.jpg,right,new,246,,,,,,,,,,,,,,,
,,,,,,,,3,2021-04-11_17h04.41.025,premceCat2_ses-02_part-02_label-phase2,2020.2.10,Win32,60,,,,,left,2.46308,2,0.51039,,,,,,,,,,left,0.42977,0,0,0,0,1,,,,,,,,
,,,,,,,,3,2021-04-11_17h04.41.025,premceCat2_ses-02_part-02_label-phase2,2020.2.10,Win32,60,,,,,,,,,0,23,23,63,1,stimuli/objects/coffeepot03a.jpg,left,old,207,,,,,,,,,,,,,,,
,,,,,,,,3,2021-04-11_17h04.41.025,premceCat2_ses-02_part-02_label-phase2,2020.2.10,Win32,60,,,,,right,2.35895,1,0.55175,0,24,24,71,1,stimuli/objects/swimgoggles.jpg,left,old,215,,,,,,,,,,,,,,,
,,,,,,,,3,2021-04-11_17h04.41.025,premceCat2_ses-02_part-02_label-phase2,2020.2.10,Win32,60,,,,,left,0.941145,4,0.69058,,,,,,,,,,right,0.165475,0,0,0,0,1,,,,,,,,
,,,,,,,,3,2021-04-11_17h04.41.025,premceCat2_ses-02_part-02_label-phase2,2020.2.10,Win32,60,,,,,,,,,0,25,25,129,1,stimuli/objects/bucket02.jpg,left,old,273,,,,,,,,,,,,,,,
,,,,,,,,3,2021-04-11_17h04.41.025,premceCat2_ses-02_part-02_label-phase2,2020.2.10,Win32,60,,,,,left,1.891665,1,0.428085,,,,,,,,,,right,0.023655,0,0,0,0,1,,,,,,,,
,,,,,,,,3,2021-04-11_17h04.41.025,premceCat2_ses-02_part-02_label-phase2,2020.2.10,Win32,60,,,,,,,,,0,26,26,64,1,stimuli/objects/exercisemachine.jpg,left,old,208,,,,,,,,,,,,,,,
,,,,,,,,3,2021-04-11_17h04.41.025,premceCat2_ses-02_part-02_label-phase2,2020.2.10,Win32,60,,,,,right,1.735275,1,0.800195,0,27,27,140,1,stimuli/objects/wineglass01.jpg,right,new,284,,,,,,,,,,,,,,,
,,,,,,,,3,2021-04-11_17h04.41.025,premceCat2_ses-02_part-02_label-phase2,2020.2.10,Win32,60,,,,,left,0.93724,4,0.639455,,,,,,,,,,left,0.26092,0,0,0,0,1,,,,,,,,
,,,,,,,,3,2021-04-11_17h04.41.025,premceCat2_ses-02_part-02_label-phase2,2020.2.10,Win32,60,,,,,,,,,0,28,28,105,1,stimuli/objects/spicerack.jpg,left,old,249,,,,,,,,,,,,,,,
,,,,,,,,3,2021-04-11_17h04.41.025,premceCat2_ses-02_part-02_label-phase2,2020.2.10,Win32,60,,,,,left,0.84924,4,1.032555,,,,,,,,,,right,0.274895,0,0,0,0,1,,,,,,,,
,,,,,,,,3,2021-04-11_17h04.41.025,premceCat2_ses-02_part-02_label-phase2,2020.2.10,Win32,60,,,,,,,,,0,29,29,21,1,stimuli/objects/gluetube.jpg,left,old,165,,,,,,,,,,,,,,,
,,,,,,,,3,2021-04-11_17h04.41.025,premceCat2_ses-02_part-02_label-phase2,2020.2.10,Win32,60,,,,,right,1.57018,2,0.59768,0,30,30,2,1,stimuli/objects/wetfloorsign.jpg,right,new,146,,,,,,,,,,,,,,,
,,,,,,,,3,2021-04-11_17h04.41.025,premceCat2_ses-02_part-02_label-phase2,2020.2.10,Win32,60,,,,,left,2.769165,1,0.74936,,,,,,,,,,left,0.228975,0,0,0,0,1,,,,,,,,
,,,,,,,,3,2021-04-11_17h04.41.025,premceCat2_ses-02_part-02_label-phase2,2020.2.10,Win32,60,,,,,,,,,0,31,31,137,1,stimuli/objects/nutcracker01.jpg,right,new,281,,,,,,,,,,,,,,,
,,,,,,,,3,2021-04-11_17h04.41.025,premceCat2_ses-02_part-02_label-phase2,2020.2.10,Win32,60,,,,,right,1.35415,1,0.56821,0,32,32,51,1,stimuli/objects/cheeseknife01.jpg,right,new,195,,,,,,,,,,,,,,,
,,,,,,,,3,2021-04-11_17h04.41.025,premceCat2_ses-02_part-02_label-phase2,2020.2.10,Win32,60,,,,,right,1.03129,4,0.25211,0,33,33,49,1,stimuli/objects/cakeplatter.jpg,right,new,193,,,,,,,,,,,,,,,
,,,,,,,,3,2021-04-11_17h04.41.025,premceCat2_ses-02_part-02_label-phase2,2020.2.10,Win32,60,,,,,left,2.01235,3,1.080015,,,,,,,,,,right,0.205945,0,0,0,0,1,,,,,,,,
,,,,,,,,3,2021-04-11_17h04.41.025,premceCat2_ses-02_part-02_label-phase2,2020.2.10,Win32,60,,,,,,,,,0,34,34,86,1,stimuli/objects/trampoline.jpg,right,new,230,,,,,,,,,,,,,,,
,,,,,,,,3,2021-04-11_17h04.41.025,premceCat2_ses-02_part-02_label-phase2,2020.2.10,Win32,60,,,,,right,0.94424,3,1.50414,0,35,35,127,1,stimuli/objects/skigoggles01.jpg,right,new,271,,,,,,,,,,,,,,,
,,,,,,,,3,2021-04-11_17h04.41.025,premceCat2_ses-02_part-02_label-phase2,2020.2.10,Win32,60,,,,,right,1.99987,1,1.20953,0,36,36,38,1,stimuli/objects/contactlens.jpg,left,old,182,,,,,,,,,,,,,,,
,,,,,,,,3,2021-04-11_17h04.41.025,premceCat2_ses-02_part-02_label-phase2,2020.2.10,Win32,60,,,,,left,2.935755,2,1.843265,,,,,,,,,,right,0.21826,0,0,0,0,1,,,,,,,,
,,,,,,,,3,2021-04-11_17h04.41.025,premceCat2_ses-02_part-02_label-phase2,2020.2.10,Win32,60,,,,,,,,,0,37,37,82,1,stimuli/objects/shopvac.jpg,right,new,226,,,,,,,,,,,,,,,
,,,,,,,,3,2021-04-11_17h04.41.025,premceCat2_ses-02_part-02_label-phase2,2020.2.10,Win32,60,,,,,left,1.71828,2,0.51823,,,,,,,,,,right,0.38436,0,0,0,0,1,,,,,,,,
,,,,,,,,3,2021-04-11_17h04.41.025,premceCat2_ses-02_part-02_label-phase2,2020.2.10,Win32,60,,,,,,,,,0,38,38,12,1,stimuli/objects/fanheater.jpg,right,new,156,,,,,,,,,,,,,,,
,,,,,,,,3,2021-04-11_17h04.41.025,premceCat2_ses-02_part-02_label-phase2,2020.2.10,Win32,60,,,,,left,0.966955,4,0.4376,,,,,,,,,,left,0.270145,0,0,0,0,1,,,,,,,,
,,,,,,,,3,2021-04-11_17h04.41.025,premceCat2_ses-02_part-02_label-phase2,2020.2.10,Win32,60,,,,,,,,,0,39,39,31,1,stimuli/objects/cooler01.jpg,left,old,175,,,,,,,,,,,,,,,
,,,,,,,,3,2021-04-11_17h04.41.025,premceCat2_ses-02_part-02_label-phase2,2020.2.10,Win32,60,,,,,right,1.342535,2,0.731695,0,40,40,25,1,stimuli/objects/cowbell.jpg,left,old,169,,,,,,,,,,,,,,,
,,,,,,,,3,2021-04-11_17h04.41.025,premceCat2_ses-02_part-02_label-phase2,2020.2.10,Win32,60,,,,,right,1.05726,2,1.82633,0,41,41,27,1,stimuli/objects/level03a.jpg,left,old,171,,,,,,,,,,,,,,,
,,,,,,,,3,2021-04-11_17h04.41.025,premceCat2_ses-02_part-02_label-phase2,2020.2.10,Win32,60,,,,,left,10.16619,3,0.922105,,,,,,,,,,left,1.32017,0,0,0,0,1,,,,,,,,
,,,,,,,,3,2021-04-11_17h04.41.025,premceCat2_ses-02_part-02_label-phase2,2020.2.10,Win32,60,,,,,,,,,0,42,42,37,1,stimuli/objects/expansioncard.jpg,left,old,181,,,,,,,,,,,,,,,
,,,,,,,,3,2021-04-11_17h04.41.025,premceCat2_ses-02_part-02_label-phase2,2020.2.10,Win32,60,,,,,left,1.487095,4,0.91398,,,,,,,,,,right,0.67557,0,0,0,0,1,,,,,,,,
,,,,,,,,3,2021-04-11_17h04.41.025,premceCat2_ses-02_part-02_label-phase2,2020.2.10,Win32,60,,,,,,,,,0,43,43,112,1,stimuli/objects/wire.jpg,left,old,256,,,,,,,,,,,,,,,
,,,,,,,,3,2021-04-11_17h04.41.025,premceCat2_ses-02_part-02_label-phase2,2020.2.10,Win32,60,,,,,left,3.481775,1,0.64827,,,,,,,,,,right,0.66731,0,0,0,0,1,,,,,,,,
,,,,,,,,3,2021-04-11_17h04.41.025,premceCat2_ses-02_part-02_label-phase2,2020.2.10,Win32,60,,,,,,,,,0,44,44,111,1,stimuli/objects/diaperbag.jpg,right,new,255,,,,,,,,,,,,,,,
,,,,,,,,3,2021-04-11_17h04.41.025,premceCat2_ses-02_part-02_label-phase2,2020.2.10,Win32,60,,,,,right,2.330665,1,1.2021,0,45,45,74,1,stimuli/objects/patioumbrella.jpg,left,old,218,,,,,,,,,,,,,,,
,,,,,,,,3,2021-04-11_17h04.41.025,premceCat2_ses-02_part-02_label-phase2,2020.2.10,Win32,60,,,,,right,1.00018,1,0.285765,0,46,46,68,1,stimuli/objects/ladle02a.jpg,right,new,212,,,,,,,,,,,,,,,
,,,,,,,,3,2021-04-11_17h04.41.025,premceCat2_ses-02_part-02_label-phase2,2020.2.10,Win32,60,,,,,left,1.698505,4,0.53868,,,,,,,,,,left,1.001605,0,0,0,0,1,,,,,,,,
,,,,,,,,3,2021-04-11_17h04.41.025,premceCat2_ses-02_part-02_label-phase2,2020.2.10,Win32,60,,,,,,,,,0,47,47,11,1,stimuli/objects/airconditioner.jpg,left,old,155,,,,,,,,,,,,,,,
,,,,,,,,3,2021-04-11_17h04.41.025,premceCat2_ses-02_part-02_label-phase2,2020.2.10,Win32,60,,,,,left,1.46089,3,0.29093,,,,,,,,,,right,0.442355,0,0,0,0,1,,,,,,,,
,,,,,,,,3,2021-04-11_17h04.41.025,premceCat2_ses-02_part-02_label-phase2,2020.2.10,Win32,60,,,,,,,,,0,48,48,93,1,stimuli/objects/lawnmower.jpg,left,old,237,,,,,,,,,,,,,,,
,,,,,,,,3,2021-04-11_17h04.41.025,premceCat2_ses-02_part-02_label-phase2,2020.2.10,Win32,60,,,,,left,1.893015,1,1.733395,,,,,,,,,,left,1.091675,0,0,0,0,1,,,,,,,,
,,,,,,,,3,2021-04-11_17h04.41.025,premceCat2_ses-02_part-02_label-phase2,2020.2.10,Win32,60,,,,,,,,,0,49,49,14,1,stimuli/objects/weight01.jpg,left,old,158,,,,,,,,,,,,,,,
,,,,,,,,3,2021-04-11_17h04.41.025,premceCat2_ses-02_part-02_label-phase2,2020.2.10,Win32,60,,,,,right,1.611385,3,0.99562,0,50,50,39,1,stimuli/objects/wafflemaker.jpg,right,new,183,,,,,,,,,,,,,,,
,,,,,,,,3,2021-04-11_17h04.41.025,premceCat2_ses-02_part-02_label-phase2,2020.2.10,Win32,60,,,,,right,1.38209,3,0.23994,0,51,51,65,1,stimuli/objects/gastank.jpg,left,old,209,,,,,,,,,,,,,,,
,,,,,,,,3,2021-04-11_17h04.41.025,premceCat2_ses-02_part-02_label-phase2,2020.2.10,Win32,60,,,,,right,1.303355,4,0.612535,0,52,52,133,1,stimuli/objects/birdie.jpg,right,new,277,,,,,,,,,,,,,,,
,,,,,,,,3,2021-04-11_17h04.41.025,premceCat2_ses-02_part-02_label-phase2,2020.2.10,Win32,60,,,,,right,1.298435,1,0.512155,0,53,53,119,1,stimuli/objects/servingspoon01.jpg,left,old,263,,,,,,,,,,,,,,,
,,,,,,,,3,2021-04-11_17h04.41.025,premceCat2_ses-02_part-02_label-phase2,2020.2.10,Win32,60,,,,,left,2.086105,1,0.580475,,,,,,,,,,right,0.66998,0,0,0,0,1,,,,,,,,
,,,,,,,,3,2021-04-11_17h04.41.025,premceCat2_ses-02_part-02_label-phase2,2020.2.10,Win32,60,,,,,,,,,0,54,54,22,1,stimuli/objects/aircompressor.jpg,left,old,166,,,,,,,,,,,,,,,
,,,,,,,,3,2021-04-11_17h04.41.025,premceCat2_ses-02_part-02_label-phase2,2020.2.10,Win32,60,,,,,right,0.86162,4,0.233265,0,55,55,26,1,stimuli/objects/flashlight02b.jpg,right,new,170,,,,,,,,,,,,,,,
,,,,,,,,3,2021-04-11_17h04.41.025,premceCat2_ses-02_part-02_label-phase2,2020.2.10,Win32,60,,,,,left,1.71253,3,1.161335,,,,,,,,,,right,0.049345,0,0,0,0,1,,,,,,,,
,,,,,,,,3,2021-04-11_17h04.41.025,premceCat2_ses-02_part-02_label-phase2,2020.2.10,Win32,60,,,,,,,,,0,56,56,90,1,stimuli/objects/fishinghook03.jpg,left,old,234,,,,,,,,,,,,,,,
,,,,,,,,3,2021-04-11_17h04.41.025,premceCat2_ses-02_part-02_label-phase2,2020.2.10,Win32,60,,,,,right,1.3155,4,0.37318,0,57,57,95,1,stimuli/objects/tennisball01b.jpg,right,new,239,,,,,,,,,,,,,,,
,,,,,,,,3,2021-04-11_17h04.41.025,premceCat2_ses-02_part-02_label-phase2,2020.2.10,Win32,60,,,,,right,0.952445,4,0.834145,0,58,58,69,1,stimuli/objects/straw.jpg,right,new,213,,,,,,,,,,,,,,,
,,,,,,,,3,2021-04-11_17h04.41.025,premceCat2_ses-02_part-02_label-phase2,2020.2.10,Win32,60,,,,,left,4.00801,1,1.76987,,,,,,,,,,left,1.1907,0,0,0,0,1,,,,,,,,
,,,,,,,,3,2021-04-11_17h04.41.025,premceCat2_ses-02_part-02_label-phase2,2020.2.10,Win32,60,,,,,,,,,0,59,59,123,1,stimuli/objects/jackhammer.jpg,right,new,267,,,,,,,,,,,,,,,
,,,,,,,,3,2021-04-11_17h04.41.025,premceCat2_ses-02_part-02_label-phase2,2020.2.10,Win32,60,,,,,left,1.787,1,0.00048,,,,,,,,,,left,0.41978,0,0,0,0,1,,,,,,,,
,,,,,,,,3,2021-04-11_17h04.41.025,premceCat2_ses-02_part-02_label-phase2,2020.2.10,Win32,60,,,,,,,,,0,60,60,19,1,stimuli/objects/mug01.jpg,right,new,163,,,,,,,,,,,,,,,
,,,,,,,,3,2021-04-11_17h04.41.025,premceCat2_ses-02_part-02_label-phase2,2020.2.10,Win32,60,,,,,left,1.25118,3,0.6994,,,,,,,,,,left,0.758335,0,0,0,0,1,,,,,,,,
,,,,,,,,3,2021-04-11_17h04.41.025,premceCat2_ses-02_part-02_label-phase2,2020.2.10,Win32,60,,,,,,,,,0,61,61,84,1,stimuli/objects/hockeygoalieglove.jpg,left,old,228,,,,,,,,,,,,,,,
,,,,,,,,3,2021-04-11_17h04.41.025,premceCat2_ses-02_part-02_label-phase2,2020.2.10,Win32,60,,,,,right,1.15308,4,0.496895,0,62,62,115,1,stimuli/objects/toothpick02.jpg,left,old,259,,,,,,,,,,,,,,,
,,,,,,,,3,2021-04-11_17h04.41.025,premceCat2_ses-02_part-02_label-phase2,2020.2.10,Win32,60,,,,,right,0.970815,4,0.411555,0,63,63,131,1,stimuli/objects/handblender.jpg,right,new,275,,,,,,,,,,,,,,,
,,,,,,,,3,2021-04-11_17h04.41.025,premceCat2_ses-02_part-02_label-phase2,2020.2.10,Win32,60,,,,,right,0.858395,4,0.0584,0,64,64,44,1,stimuli/objects/toaster01.jpg,right,new,188,,,,,,,,,,,,,,,
,,,,,,,,3,2021-04-11_17h04.41.025,premceCat2_ses-02_part-02_label-phase2,2020.2.10,Win32,60,,,,,right,3.260225,1,0.516905,0,65,65,99,1,stimuli/objects/floodlight.jpg,right,new,243,,,,,,,,,,,,,,,
,,,,,,,,3,2021-04-11_17h04.41.025,premceCat2_ses-02_part-02_label-phase2,2020.2.10,Win32,60,,,,,right,1.90936,4,1.346635,0,66,66,121,1,stimuli/objects/parachute.jpg,right,new,265,,,,,,,,,,,,,,,
,,,,,,,,3,2021-04-11_17h04.41.025,premceCat2_ses-02_part-02_label-phase2,2020.2.10,Win32,60,,,,,right,1.193465,4,1.63394,0,67,67,136,1,stimuli/objects/skihelmet01.jpg,left,old,280,,,,,,,,,,,,,,,
,,,,,,,,3,2021-04-11_17h04.41.025,premceCat2_ses-02_part-02_label-phase2,2020.2.10,Win32,60,,,,,right,1.27695,1,1.36013,0,68,68,46,1,stimuli/objects/waterbottleholder.jpg,right,new,190,,,,,,,,,,,,,,,
,,,,,,,,3,2021-04-11_17h04.41.025,premceCat2_ses-02_part-02_label-phase2,2020.2.10,Win32,60,,,,,left,1.31499,2,1.01001,,,,,,,,,,right,0.559125,0,0,0,0,1,,,,,,,,
,,,,,,,,3,2021-04-11_17h04.41.025,premceCat2_ses-02_part-02_label-phase2,2020.2.10,Win32,60,,,,,,,,,0,69,69,53,1,stimuli/objects/staplegun.jpg,left,old,197,,,,,,,,,,,,,,,
,,,,,,,,3,2021-04-11_17h04.41.025,premceCat2_ses-02_part-02_label-phase2,2020.2.10,Win32,60,,,,,right,0.928895,4,0.8921,0,70,70,35,1,stimuli/objects/stroller.jpg,right,new,179,,,,,,,,,,,,,,,
,,,,,,,,3,2021-04-11_17h04.41.025,premceCat2_ses-02_part-02_label-phase2,2020.2.10,Win32,60,,,,,right,1.836945,4,0.280985,0,71,71,103,1,stimuli/objects/swissarmyknife01a.jpg,right,new,247,,,,,,,,,,,,,,,
,,,,,,,,3,2021-04-11_17h04.41.025,premceCat2_ses-02_part-02_label-phase2,2020.2.10,Win32,60,,,,,right,1.00818,4,0.47208,0,72,72,24,1,stimuli/objects/monitor.jpg,right,new,168,,,,,,,,,,,,,,,
,,,,,,,,3,2021-04-11_17h04.41.025,premceCat2_ses-02_part-02_label-phase2,2020.2.10,Win32,60,,,,,left,1.191585,4,0.380325,,,,,,,,,,left,0.27766,0,0,0,0,1,,,,,,,,
,,,,,,,,3,2021-04-11_17h04.41.025,premceCat2_ses-02_part-02_label-phase2,2020.2.10,Win32,60,,,,,,,,,0,73,73,125,1,stimuli/objects/leafrake.jpg,left,old,269,,,,,,,,,,,,,,,
,,,,,,,,3,2021-04-11_17h04.41.025,premceCat2_ses-02_part-02_label-phase2,2020.2.10,Win32,60,,,,,left,1.23194,4,0.2168,,,,,,,,,,left,0.14078,0,0,0,0,1,,,,,,,,
,,,,,,,,3,2021-04-11_17h04.41.025,premceCat2_ses-02_part-02_label-phase2,2020.2.10,Win32,60,,,,,,,,,0,74,74,57,1,stimuli/objects/kiddiepool.jpg,left,old,201,,,,,,,,,,,,,,,
,,,,,,,,3,2021-04-11_17h04.41.025,premceCat2_ses-02_part-02_label-phase2,2020.2.10,Win32,60,,,,,left,1.454785,2,1.192055,,,,,,,,,,left,0.512545,0,0,0,0,1,,,,,,,,
,,,,,,,,3,2021-04-11_17h04.41.025,premceCat2_ses-02_part-02_label-phase2,2020.2.10,Win32,60,,,,,,,,,0,75,75,91,1,stimuli/objects/cuttingpliers02.jpg,right,new,235,,,,,,,,,,,,,,,
,,,,,,,,3,2021-04-11_17h04.41.025,premceCat2_ses-02_part-02_label-phase2,2020.2.10,Win32,60,,,,,left,1.142845,4,0.003825,,,,,,,,,,right,0.44783,0,0,0,0,1,,,,,,,,
,,,,,,,,3,2021-04-11_17h04.41.025,premceCat2_ses-02_part-02_label-phase2,2020.2.10,Win32,60,,,,,,,,,0,76,76,134,1,stimuli/objects/electricoutlet.jpg,left,old,278,,,,,,,,,,,,,,,
,,,,,,,,3,2021-04-11_17h04.41.025,premceCat2_ses-02_part-02_label-phase2,2020.2.10,Win32,60,,,,,left,1.333225,4,0.5,,,,,,,,,,right,0.23,0,0,0,0,1,,,,,,,,
,,,,,,,,3,2021-04-11_17h04.41.025,premceCat2_ses-02_part-02_label-phase2,2020.2.10,Win32,60,,,,,,,,,0,77,77,72,1,stimuli/objects/paintroller01.jpg,left,old,216,,,,,,,,,,,,,,,
,,,,,,,,3,2021-04-11_17h04.41.025,premceCat2_ses-02_part-02_label-phase2,2020.2.10,Win32,60,,,,,right,1.335315,1,0.33511,0,78,78,47,1,stimuli/objects/plate01b.jpg,right,new,191,,,,,,,,,,,,,,,
,,,,,,,,3,2021-04-11_17h04.41.025,premceCat2_ses-02_part-02_label-phase2,2020.2.10,Win32,60,,,,,right,1.35028,2,0.46762,0,79,79,124,1,stimuli/objects/basketball01.jpg,right,new,268,,,,,,,,,,,,,,,
,,,,,,,,3,2021-04-11_17h04.41.025,premceCat2_ses-02_part-02_label-phase2,2020.2.10,Win32,60,,,,,right,0.925975,4,1.389875,0,80,80,120,1,stimuli/objects/tent.jpg,right,new,264,,,,,,,,,,,,,,,
,,,,,,,,3,2021-04-11_17h04.41.025,premceCat2_ses-02_part-02_label-phase2,2020.2.10,Win32,60,,,,,left,1.12564,2,1.31771,,,,,,,,,,left,1.048325,0,0,0,0,1,,,,,,,,
,,,,,,,,3,2021-04-11_17h04.41.025,premceCat2_ses-02_part-02_label-phase2,2020.2.10,Win32,60,,,,,,,,,0,81,81,58,1,stimuli/objects/skiboot01a.jpg,left,old,202,,,,,,,,,,,,,,,
,,,,,,,,3,2021-04-11_17h04.41.025,premceCat2_ses-02_part-02_label-phase2,2020.2.10,Win32,60,,,,,left,1.01517,1,0.722555,,,,,,,,,,left,0.262445,0,0,0,0,1,,,,,,,,
,,,,,,,,3,2021-04-11_17h04.41.025,premceCat2_ses-02_part-02_label-phase2,2020.2.10,Win32,60,,,,,,,,,0,82,82,132,1,stimuli/objects/wirestripper.jpg,right,new,276,,,,,,,,,,,,,,,
,,,,,,,,3,2021-04-11_17h04.41.025,premceCat2_ses-02_part-02_label-phase2,2020.2.10,Win32,60,,,,,left,2.220365,4,0.210595,,,,,,,,,,left,0.14012,0,0,0,0,1,,,,,,,,
,,,,,,,,3,2021-04-11_17h04.41.025,premceCat2_ses-02_part-02_label-phase2,2020.2.10,Win32,60,,,,,,,,,0,83,83,97,1,stimuli/objects/peeler01.jpg,left,old,241,,,,,,,,,,,,,,,
,,,,,,,,3,2021-04-11_17h04.41.025,premceCat2_ses-02_part-02_label-phase2,2020.2.10,Win32,60,,,,,left,1.195435,4,0.22659,,,,,,,,,,right,0.298995,0,0,0,0,1,,,,,,,,
,,,,,,,,3,2021-04-11_17h04.41.025,premceCat2_ses-02_part-02_label-phase2,2020.2.10,Win32,60,,,,,,,,,0,84,84,104,1,stimuli/objects/securitycamera.jpg,left,old,248,,,,,,,,,,,,,,,
,,,,,,,,3,2021-04-11_17h04.41.025,premceCat2_ses-02_part-02_label-phase2,2020.2.10,Win32,60,,,,,right,1.824075,1,0.843865,0,85,85,96,1,stimuli/objects/boltcutter.jpg,left,old,240,,,,,,,,,,,,,,,
,,,,,,,,3,2021-04-11_17h04.41.025,premceCat2_ses-02_part-02_label-phase2,2020.2.10,Win32,60,,,,,right,1.67891,1,0.05698,0,86,86,30,1,stimuli/objects/halogenlightbulb.jpg,right,new,174,,,,,,,,,,,,,,,
,,,,,,,,3,2021-04-11_17h04.41.025,premceCat2_ses-02_part-02_label-phase2,2020.2.10,Win32,60,,,,,right,1.29486,1,0.121655,0,87,87,0,1,stimuli/objects/smokedetector02.jpg,right,new,144,,,,,,,,,,,,,,,
,,,,,,,,3,2021-04-11_17h04.41.025,premceCat2_ses-02_part-02_label-phase2,2020.2.10,Win32,60,,,,,left,1.09122,4,0.00055,,,,,,,,,,left,0.36552,0,0,0,0,1,,,,,,,,
,,,,,,,,3,2021-04-11_17h04.41.025,premceCat2_ses-02_part-02_label-phase2,2020.2.10,Win32,60,,,,,,,,,0,88,88,28,1,stimuli/objects/oven.jpg,left,old,172,,,,,,,,,,,,,,,
,,,,,,,,3,2021-04-11_17h04.41.025,premceCat2_ses-02_part-02_label-phase2,2020.2.10,Win32,60,,,,,right,1.90908,4,1.047115,0,89,89,98,1,stimuli/objects/cameracase01a.jpg,right,new,242,,,,,,,,,,,,,,,
,,,,,,,,3,2021-04-11_17h04.41.025,premceCat2_ses-02_part-02_label-phase2,2020.2.10,Win32,60,,,,,right,1.10194,4,0.48009,0,90,90,34,1,stimuli/objects/kneepad01c.jpg,right,new,178,,,,,,,,,,,,,,,
,,,,,,,,3,2021-04-11_17h04.41.025,premceCat2_ses-02_part-02_label-phase2,2020.2.10,Win32,60,,,,,left,1.57526,2,0.25909,,,,,,,,,,left,0.74151,0,0,0,0,1,,,,,,,,
,,,,,,,,3,2021-04-11_17h04.41.025,premceCat2_ses-02_part-02_label-phase2,2020.2.10,Win32,60,,,,,,,,,0,91,91,108,1,stimuli/objects/outletadapter.jpg,left,old,252,,,,,,,,,,,,,,,
,,,,,,,,3,2021-04-11_17h04.41.025,premceCat2_ses-02_part-02_label-phase2,2020.2.10,Win32,60,,,,,right,1.633595,4,0.16204,0,92,92,41,1,stimuli/objects/flask.jpg,right,new,185,,,,,,,,,,,,,,,
,,,,,,,,3,2021-04-11_17h04.41.025,premceCat2_ses-02_part-02_label-phase2,2020.2.10,Win32,60,,,,,right,1.24993,4,0.40735,0,93,93,141,1,stimuli/objects/waterbottle03.jpg,left,old,285,,,,,,,,,,,,,,,
,,,,,,,,3,2021-04-11_17h04.41.025,premceCat2_ses-02_part-02_label-phase2,2020.2.10,Win32,60,,,,,left,1.11642,4,0.102805,,,,,,,,,,left,0.26092,0,0,0,0,1,,,,,,,,
,,,,,,,,3,2021-04-11_17h04.41.025,premceCat2_ses-02_part-02_label-phase2,2020.2.10,Win32,60,,,,,,,,,0,94,94,100,1,stimuli/objects/setsquare.jpg,left,old,244,,,,,,,,,,,,,,,
,,,,,,,,3,2021-04-11_17h04.41.025,premceCat2_ses-02_part-02_label-phase2,2020.2.10,Win32,60,,,,,left,1.73655,2,0.26497,,,,,,,,,,left,0.43121,0,0,0,0,1,,,,,,,,
,,,,,,,,3,2021-04-11_17h04.41.025,premceCat2_ses-02_part-02_label-phase2,2020.2.10,Win32,60,,,,,,,,,0,95,95,94,1,stimuli/objects/file.jpg,right,new,238,,,,,,,,,,,,,,,
,,,,,,,,3,2021-04-11_17h04.41.025,premceCat2_ses-02_part-02_label-phase2,2020.2.10,Win32,60,,,,,left,1.33716,4,0.35642,,,,,,,,,,right,0.33,0,0,0,0,1,,,,,,,,
,,,,,,,,3,2021-04-11_17h04.41.025,premceCat2_ses-02_part-02_label-phase2,2020.2.10,Win32,60,,,,,,,,,0,96,96,29,1,stimuli/objects/slidetray.jpg,left,old,173,,,,,,,,,,,,,,,
,,,,,,,,3,2021-04-11_17h04.41.025,premceCat2_ses-02_part-02_label-phase2,2020.2.10,Win32,60,,,,,left,1.44559,4,0.0417,,,,,,,,,,right,0.80854,0,0,0,0,1,,,,,,,,
,,,,,,,,3,2021-04-11_17h04.41.025,premceCat2_ses-02_part-02_label-phase2,2020.2.10,Win32,60,,,,,,,,,0,97,97,18,1,stimuli/objects/fanblades.jpg,left,old,162,,,,,,,,,,,,,,,
,,,,,,,,3,2021-04-11_17h04.41.025,premceCat2_ses-02_part-02_label-phase2,2020.2.10,Win32,60,,,,,left,1.62504,4,1.52719,,,,,,,,,,left,0.220625,0,0,0,0,1,,,,,,,,
,,,,,,,,3,2021-04-11_17h04.41.025,premceCat2_ses-02_part-02_label-phase2,2020.2.10,Win32,60,,,,,,,,,0,98,98,62,1,stimuli/objects/shotglass.jpg,left,old,206,,,,,,,,,,,,,,,
,,,,,,,,3,2021-04-11_17h04.41.025,premceCat2_ses-02_part-02_label-phase2,2020.2.10,Win32,60,,,,,right,1.96114,1,0.41515,0,99,99,81,1,stimuli/objects/grill.jpg,right,new,225,,,,,,,,,,,,,,,
,,,,,,,,3,2021-04-11_17h04.41.025,premceCat2_ses-02_part-02_label-phase2,2020.2.10,Win32,60,,,,,right,1.36672,3,0.154675,0,100,100,92,1,stimuli/objects/axe01.jpg,left,old,236,,,,,,,,,,,,,,,
,,,,,,,,3,2021-04-11_17h04.41.025,premceCat2_ses-02_part-02_label-phase2,2020.2.10,Win32,60,,,,,left,1.10048,4,0.96634,,,,,,,,,,right,0.35124,0,0,0,0,1,,,,,,,,
,,,,,,,,3,2021-04-11_17h04.41.025,premceCat2_ses-02_part-02_label-phase2,2020.2.10,Win32,60,,,,,,,,,0,101,101,106,1,stimuli/objects/phonejack.jpg,left,old,250,,,,,,,,,,,,,,,
,,,,,,,,3,2021-04-11_17h04.41.025,premceCat2_ses-02_part-02_label-phase2,2020.2.10,Win32,60,,,,,left,2.066615,2,0.948645,,,,,,,,,,left,0.271065,0,0,0,0,1,,,,,,,,
,,,,,,,,3,2021-04-11_17h04.41.025,premceCat2_ses-02_part-02_label-phase2,2020.2.10,Win32,60,,,,,,,,,0,102,102,70,1,stimuli/objects/shovel01.jpg,right,new,214,,,,,,,,,,,,,,,
,,,,,,,,3,2021-04-11_17h04.41.025,premceCat2_ses-02_part-02_label-phase2,2020.2.10,Win32,60,,,,,left,1.009095,4,0.602645,,,,,,,,,,left,0.735665,0,0,0,0,1,,,,,,,,
,,,,,,,,3,2021-04-11_17h04.41.025,premceCat2_ses-02_part-02_label-phase2,2020.2.10,Win32,60,,,,,,,,,0,103,103,54,1,stimuli/objects/ladder.jpg,left,old,198,,,,,,,,,,,,,,,
,,,,,,,,3,2021-04-11_17h04.41.025,premceCat2_ses-02_part-02_label-phase2,2020.2.10,Win32,60,,,,,right,2.438435,3,0.819535,0,104,104,87,1,stimuli/objects/wiicontroller.jpg,right,new,231,,,,,,,,,,,,,,,
,,,,,,,,3,2021-04-11_17h04.41.025,premceCat2_ses-02_part-02_label-phase2,2020.2.10,Win32,60,,,,,right,0.76623,2,0.41967,0,105,105,73,1,stimuli/objects/shinpad.jpg,left,old,217,,,,,,,,,,,,,,,
,,,,,,,,3,2021-04-11_17h04.41.025,premceCat2_ses-02_part-02_label-phase2,2020.2.10,Win32,60,,,,,right,1.521635,2,0.378615,0,106,106,114,1,stimuli/objects/drinkshaker.jpg,right,new,258,,,,,,,,,,,,,,,
,,,,,,,,3,2021-04-11_17h04.41.025,premceCat2_ses-02_part-02_label-phase2,2020.2.10,Win32,60,,,,,right,1.529065,2,0.07926,0,107,107,116,1,stimuli/objects/lockingplier.jpg,right,new,260,,,,,,,,,,,,,,,
,,,,,,,,3,2021-04-11_17h04.41.025,premceCat2_ses-02_part-02_label-phase2,2020.2.10,Win32,60,,,,,left,3.67686,4,0.629855,,,,,,,,,,right,0.360045,0,0,0,0,1,,,,,,,,
,,,,,,,,3,2021-04-11_17h04.41.025,premceCat2_ses-02_part-02_label-phase2,2020.2.10,Win32,60,,,,,,,,,0,108,108,67,1,stimuli/objects/desktopcomputer.jpg,left,old,211,,,,,,,,,,,,,,,
,,,,,,,,3,2021-04-11_17h04.41.025,premceCat2_ses-02_part-02_label-phase2,2020.2.10,Win32,60,,,,,left,1.66905,1,0.67554,,,,,,,,,,left,0.427735,0,0,0,0,1,,,,,,,,
,,,,,,,,3,2021-04-11_17h04.41.025,premceCat2_ses-02_part-02_label-phase2,2020.2.10,Win32,60,,,,,,,,,0,109,109,32,1,stimuli/objects/travelmug.jpg,left,old,176,,,,,,,,,,,,,,,
,,,,,,,,3,2021-04-11_17h04.41.025,premceCat2_ses-02_part-02_label-phase2,2020.2.10,Win32,60,,,,,left,1.72918,4,0.00058,,,,,,,,,,right,1.47645,0,0,0,0,1,,,,,,,,
,,,,,,,,3,2021-04-11_17h04.41.025,premceCat2_ses-02_part-02_label-phase2,2020.2.10,Win32,60,,,,,,,,,0,110,110,118,1,stimuli/objects/caulking.jpg,left,old,262,,,,,,,,,,,,,,,
,,,,,,,,3,2021-04-11_17h04.41.025,premceCat2_ses-02_part-02_label-phase2,2020.2.10,Win32,60,,,,,left,1.46428,4,0.2935,,,,,,,,,,left,0.39979,0,0,0,0,1,,,,,,,,
,,,,,,,,3,2021-04-11_17h04.41.025,premceCat2_ses-02_part-02_label-phase2,2020.2.10,Win32,60,,,,,,,,,0,111,111,75,1,stimuli/objects/painttray.jpg,left,old,219,,,,,,,,,,,,,,,
,,,,,,,,3,2021-04-11_17h04.41.025,premceCat2_ses-02_part-02_label-phase2,2020.2.10,Win32,60,,,,,left,1.200675,4,1.14472,,,,,,,,,,right,0.33063,0,0,0,0,1,,,,,,,,
,,,,,,,,3,2021-04-11_17h04.41.025,premceCat2_ses-02_part-02_label-phase2,2020.2.10,Win32,60,,,,,,,,,0,112,112,15,1,stimuli/objects/computermouse06.jpg,right,new,159,,,,,,,,,,,,,,,
,,,,,,,,3,2021-04-11_17h04.41.025,premceCat2_ses-02_part-02_label-phase2,2020.2.10,Win32,60,,,,,right,1.303225,4,0.008065,0,113,113,138,1,stimuli/objects/beermug01a.jpg,right,new,282,,,,,,,,,,,,,,,
,,,,,,,,3,2021-04-11_17h04.41.025,premceCat2_ses-02_part-02_label-phase2,2020.2.10,Win32,60,,,,,left,1.458615,1,0.714275,,,,,,,,,,left,0.245935,0,0,0,0,1,,,,,,,,
,,,,,,,,3,2021-04-11_17h04.41.025,premceCat2_ses-02_part-02_label-phase2,2020.2.10,Win32,60,,,,,,,,,0,114,114,23,1,stimuli/objects/surfboard.jpg,left,old,167,,,,,,,,,,,,,,,
,,,,,,,,3,2021-04-11_17h04.41.025,premceCat2_ses-02_part-02_label-phase2,2020.2.10,Win32,60,,,,,right,1.5528,2,0.2758,0,115,115,109,1,stimuli/objects/saladspinner.jpg,left,old,253,,,,,,,,,,,,,,,
,,,,,,,,3,2021-04-11_17h04.41.025,premceCat2_ses-02_part-02_label-phase2,2020.2.10,Win32,60,,,,,right,6.054765,1,0.67705,0,116,116,33,1,stimuli/objects/scanner.jpg,left,old,177,,,,,,,,,,,,,,,
,,,,,,,,3,2021-04-11_17h04.41.025,premceCat2_ses-02_part-02_label-phase2,2020.2.10,Win32,60,,,,,left,1.59608,4,0.326485,,,,,,,,,,right,0.301715,0,0,0,0,1,,,,,,,,
,,,,,,,,3,2021-04-11_17h04.41.025,premceCat2_ses-02_part-02_label-phase2,2020.2.10,Win32,60,,,,,,,,,0,117,117,76,1,stimuli/objects/papershredder.jpg,left,old,220,,,,,,,,,,,,,,,
,,,,,,,,3,2021-04-11_17h04.41.025,premceCat2_ses-02_part-02_label-phase2,2020.2.10,Win32,60,,,,,right,1.19267,2,2.3279,0,118,118,50,1,stimuli/objects/boatmotor.jpg,left,old,194,,,,,,,,,,,,,,,
,,,,,,,,3,2021-04-11_17h04.41.025,premceCat2_ses-02_part-02_label-phase2,2020.2.10,Win32,60,,,,,left,1.242305,1,0.476815,,,,,,,,,,left,1.18305,0,0,0,0,1,,,,,,,,
,,,,,,,,3,2021-04-11_17h04.41.025,premceCat2_ses-02_part-02_label-phase2,2020.2.10,Win32,60,,,,,,,,,0,119,119,20,1,stimuli/objects/treadmill.jpg,left,old,164,,,,,,,,,,,,,,,
,,,,,,,,3,2021-04-11_17h04.41.025,premceCat2_ses-02_part-02_label-phase2,2020.2.10,Win32,60,,,,,left,3.081895,2,0.83595,,,,,,,,,,left,0.05927,0,0,0,0,1,,,,,,,,
,,,,,,,,3,2021-04-11_17h04.41.025,premceCat2_ses-02_part-02_label-phase2,2020.2.10,Win32,60,,,,,,,,,0,120,120,89,1,stimuli/objects/rollingpin01a.jpg,left,old,233,,,,,,,,,,,,,,,
,,,,,,,,3,2021-04-11_17h04.41.025,premceCat2_ses-02_part-02_label-phase2,2020.2.10,Win32,60,,,,,right,1.46553,3,0.953665,0,121,121,48,1,stimuli/objects/eggslicer.jpg,right,new,192,,,,,,,,,,,,,,,
,,,,,,,,3,2021-04-11_17h04.41.025,premceCat2_ses-02_part-02_label-phase2,2020.2.10,Win32,60,,,,,left,1.162895,4,0.50996,,,,,,,,,,right,0.219415,0,0,0,0,1,,,,,,,,
,,,,,,,,3,2021-04-11_17h04.41.025,premceCat2_ses-02_part-02_label-phase2,2020.2.10,Win32,60,,,,,,,,,0,122,122,130,1,stimuli/objects/ipad02.jpg,left,old,274,,,,,,,,,,,,,,,
,,,,,,,,3,2021-04-11_17h04.41.025,premceCat2_ses-02_part-02_label-phase2,2020.2.10,Win32,60,,,,,left,1.12988,4,0.29062,,,,,,,,,,left,0.40832,0,0,0,0,1,,,,,,,,
,,,,,,,,3,2021-04-11_17h04.41.025,premceCat2_ses-02_part-02_label-phase2,2020.2.10,Win32,60,,,,,,,,,0,123,123,56,1,stimuli/objects/cork02.jpg,left,old,200,,,,,,,,,,,,,,,
,,,,,,,,3,2021-04-11_17h04.41.025,premceCat2_ses-02_part-02_label-phase2,2020.2.10,Win32,60,,,,,right,2.661475,2,2.96451,0,124,124,101,1,stimuli/objects/lifejacket.jpg,right,new,245,,,,,,,,,,,,,,,
,,,,,,,,3,2021-04-11_17h04.41.025,premceCat2_ses-02_part-02_label-phase2,2020.2.10,Win32,60,,,,,left,2.294995,4,0.64698,,,,,,,,,,right,0.75548,0,0,0,0,1,,,,,,,,
,,,,,,,,3,2021-04-11_17h04.41.025,premceCat2_ses-02_part-02_label-phase2,2020.2.10,Win32,60,,,,,,,,,0,125,125,60,1,stimuli/objects/kite.jpg,right,new,204,,,,,,,,,,,,,,,
,,,,,,,,3,2021-04-11_17h04.41.025,premceCat2_ses-02_part-02_label-phase2,2020.2.10,Win32,60,,,,,right,2.363065,2,0.66939,0,126,126,66,1,stimuli/objects/heatpump.jpg,right,new,210,,,,,,,,,,,,,,,
,,,,,,,,3,2021-04-11_17h04.41.025,premceCat2_ses-02_part-02_label-phase2,2020.2.10,Win32,60,,,,,left,1.026215,4,0.002055,,,,,,,,,,left,0.00072,0,0,0,0,1,,,,,,,,
,,,,,,,,3,2021-04-11_17h04.41.025,premceCat2_ses-02_part-02_label-phase2,2020.2.10,Win32,60,,,,,,,,,0,127,127,7,1,stimuli/objects/bottlecap.jpg,left,old,151,,,,,,,,,,,,,,,
,,,,,,,,3,2021-04-11_17h04.41.025,premceCat2_ses-02_part-02_label-phase2,2020.2.10,Win32,60,,,,,right,1.730125,1,0.64105,0,128,128,5,1,stimuli/objects/pickaxe02.jpg,right,new,149,,,,,,,,,,,,,,,
,,,,,,,,3,2021-04-11_17h04.41.025,premceCat2_ses-02_part-02_label-phase2,2020.2.10,Win32,60,,,,,right,1.12676,3,1.055005,0,129,129,6,1,stimuli/objects/solderingwire.jpg,right,new,150,,,,,,,,,,,,,,,
,,,,,,,,3,2021-04-11_17h04.41.025,premceCat2_ses-02_part-02_label-phase2,2020.2.10,Win32,60,,,,,left,1.29208,4,0.00358,,,,,,,,,,left,0.541625,0,0,0,0,1,,,,,,,,
,,,,,,,,3,2021-04-11_17h04.41.025,premceCat2_ses-02_part-02_label-phase2,2020.2.10,Win32,60,,,,,,,,,0,130,130,8,1,stimuli/objects/tape02a.jpg,left,old,152,,,,,,,,,,,,,,,
,,,,,,,,3,2021-04-11_17h04.41.025,premceCat2_ses-02_part-02_label-phase2,2020.2.10,Win32,60,,,,,left,2.913715,1,0.358655,,,,,,,,,,left,0.90093,0,0,0,0,1,,,,,,,,
,,,,,,,,3,2021-04-11_17h04.41.025,premceCat2_ses-02_part-02_label-phase2,2020.2.10,Win32,60,,,,,,,,,0,131,131,17,1,stimuli/objects/baseball01a.jpg,left,old,161,,,,,,,,,,,,,,,
,,,,,,,,3,2021-04-11_17h04.41.025,premceCat2_ses-02_part-02_label-phase2,2020.2.10,Win32,60,,,,,left,1.292645,2,0.409615,,,,,,,,,,left,0.24778,0,0,0,0,1,,,,,,,,
,,,,,,,,3,2021-04-11_17h04.41.025,premceCat2_ses-02_part-02_label-phase2,2020.2.10,Win32,60,,,,,,,,,0,132,132,3,1,stimuli/objects/boxingglove01.jpg,right,new,147,,,,,,,,,,,,,,,
,,,,,,,,3,2021-04-11_17h04.41.025,premceCat2_ses-02_part-02_label-phase2,2020.2.10,Win32,60,,,,,left,1.16182,2,1.48306,,,,,,,,,,right,0.938765,0,0,0,0,1,,,,,,,,
,,,,,,,,3,2021-04-11_17h04.41.025,premceCat2_ses-02_part-02_label-phase2,2020.2.10,Win32,60,,,,,,,,,0,133,133,113,1,stimuli/objects/sewingmachine01a.jpg,left,old,257,,,,,,,,,,,,,,,
,,,,,,,,3,2021-04-11_17h04.41.025,premceCat2_ses-02_part-02_label-phase2,2020.2.10,Win32,60,,,,,left,2.050925,3,0.25082,,,,,,,,,,right,0.32229,0,0,0,0,1,,,,,,,,
,,,,,,,,3,2021-04-11_17h04.41.025,premceCat2_ses-02_part-02_label-phase2,2020.2.10,Win32,60,,,,,,,,,0,134,134,122,1,stimuli/objects/hockeystick.jpg,right,new,266,,,,,,,,,,,,,,,
,,,,,,,,3,2021-04-11_17h04.41.025,premceCat2_ses-02_part-02_label-phase2,2020.2.10,Win32,60,,,,,right,1.19027,1,0.387975,0,135,135,16,1,stimuli/objects/bottleopener01.jpg,right,new,160,,,,,,,,,,,,,,,
,,,,,,,,3,2021-04-11_17h04.41.025,premceCat2_ses-02_part-02_label-phase2,2020.2.10,Win32,60,,,,,right,1.144495,1,0.570105,0,136,136,13,1,stimuli/objects/gardenshears01a.jpg,left,old,157,,,,,,,,,,,,,,,
,,,,,,,,3,2021-04-11_17h04.41.025,premceCat2_ses-02_part-02_label-phase2,2020.2.10,Win32,60,,,,,left,3.83212,2,0.360005,,,,,,,,,,right,0.214905,0,0,0,0,1,,,,,,,,
,,,,,,,,3,2021-04-11_17h04.41.025,premceCat2_ses-02_part-02_label-phase2,2020.2.10,Win32,60,,,,,,,,,0,137,137,36,1,stimuli/objects/loppingshears.jpg,right,new,180,,,,,,,,,,,,,,,
,,,,,,,,3,2021-04-11_17h04.41.025,premceCat2_ses-02_part-02_label-phase2,2020.2.10,Win32,60,,,,,left,1.39623,2,1.0028,,,,,,,,,,left,0.8823,0,0,0,0,1,,,,,,,,
,,,,,,,,3,2021-04-11_17h04.41.025,premceCat2_ses-02_part-02_label-phase2,2020.2.10,Win32,60,,,,,,,,,0,138,138,45,1,stimuli/objects/charcoalbarbecue.jpg,left,old,189,,,,,,,,,,,,,,,
,,,,,,,,3,2021-04-11_17h04.41.025,premceCat2_ses-02_part-02_label-phase2,2020.2.10,Win32,60,,,,,right,0.87634,2,0.41814,0,139,139,55,1,stimuli/objects/fonduefork01.jpg,right,new,199,,,,,,,,,,,,,,,
,,,,,,,,3,2021-04-11_17h04.41.025,premceCat2_ses-02_part-02_label-phase2,2020.2.10,Win32,60,,,,,left,0.830045,2,1.41514,,,,,,,,,,right,0.376175,0,0,0,0,1,,,,,,,,
,,,,,,,,3,2021-04-11_17h04.41.025,premceCat2_ses-02_part-02_label-phase2,2020.2.10,Win32,60,,,,,,,,,0,140,140,4,1,stimuli/objects/cassettetape01a.jpg,right,new,148,,,,,,,,,,,,,,,
,,,,,,,,3,2021-04-11_17h04.41.025,premceCat2_ses-02_part-02_label-phase2,2020.2.10,Win32,60,,,,,right,1.005615,4,0.187315,0,141,141,135,1,stimuli/objects/mortarandpestle.jpg,right,new,279,,,,,,,,,,,,,,,
,,,,,,,,3,2021-04-11_17h04.41.025,premceCat2_ses-02_part-02_label-phase2,2020.2.10,Win32,60,,,,,right,0.808835,4,0.35912,0,142,142,142,1,stimuli/objects/needlenosepliers01.jpg,right,new,286,,,,,,,,,,,,,,,
,,,,,,,,3,2021-04-11_17h04.41.025,premceCat2_ses-02_part-02_label-phase2,2020.2.10,Win32,60,,,,,,,,,,,,,,,,,,,,,,,,,space,1.56747,0,1,1,1,1,condition_files/ImagesforRecog4_2.csv
