myownaccuracy,respcorrs,minNrPractice,considerNrTrials,Instr_resp.keys,Instr_resp.rt,key_resp_2.keys,key_resp_2.rt,Instruction_loop.thisRepN,Instruction_loop.thisTrialN,Instruction_loop.thisN,Instruction_loop.thisIndex,Instruction_loop.ran,slides,participant,date,expName,psychopyVersion,OS,frameRate,key_resp_3.keys,key_resp_3.rt,taskGoresp.keys,taskGoresp.rt,pract_resp.keys,pract_resp.corr,pract_resp.rt,myownaccuracyCORR,pract_loop.thisRepN,pract_loop.thisTrialN,pract_loop.thisN,pract_loop.thisIndex,pract_loop.ran,first_character,second_character,Cue,left_categ,centleft_categ,centright_categ,right_categ,corr_ans,trial_cond,switch_cond,cuedCharacter,corrCat,image,rep_resp.keys,rep_resp.rt,repeat_pract.thisRepN,repeat_pract.thisTrialN,repeat_pract.thisN,repeat_pract.thisIndex,repeat_pract.ran,task_resp.keys,task_resp.corr,task_resp.rt,task_loop.thisRepN,task_loop.thisTrialN,task_loop.thisN,task_loop.thisIndex,task_loop.ran,obj_category,rep_resp_2.keys,rep_resp_2.rt,repeat_task2.thisRepN,repeat_task2.thisTrialN,repeat_task2.thisN,repeat_task2.thisIndex,repeat_task2.ran
[],[],10,10,space,0.869435,space,0.60654,0,0,0,0,1,stimuli/slide1.png,3,2021-04-10_15h13.57.967,premceCat2_ses-01_part-01_label-phase1,2020.2.9,Win32,60,,,,,,,,,,,,,,,,,,,,,,,,,,,,,,,,,,,,,,,,,,,,,,,,,
,,,,,,space,0.81547,0,1,1,1,1,stimuli/slide2.png,3,2021-04-10_15h13.57.967,premceCat2_ses-01_part-01_label-phase1,2020.2.9,Win32,60,,,,,,,,,,,,,,,,,,,,,,,,,,,,,,,,,,,,,,,,,,,,,,,,,
,,,,,,space,1.359185,0,2,2,2,1,stimuli/slide3.png,3,2021-04-10_15h13.57.967,premceCat2_ses-01_part-01_label-phase1,2020.2.9,Win32,60,,,,,,,,,,,,,,,,,,,,,,,,,,,,,,,,,,,,,,,,,,,,,,,,,
,,,,,,space,0.37237,0,3,3,3,1,stimuli/slide4.png,3,2021-04-10_15h13.57.967,premceCat2_ses-01_part-01_label-phase1,2020.2.9,Win32,60,,,,,,,,,,,,,,,,,,,,,,,,,,,,,,,,,,,,,,,,,,,,,,,,,
,,,,,,space,0.35576,0,4,4,4,1,stimuli/slide5.png,3,2021-04-10_15h13.57.967,premceCat2_ses-01_part-01_label-phase1,2020.2.9,Win32,60,,,,,,,,,,,,,,,,,,,,,,,,,,,,,,,,,,,,,,,,,,,,,,,,,
,,,,,,space,0.309045,0,5,5,5,1,stimuli/slide6.png,3,2021-04-10_15h13.57.967,premceCat2_ses-01_part-01_label-phase1,2020.2.9,Win32,60,,,,,,,,,,,,,,,,,,,,,,,,,,,,,,,,,,,,,,,,,,,,,,,,,
1,[],,,,,,,,,,,,,3,2021-04-10_15h13.57.967,premceCat2_ses-01_part-01_label-phase1,2020.2.9,Win32,60,space,2.005855,space,0.477365,4,1,2.01174,1,0,0,0,0,1,stimuli/m1.jpg,stimuli/m4.jpg,2,stimuli/Stationary & school supply.png,stimuli/Vehicle.png,stimuli/Gamestoy & entertainment.png,stimuli/Clothing.png,4,1,0,stimuli/m4.jpg,Clothing,stimuli/objects/sneaker03b.jpg,,,,,,,,,,,,,,,,,,,,,,,
0,[1],,,,,,,,,,,,,3,2021-04-10_15h13.57.967,premceCat2_ses-01_part-01_label-phase1,2020.2.9,Win32,60,,,,,2,0,0.8098,1,0,1,1,1,1,stimuli/m1.jpg,stimuli/m4.jpg,2,stimuli/Stationary & school supply.png,stimuli/Clothing.png,stimuli/Vehicle.png,stimuli/Gamestoy & entertainment.png,1,0,0,stimuli/m4.jpg,Stationary & school supply,stimuli/objects/paperclip01b.jpg,,,,,,,,,,,,,,,,,,,,,,,
1,[1],,,,,,,,,,,,,3,2021-04-10_15h13.57.967,premceCat2_ses-01_part-01_label-phase1,2020.2.9,Win32,60,,,,,2,1,0.788915,1,0,2,2,2,1,stimuli/m1.jpg,stimuli/m4.jpg,1,stimuli/Vehicle.png,stimuli/Stationary & school supply.png,stimuli/Clothing.png,stimuli/Gamestoy & entertainment.png,2,1,0,stimuli/m1.jpg,Stationary & school supply,stimuli/objects/protractor.jpg,,,,,,,,,,,,,,,,,,,,,,,
1,"[1,1]",,,,,,,,,,,,,3,2021-04-10_15h13.57.967,premceCat2_ses-01_part-01_label-phase1,2020.2.9,Win32,60,,,,,4,1,1.099675,1,0,3,3,3,1,stimuli/m4.jpg,stimuli/m1.jpg,1,stimuli/Stationary & school supply.png,stimuli/Vehicle.png,stimuli/Gamestoy & entertainment.png,stimuli/Clothing.png,4,1,0,stimuli/m4.jpg,Clothing,stimuli/objects/hikingshoe01.jpg,,,,,,,,,,,,,,,,,,,,,,,
1,"[1,1,1]",,,,,,,,,,,,,3,2021-04-10_15h13.57.967,premceCat2_ses-01_part-01_label-phase1,2020.2.9,Win32,60,,,,,2,1,0.811285,1,0,4,4,4,1,stimuli/m1.jpg,stimuli/m4.jpg,1,stimuli/Clothing.png,stimuli/Stationary & school supply.png,stimuli/Vehicle.png,stimuli/Gamestoy & entertainment.png,2,1,0,stimuli/m1.jpg,Stationary & school supply,stimuli/objects/book01b.jpg,,,,,,,,,,,,,,,,,,,,,,,
1,"[1,1,1,1]",,,,,,,,,,,,,3,2021-04-10_15h13.57.967,premceCat2_ses-01_part-01_label-phase1,2020.2.9,Win32,60,,,,,4,1,1.248535,1,0,5,5,5,1,stimuli/m4.jpg,stimuli/m1.jpg,1,stimuli/Stationary & school supply.png,stimuli/Gamestoy & entertainment.png,stimuli/Vehicle.png,stimuli/Clothing.png,4,1,0,stimuli/m4.jpg,Clothing,stimuli/objects/shoelace.jpg,,,,,,,,,,,,,,,,,,,,,,,
1,"[1,1,1,1,1]",,,,,,,,,,,,,3,2021-04-10_15h13.57.967,premceCat2_ses-01_part-01_label-phase1,2020.2.9,Win32,60,,,,,1,1,1.517895,1,0,6,6,6,1,stimuli/m1.jpg,stimuli/m4.jpg,2,stimuli/Clothing.png,stimuli/Stationary & school supply.png,stimuli/Vehicle.png,stimuli/Gamestoy & entertainment.png,1,1,0,stimuli/m4.jpg,Clothing,stimuli/objects/moccasin.jpg,,,,,,,,,,,,,,,,,,,,,,,
1,"[1,1,1,1,1,1]",,,,,,,,,,,,,3,2021-04-10_15h13.57.967,premceCat2_ses-01_part-01_label-phase1,2020.2.9,Win32,60,,,,,2,1,1.00186,1,0,7,7,7,1,stimuli/m1.jpg,stimuli/m4.jpg,2,stimuli/Gamestoy & entertainment.png,stimuli/Clothing.png,stimuli/Stationary & school supply.png,stimuli/Vehicle.png,2,1,0,stimuli/m4.jpg,Clothing,stimuli/objects/waders.jpg,,,,,,,,,,,,,,,,,,,,,,,
1,"[1,1,1,1,1,1,1]",,,,,,,,,,,,,3,2021-04-10_15h13.57.967,premceCat2_ses-01_part-01_label-phase1,2020.2.9,Win32,60,,,,,3,1,0.826085,1,0,8,8,8,1,stimuli/m4.jpg,stimuli/m1.jpg,2,stimuli/Vehicle.png,stimuli/Gamestoy & entertainment.png,stimuli/Stationary & school supply.png,stimuli/Clothing.png,3,1,0,stimuli/m1.jpg,Stationary & school supply,stimuli/objects/eraser.jpg,,,,,,,,,,,,,,,,,,,,,,,
1,"[1,1,1,1,1,1,1,1]",,,,,,,,,,,,,3,2021-04-10_15h13.57.967,premceCat2_ses-01_part-01_label-phase1,2020.2.9,Win32,60,,,,,1,1,1.009985,1,0,9,9,9,1,stimuli/m4.jpg,stimuli/m1.jpg,2,stimuli/Stationary & school supply.png,stimuli/Vehicle.png,stimuli/Clothing.png,stimuli/Gamestoy & entertainment.png,1,1,0,stimuli/m1.jpg,Stationary & school supply,stimuli/objects/fountainpen.jpg,,,,,,,,,,,,,,,,,,,,,,,
1,"[1,1,1,1,1,1,1,1,1]",,,,,,,,,,,,,3,2021-04-10_15h13.57.967,premceCat2_ses-01_part-01_label-phase1,2020.2.9,Win32,60,,,,,2,1,0.87187,1,0,10,10,10,1,stimuli/m4.jpg,stimuli/m1.jpg,1,stimuli/Vehicle.png,stimuli/Clothing.png,stimuli/Stationary & school supply.png,stimuli/Gamestoy & entertainment.png,2,1,0,stimuli/m4.jpg,Clothing,stimuli/objects/visor.jpg,,,,,,,,,,,,,,,,,,,,,,,
,,,,,,,,,,,,,,3,2021-04-10_15h13.57.967,premceCat2_ses-01_part-01_label-phase1,2020.2.9,Win32,60,,,,,,,,,,,,,,,,,,,,,,,,,,,n,43.82571,0,0,0,0,1,,,,,,,,,,,,,,,,
0,"[1,1,1,1,1,1,1,1,1,1]",,,,,,,,,,,,,3,2021-04-10_15h13.57.967,premceCat2_ses-01_part-01_label-phase1,2020.2.9,Win32,60,,,,,,,,0,,,,,,stimuli/m2.jpg,stimuli/m5.jpg,2,stimuli/Outdoor activity & sport item.png,stimuli/Hand labour tool & accessory.png,stimuli/Electronic device & accessory.png,stimuli/Kitchen & utensil.png,2,1,1,stimuli/m5.jpg,,stimuli/objects/jumpingjack.jpg,,,,,,,,1,0,2.217885,0,0,0,0,1,Hand labour tool & accessory,,,,,,,
0,"[1,1,1,1,1,1,1,1,1,1,0]",,,,,,,,,,,,,3,2021-04-10_15h13.57.967,premceCat2_ses-01_part-01_label-phase1,2020.2.9,Win32,60,,,,,,,,0,,,,,,stimuli/m2.jpg,stimuli/m5.jpg,2,stimuli/Hand labour tool & accessory.png,stimuli/Outdoor activity & sport item.png,stimuli/Electronic device & accessory.png,stimuli/Kitchen & utensil.png,1,1,1,stimuli/m5.jpg,,stimuli/objects/boxcutter03a.jpg,,,,,,,,3,0,2.110775,0,1,1,1,1,Hand labour tool & accessory,,,,,,,
0,"[1,1,1,1,1,1,1,1,1,1,0,0]",,,,,,,,,,,,,3,2021-04-10_15h13.57.967,premceCat2_ses-01_part-01_label-phase1,2020.2.9,Win32,60,,,,,,,,0,,,,,,stimuli/m2.jpg,stimuli/m5.jpg,1,stimuli/Hand labour tool & accessory.png,stimuli/Kitchen & utensil.png,stimuli/Electronic device & accessory.png,stimuli/Outdoor activity & sport item.png,2,0,1,stimuli/m2.jpg,,stimuli/objects/huntingknife.jpg,,,,,,,,4,0,1.072095,0,2,2,2,1,Kitchen & utensil,,,,,,,
0,"[1,1,1,1,1,1,1,1,1,1,0,0]",,,,,,,,,,,,,3,2021-04-10_15h13.57.967,premceCat2_ses-01_part-01_label-phase1,2020.2.9,Win32,60,,,,,,,,0,,,,,,stimuli/m5.jpg,stimuli/m2.jpg,2,stimuli/Kitchen & utensil.png,stimuli/Electronic device & accessory.png,stimuli/Hand labour tool & accessory.png,stimuli/Outdoor activity & sport item.png,4,1,1,stimuli/m2.jpg,,stimuli/objects/footballhelmet.jpg,,,,,,,,1,0,1.120355,0,3,3,3,1,Outdoor activity & sport item,,,,,,,
0,"[1,1,1,1,1,1,1,1,1,1,0,0,0]",,,,,,,,,,,,,3,2021-04-10_15h13.57.967,premceCat2_ses-01_part-01_label-phase1,2020.2.9,Win32,60,,,,,,,,0,,,,,,stimuli/m5.jpg,stimuli/m2.jpg,1,stimuli/Outdoor activity & sport item.png,stimuli/Hand labour tool & accessory.png,stimuli/Kitchen & utensil.png,stimuli/Electronic device & accessory.png,2,1,1,stimuli/m5.jpg,,stimuli/objects/handrake01a.jpg,,,,,,,,4,0,3.033475,0,4,4,4,1,Hand labour tool & accessory,,,,,,,
1,"[1,1,1,1,1,1,1,1,1,1,0,0,0,0]",,,,,,,,,,,,,3,2021-04-10_15h13.57.967,premceCat2_ses-01_part-01_label-phase1,2020.2.9,Win32,60,,,,,,,,1,,,,,,stimuli/m2.jpg,stimuli/m5.jpg,1,stimuli/Outdoor activity & sport item.png,stimuli/Electronic device & accessory.png,stimuli/Hand labour tool & accessory.png,stimuli/Kitchen & utensil.png,1,1,1,stimuli/m2.jpg,,stimuli/objects/crosscountryski.jpg,,,,,,,,1,1,3.00971,0,5,5,5,1,Outdoor activity & sport item,,,,,,,
0,"[1,1,1,1,1,1,1,1,1,1,0,0,0,0,1]",,,,,,,,,,,,,3,2021-04-10_15h13.57.967,premceCat2_ses-01_part-01_label-phase1,2020.2.9,Win32,60,,,,,,,,1,,,,,,stimuli/m5.jpg,stimuli/m2.jpg,2,stimuli/Hand labour tool & accessory.png,stimuli/Electronic device & accessory.png,stimuli/Outdoor activity & sport item.png,stimuli/Kitchen & utensil.png,2,0,1,stimuli/m2.jpg,,stimuli/objects/television.jpg,,,,,,,,3,0,2.034005,0,6,6,6,1,Electronic device & accessory,,,,,,,
0,"[1,1,1,1,1,1,1,1,1,1,0,0,0,0,1]",,,,,,,,,,,,,3,2021-04-10_15h13.57.967,premceCat2_ses-01_part-01_label-phase1,2020.2.9,Win32,60,,,,,,,,0,,,,,,stimuli/m5.jpg,stimuli/m2.jpg,2,stimuli/Kitchen & utensil.png,stimuli/Outdoor activity & sport item.png,stimuli/Hand labour tool & accessory.png,stimuli/Electronic device & accessory.png,2,1,1,stimuli/m2.jpg,,stimuli/objects/hose.jpg,,,,,,,,4,0,1.57086,0,7,7,7,1,Outdoor activity & sport item,,,,,,,
1,"[1,1,1,1,1,1,1,1,1,1,0,0,0,0,1,0]",,,,,,,,,,,,,3,2021-04-10_15h13.57.967,premceCat2_ses-01_part-01_label-phase1,2020.2.9,Win32,60,,,,,,,,1,,,,,,stimuli/m2.jpg,stimuli/m5.jpg,2,stimuli/Hand labour tool & accessory.png,stimuli/Electronic device & accessory.png,stimuli/Kitchen & utensil.png,stimuli/Outdoor activity & sport item.png,1,1,1,stimuli/m5.jpg,,stimuli/objects/solderingiron.jpg,,,,,,,,1,1,2.9174,0,8,8,8,1,Hand labour tool & accessory,,,,,,,
1,"[1,1,1,1,1,1,1,1,1,1,0,0,0,0,1,0,1]",,,,,,,,,,,,,3,2021-04-10_15h13.57.967,premceCat2_ses-01_part-01_label-phase1,2020.2.9,Win32,60,,,,,,,,1,,,,,,stimuli/m2.jpg,stimuli/m5.jpg,2,stimuli/Electronic device & accessory.png,stimuli/Kitchen & utensil.png,stimuli/Hand labour tool & accessory.png,stimuli/Outdoor activity & sport item.png,3,1,1,stimuli/m5.jpg,,stimuli/objects/gavel.jpg,,,,,,,,3,1,1.900615,0,9,9,9,1,Hand labour tool & accessory,,,,,,,
1,"[1,1,1,1,1,1,1,1,1,1,0,0,0,0,1,0,1,1]",,,,,,,,,,,,,3,2021-04-10_15h13.57.967,premceCat2_ses-01_part-01_label-phase1,2020.2.9,Win32,60,,,,,,,,1,,,,,,stimuli/m5.jpg,stimuli/m2.jpg,1,stimuli/Kitchen & utensil.png,stimuli/Electronic device & accessory.png,stimuli/Outdoor activity & sport item.png,stimuli/Hand labour tool & accessory.png,4,1,1,stimuli/m5.jpg,,stimuli/objects/boxcutter03a.jpg,,,,,,,,4,1,1.47704,0,10,10,10,1,Hand labour tool & accessory,,,,,,,
0,"[1,1,1,1,1,1,1,1,1,1,0,0,0,0,1,0,1,1,1]",,,,,,,,,,,,,3,2021-04-10_15h13.57.967,premceCat2_ses-01_part-01_label-phase1,2020.2.9,Win32,60,,,,,,,,1,,,,,,stimuli/m2.jpg,stimuli/m5.jpg,2,stimuli/Electronic device & accessory.png,stimuli/Hand labour tool & accessory.png,stimuli/Outdoor activity & sport item.png,stimuli/Kitchen & utensil.png,1,0,1,stimuli/m5.jpg,,stimuli/objects/walkietalkie.jpg,,,,,,,,2,0,1.338085,0,11,11,11,1,Electronic device & accessory,,,,,,,
0,"[1,1,1,1,1,1,1,1,1,1,0,0,0,0,1,0,1,1,1]",,,,,,,,,,,,,3,2021-04-10_15h13.57.967,premceCat2_ses-01_part-01_label-phase1,2020.2.9,Win32,60,,,,,,,,1,,,,,,stimuli/m2.jpg,stimuli/m5.jpg,1,stimuli/Kitchen & utensil.png,stimuli/Electronic device & accessory.png,stimuli/Hand labour tool & accessory.png,stimuli/Outdoor activity & sport item.png,1,0,1,stimuli/m2.jpg,,stimuli/objects/coffeemaker.jpg,,,,,,,,4,0,1.547975,0,12,12,12,1,Kitchen & utensil,,,,,,,
0,"[1,1,1,1,1,1,1,1,1,1,0,0,0,0,1,0,1,1,1]",,,,,,,,,,,,,3,2021-04-10_15h13.57.967,premceCat2_ses-01_part-01_label-phase1,2020.2.9,Win32,60,,,,,,,,0,,,,,,stimuli/m5.jpg,stimuli/m2.jpg,2,stimuli/Outdoor activity & sport item.png,stimuli/Electronic device & accessory.png,stimuli/Kitchen & utensil.png,stimuli/Hand labour tool & accessory.png,1,1,1,stimuli/m2.jpg,,stimuli/objects/bicycle.jpg,,,,,,,,3,0,1.517205,0,13,13,13,1,Outdoor activity & sport item,,,,,,,
0,"[1,1,1,1,1,1,1,1,1,1,0,0,0,0,1,0,1,1,1,0]",,,,,,,,,,,,,3,2021-04-10_15h13.57.967,premceCat2_ses-01_part-01_label-phase1,2020.2.9,Win32,60,,,,,,,,0,,,,,,stimuli/m2.jpg,stimuli/m5.jpg,1,stimuli/Kitchen & utensil.png,stimuli/Outdoor activity & sport item.png,stimuli/Electronic device & accessory.png,stimuli/Hand labour tool & accessory.png,2,1,1,stimuli/m2.jpg,,stimuli/objects/punchingbag.jpg,,,,,,,,3,0,2.601075,0,14,14,14,1,Outdoor activity & sport item,,,,,,,
0,"[1,1,1,1,1,1,1,1,1,1,0,0,0,0,1,0,1,1,1,0,0]",,,,,,,,,,,,,3,2021-04-10_15h13.57.967,premceCat2_ses-01_part-01_label-phase1,2020.2.9,Win32,60,,,,,,,,0,,,,,,stimuli/m5.jpg,stimuli/m2.jpg,1,stimuli/Electronic device & accessory.png,stimuli/Outdoor activity & sport item.png,stimuli/Hand labour tool & accessory.png,stimuli/Kitchen & utensil.png,2,0,1,stimuli/m5.jpg,,stimuli/objects/footballhelmet.jpg,,,,,,,,1,0,1.76338,0,15,15,15,1,Outdoor activity & sport item,,,,,,,
0,"[1,1,1,1,1,1,1,1,1,1,0,0,0,0,1,0,1,1,1,0,0]",,,,,,,,,,,,,3,2021-04-10_15h13.57.967,premceCat2_ses-01_part-01_label-phase1,2020.2.9,Win32,60,,,,,,,,0,,,,,,stimuli/m5.jpg,stimuli/m2.jpg,1,stimuli/Kitchen & utensil.png,stimuli/Hand labour tool & accessory.png,stimuli/Electronic device & accessory.png,stimuli/Outdoor activity & sport item.png,4,0,1,stimuli/m5.jpg,,stimuli/objects/swing.jpg,,,,,,,,3,0,2.01122,0,16,16,16,1,Outdoor activity & sport item,,,,,,,
0,"[1,1,1,1,1,1,1,1,1,1,0,0,0,0,1,0,1,1,1,0,0]",,,,,,,,,,,,,3,2021-04-10_15h13.57.967,premceCat2_ses-01_part-01_label-phase1,2020.2.9,Win32,60,,,,,,,,0,,,,,,stimuli/m2.jpg,stimuli/m5.jpg,2,stimuli/Hand labour tool & accessory.png,stimuli/Electronic device & accessory.png,stimuli/Outdoor activity & sport item.png,stimuli/Kitchen & utensil.png,1,1,1,stimuli/m5.jpg,,stimuli/objects/pitchfork.jpg,,,,,,,,3,0,2.156385,0,17,17,17,1,Hand labour tool & accessory,,,,,,,
0,"[1,1,1,1,1,1,1,1,1,1,0,0,0,0,1,0,1,1,1,0,0,0]",,,,,,,,,,,,,3,2021-04-10_15h13.57.967,premceCat2_ses-01_part-01_label-phase1,2020.2.9,Win32,60,,,,,,,,0,,,,,,stimuli/m5.jpg,stimuli/m2.jpg,2,stimuli/Hand labour tool & accessory.png,stimuli/Outdoor activity & sport item.png,stimuli/Electronic device & accessory.png,stimuli/Kitchen & utensil.png,2,1,1,stimuli/m2.jpg,,stimuli/objects/bicycle.jpg,,,,,,,,4,0,1.24605,0,18,18,18,1,Outdoor activity & sport item,,,,,,,
0,"[1,1,1,1,1,1,1,1,1,1,0,0,0,0,1,0,1,1,1,0,0,0,0]",,,,,,,,,,,,,3,2021-04-10_15h13.57.967,premceCat2_ses-01_part-01_label-phase1,2020.2.9,Win32,60,,,,,,,,0,,,,,,stimuli/m5.jpg,stimuli/m2.jpg,1,stimuli/Hand labour tool & accessory.png,stimuli/Outdoor activity & sport item.png,stimuli/Kitchen & utensil.png,stimuli/Electronic device & accessory.png,3,0,1,stimuli/m5.jpg,,stimuli/objects/freezer02.jpg,,,,,,,,1,0,1.26491,0,19,19,19,1,Kitchen & utensil,,,,,,,
0,"[1,1,1,1,1,1,1,1,1,1,0,0,0,0,1,0,1,1,1,0,0,0,0]",,,,,,,,,,,,,3,2021-04-10_15h13.57.967,premceCat2_ses-01_part-01_label-phase1,2020.2.9,Win32,60,,,,,,,,0,,,,,,stimuli/m2.jpg,stimuli/m5.jpg,1,stimuli/Kitchen & utensil.png,stimuli/Hand labour tool & accessory.png,stimuli/Electronic device & accessory.png,stimuli/Outdoor activity & sport item.png,2,0,1,stimuli/m2.jpg,,stimuli/objects/handrake01a.jpg,,,,,,,,4,0,1.139815,0,20,20,20,1,Hand labour tool & accessory,,,,,,,
0,"[1,1,1,1,1,1,1,1,1,1,0,0,0,0,1,0,1,1,1,0,0,0,0]",,,,,,,,,,,,,3,2021-04-10_15h13.57.967,premceCat2_ses-01_part-01_label-phase1,2020.2.9,Win32,60,,,,,,,,0,,,,,,stimuli/m5.jpg,stimuli/m2.jpg,1,stimuli/Outdoor activity & sport item.png,stimuli/Electronic device & accessory.png,stimuli/Hand labour tool & accessory.png,stimuli/Kitchen & utensil.png,3,1,1,stimuli/m5.jpg,,stimuli/objects/jumpingjack.jpg,,,,,,,,2,0,2.55133,0,21,21,21,1,Hand labour tool & accessory,,,,,,,
1,"[1,1,1,1,1,1,1,1,1,1,0,0,0,0,1,0,1,1,1,0,0,0,0,0]",,,,,,,,,,,,,3,2021-04-10_15h13.57.967,premceCat2_ses-01_part-01_label-phase1,2020.2.9,Win32,60,,,,,,,,1,,,,,,stimuli/m5.jpg,stimuli/m2.jpg,2,stimuli/Electronic device & accessory.png,stimuli/Kitchen & utensil.png,stimuli/Hand labour tool & accessory.png,stimuli/Outdoor activity & sport item.png,4,1,1,stimuli/m2.jpg,,stimuli/objects/bicycle.jpg,,,,,,,,4,1,1.266985,0,22,22,22,1,Outdoor activity & sport item,,,,,,,
0,"[1,1,1,1,1,1,1,1,1,1,0,0,0,0,1,0,1,1,1,0,0,0,0,0,1]",,,,,,,,,,,,,3,2021-04-10_15h13.57.967,premceCat2_ses-01_part-01_label-phase1,2020.2.9,Win32,60,,,,,,,,0,,,,,,stimuli/m5.jpg,stimuli/m2.jpg,1,stimuli/Hand labour tool & accessory.png,stimuli/Outdoor activity & sport item.png,stimuli/Electronic device & accessory.png,stimuli/Kitchen & utensil.png,1,1,1,stimuli/m5.jpg,,stimuli/objects/jumpingjack.jpg,,,,,,,,3,0,2.23191,0,23,23,23,1,Hand labour tool & accessory,,,,,,,
0,"[1,1,1,1,1,1,1,1,1,1,0,0,0,0,1,0,1,1,1,0,0,0,0,0,1,0]",,,,,,,,,,,,,3,2021-04-10_15h13.57.967,premceCat2_ses-01_part-01_label-phase1,2020.2.9,Win32,60,,,,,,,,0,,,,,,stimuli/m2.jpg,stimuli/m5.jpg,2,stimuli/Outdoor activity & sport item.png,stimuli/Electronic device & accessory.png,stimuli/Hand labour tool & accessory.png,stimuli/Kitchen & utensil.png,4,0,1,stimuli/m5.jpg,,stimuli/objects/jug.jpg,,,,,,,,2,0,1.700445,0,24,24,24,1,Kitchen & utensil,,,,,,,
1,"[1,1,1,1,1,1,1,1,1,1,0,0,0,0,1,0,1,1,1,0,0,0,0,0,1,0]",,,,,,,,,,,,,3,2021-04-10_15h13.57.967,premceCat2_ses-01_part-01_label-phase1,2020.2.9,Win32,60,,,,,,,,1,,,,,,stimuli/m2.jpg,stimuli/m5.jpg,1,stimuli/Electronic device & accessory.png,stimuli/Hand labour tool & accessory.png,stimuli/Kitchen & utensil.png,stimuli/Outdoor activity & sport item.png,4,1,1,stimuli/m2.jpg,,stimuli/objects/racquetballracket.jpg,,,,,,,,4,1,1.23329,0,25,25,25,1,Outdoor activity & sport item,,,,,,,
0,"[1,1,1,1,1,1,1,1,1,1,0,0,0,0,1,0,1,1,1,0,0,0,0,0,1,0,1]",,,,,,,,,,,,,3,2021-04-10_15h13.57.967,premceCat2_ses-01_part-01_label-phase1,2020.2.9,Win32,60,,,,,,,,0,,,,,,stimuli/m2.jpg,stimuli/m5.jpg,2,stimuli/Kitchen & utensil.png,stimuli/Outdoor activity & sport item.png,stimuli/Electronic device & accessory.png,stimuli/Hand labour tool & accessory.png,4,1,1,stimuli/m5.jpg,,stimuli/objects/jumpingjack.jpg,,,,,,,,1,0,1.28747,0,26,26,26,1,Hand labour tool & accessory,,,,,,,
0,"[1,1,1,1,1,1,1,1,1,1,0,0,0,0,1,0,1,1,1,0,0,0,0,0,1,0,1,0]",,,,,,,,,,,,,3,2021-04-10_15h13.57.967,premceCat2_ses-01_part-01_label-phase1,2020.2.9,Win32,60,,,,,,,,0,,,,,,stimuli/m2.jpg,stimuli/m5.jpg,2,stimuli/Hand labour tool & accessory.png,stimuli/Kitchen & utensil.png,stimuli/Electronic device & accessory.png,stimuli/Outdoor activity & sport item.png,1,1,1,stimuli/m5.jpg,,stimuli/objects/hedgetrimmer.jpg,,,,,,,,3,0,1.22129,0,27,27,27,1,Hand labour tool & accessory,,,,,,,
0,"[1,1,1,1,1,1,1,1,1,1,0,0,0,0,1,0,1,1,1,0,0,0,0,0,1,0,1,0,0]",,,,,,,,,,,,,3,2021-04-10_15h13.57.967,premceCat2_ses-01_part-01_label-phase1,2020.2.9,Win32,60,,,,,,,,0,,,,,,stimuli/m5.jpg,stimuli/m2.jpg,1,stimuli/Kitchen & utensil.png,stimuli/Outdoor activity & sport item.png,stimuli/Electronic device & accessory.png,stimuli/Hand labour tool & accessory.png,4,1,1,stimuli/m5.jpg,,stimuli/objects/gavel.jpg,,,,,,,,3,0,1.18435,0,28,28,28,1,Hand labour tool & accessory,,,,,,,
1,"[1,1,1,1,1,1,1,1,1,1,0,0,0,0,1,0,1,1,1,0,0,0,0,0,1,0,1,0,0,0]",,,,,,,,,,,,,3,2021-04-10_15h13.57.967,premceCat2_ses-01_part-01_label-phase1,2020.2.9,Win32,60,,,,,,,,1,,,,,,stimuli/m2.jpg,stimuli/m5.jpg,2,stimuli/Electronic device & accessory.png,stimuli/Hand labour tool & accessory.png,stimuli/Kitchen & utensil.png,stimuli/Outdoor activity & sport item.png,2,1,1,stimuli/m5.jpg,,stimuli/objects/gavel.jpg,,,,,,,,2,1,1.67754,0,29,29,29,1,Hand labour tool & accessory,,,,,,,
1,"[1,1,1,1,1,1,1,1,1,1,0,0,0,0,1,0,1,1,1,0,0,0,0,0,1,0,1,0,0,0,1]",,,,,,,,,,,,,3,2021-04-10_15h13.57.967,premceCat2_ses-01_part-01_label-phase1,2020.2.9,Win32,60,,,,,,,,1,,,,,,stimuli/m2.jpg,stimuli/m5.jpg,1,stimuli/Kitchen & utensil.png,stimuli/Hand labour tool & accessory.png,stimuli/Outdoor activity & sport item.png,stimuli/Electronic device & accessory.png,3,1,1,stimuli/m2.jpg,,stimuli/objects/racquetballracket.jpg,,,,,,,,3,1,2.16812,0,30,30,30,1,Outdoor activity & sport item,,,,,,,
1,"[1,1,1,1,1,1,1,1,1,1,0,0,0,0,1,0,1,1,1,0,0,0,0,0,1,0,1,0,0,0,1,1]",,,,,,,,,,,,,3,2021-04-10_15h13.57.967,premceCat2_ses-01_part-01_label-phase1,2020.2.9,Win32,60,,,,,,,,1,,,,,,stimuli/m5.jpg,stimuli/m2.jpg,2,stimuli/Kitchen & utensil.png,stimuli/Electronic device & accessory.png,stimuli/Outdoor activity & sport item.png,stimuli/Hand labour tool & accessory.png,3,1,1,stimuli/m2.jpg,,stimuli/objects/punchingbag.jpg,,,,,,,,3,1,1.153485,0,31,31,31,1,Outdoor activity & sport item,,,,,,,
0,"[1,1,1,1,1,1,1,1,1,1,0,0,0,0,1,0,1,1,1,0,0,0,0,0,1,0,1,0,0,0,1,1,1]",,,,,,,,,,,,,3,2021-04-10_15h13.57.967,premceCat2_ses-01_part-01_label-phase1,2020.2.9,Win32,60,,,,,,,,1,,,,,,stimuli/m2.jpg,stimuli/m5.jpg,2,stimuli/Outdoor activity & sport item.png,stimuli/Hand labour tool & accessory.png,stimuli/Kitchen & utensil.png,stimuli/Electronic device & accessory.png,4,0,1,stimuli/m5.jpg,,stimuli/objects/camera01a.jpg,,,,,,,,2,0,1.11044,0,32,32,32,1,Electronic device & accessory,,,,,,,
0,"[1,1,1,1,1,1,1,1,1,1,0,0,0,0,1,0,1,1,1,0,0,0,0,0,1,0,1,0,0,0,1,1,1]",,,,,,,,,,,,,3,2021-04-10_15h13.57.967,premceCat2_ses-01_part-01_label-phase1,2020.2.9,Win32,60,,,,,,,,0,,,,,,stimuli/m2.jpg,stimuli/m5.jpg,2,stimuli/Outdoor activity & sport item.png,stimuli/Electronic device & accessory.png,stimuli/Kitchen & utensil.png,stimuli/Hand labour tool & accessory.png,4,1,1,stimuli/m5.jpg,,stimuli/objects/jumpingjack.jpg,,,,,,,,2,0,0.983695,0,33,33,33,1,Hand labour tool & accessory,,,,,,,
1,"[1,1,1,1,1,1,1,1,1,1,0,0,0,0,1,0,1,1,1,0,0,0,0,0,1,0,1,0,0,0,1,1,1,0]",,,,,,,,,,,,,3,2021-04-10_15h13.57.967,premceCat2_ses-01_part-01_label-phase1,2020.2.9,Win32,60,,,,,,,,1,,,,,,stimuli/m2.jpg,stimuli/m5.jpg,1,stimuli/Electronic device & accessory.png,stimuli/Kitchen & utensil.png,stimuli/Outdoor activity & sport item.png,stimuli/Hand labour tool & accessory.png,3,1,1,stimuli/m2.jpg,,stimuli/objects/swing.jpg,,,,,,,,3,1,1.13896,0,34,34,34,1,Outdoor activity & sport item,,,,,,,
0,"[1,1,1,1,1,1,1,1,1,1,0,0,0,0,1,0,1,1,1,0,0,0,0,0,1,0,1,0,0,0,1,1,1,0,1]",,,,,,,,,,,,,3,2021-04-10_15h13.57.967,premceCat2_ses-01_part-01_label-phase1,2020.2.9,Win32,60,,,,,,,,0,,,,,,stimuli/m5.jpg,stimuli/m2.jpg,1,stimuli/Hand labour tool & accessory.png,stimuli/Kitchen & utensil.png,stimuli/Outdoor activity & sport item.png,stimuli/Electronic device & accessory.png,1,1,1,stimuli/m5.jpg,,stimuli/objects/pitchfork.jpg,,,,,,,,4,0,1.69516,0,35,35,35,1,Hand labour tool & accessory,,,,,,,
1,"[1,1,1,1,1,1,1,1,1,1,0,0,0,0,1,0,1,1,1,0,0,0,0,0,1,0,1,0,0,0,1,1,1,0,1,0]",,,,,,,,,,,,,3,2021-04-10_15h13.57.967,premceCat2_ses-01_part-01_label-phase1,2020.2.9,Win32,60,,,,,,,,1,,,,,,stimuli/m2.jpg,stimuli/m5.jpg,1,stimuli/Electronic device & accessory.png,stimuli/Outdoor activity & sport item.png,stimuli/Hand labour tool & accessory.png,stimuli/Kitchen & utensil.png,2,1,1,stimuli/m2.jpg,,stimuli/objects/racquetballracket.jpg,,,,,,,,2,1,1.30428,0,36,36,36,1,Outdoor activity & sport item,,,,,,,
1,"[1,1,1,1,1,1,1,1,1,1,0,0,0,0,1,0,1,1,1,0,0,0,0,0,1,0,1,0,0,0,1,1,1,0,1,0,1]",,,,,,,,,,,,,3,2021-04-10_15h13.57.967,premceCat2_ses-01_part-01_label-phase1,2020.2.9,Win32,60,,,,,,,,1,,,,,,stimuli/m2.jpg,stimuli/m5.jpg,1,stimuli/Outdoor activity & sport item.png,stimuli/Hand labour tool & accessory.png,stimuli/Electronic device & accessory.png,stimuli/Kitchen & utensil.png,1,1,1,stimuli/m2.jpg,,stimuli/objects/telescope.jpg,,,,,,,,1,1,0.934145,0,37,37,37,1,Outdoor activity & sport item,,,,,,,
1,"[1,1,1,1,1,1,1,1,1,1,0,0,0,0,1,0,1,1,1,0,0,0,0,0,1,0,1,0,0,0,1,1,1,0,1,0,1,1]",,,,,,,,,,,,,3,2021-04-10_15h13.57.967,premceCat2_ses-01_part-01_label-phase1,2020.2.9,Win32,60,,,,,,,,1,,,,,,stimuli/m5.jpg,stimuli/m2.jpg,2,stimuli/Hand labour tool & accessory.png,stimuli/Kitchen & utensil.png,stimuli/Electronic device & accessory.png,stimuli/Outdoor activity & sport item.png,4,1,1,stimuli/m2.jpg,,stimuli/objects/footballhelmet.jpg,,,,,,,,4,1,2.00537,0,38,38,38,1,Outdoor activity & sport item,,,,,,,
1,"[1,1,1,1,1,1,1,1,1,1,0,0,0,0,1,0,1,1,1,0,0,0,0,0,1,0,1,0,0,0,1,1,1,0,1,0,1,1,1]",,,,,,,,,,,,,3,2021-04-10_15h13.57.967,premceCat2_ses-01_part-01_label-phase1,2020.2.9,Win32,60,,,,,,,,1,,,,,,stimuli/m5.jpg,stimuli/m2.jpg,2,stimuli/Kitchen & utensil.png,stimuli/Hand labour tool & accessory.png,stimuli/Outdoor activity & sport item.png,stimuli/Electronic device & accessory.png,3,1,1,stimuli/m2.jpg,,stimuli/objects/swing.jpg,,,,,,,,3,1,1.316685,0,39,39,39,1,Outdoor activity & sport item,,,,,,,
0,"[1,1,1,1,1,1,1,1,1,1,0,0,0,0,1,0,1,1,1,0,0,0,0,0,1,0,1,0,0,0,1,1,1,0,1,0,1,1,1,1]",,,,,,,,,,,,,3,2021-04-10_15h13.57.967,premceCat2_ses-01_part-01_label-phase1,2020.2.9,Win32,60,,,,,,,,0,,,,,,stimuli/m5.jpg,stimuli/m2.jpg,1,stimuli/Outdoor activity & sport item.png,stimuli/Hand labour tool & accessory.png,stimuli/Electronic device & accessory.png,stimuli/Kitchen & utensil.png,2,1,1,stimuli/m5.jpg,,stimuli/objects/pitchfork.jpg,,,,,,,,3,0,1.305535,0,40,40,40,1,Hand labour tool & accessory,,,,,,,
1,"[1,1,1,1,1,1,1,1,1,1,0,0,0,0,1,0,1,1,1,0,0,0,0,0,1,0,1,0,0,0,1,1,1,0,1,0,1,1,1,1,0]",,,,,,,,,,,,,3,2021-04-10_15h13.57.967,premceCat2_ses-01_part-01_label-phase1,2020.2.9,Win32,60,,,,,,,,1,,,,,,stimuli/m2.jpg,stimuli/m5.jpg,1,stimuli/Hand labour tool & accessory.png,stimuli/Outdoor activity & sport item.png,stimuli/Electronic device & accessory.png,stimuli/Kitchen & utensil.png,2,1,1,stimuli/m2.jpg,,stimuli/objects/footballhelmet.jpg,,,,,,,,2,1,1.28127,0,41,41,41,1,Outdoor activity & sport item,,,,,,,
1,"[1,1,1,1,1,1,1,1,1,1,0,0,0,0,1,0,1,1,1,0,0,0,0,0,1,0,1,0,0,0,1,1,1,0,1,0,1,1,1,1,0,1]",,,,,,,,,,,,,3,2021-04-10_15h13.57.967,premceCat2_ses-01_part-01_label-phase1,2020.2.9,Win32,60,,,,,,,,1,,,,,,stimuli/m5.jpg,stimuli/m2.jpg,2,stimuli/Hand labour tool & accessory.png,stimuli/Outdoor activity & sport item.png,stimuli/Kitchen & utensil.png,stimuli/Electronic device & accessory.png,2,1,1,stimuli/m2.jpg,,stimuli/objects/rollerblade.jpg,,,,,,,,2,1,0.89518,0,42,42,42,1,Outdoor activity & sport item,,,,,,,
1,"[1,1,1,1,1,1,1,1,1,1,0,0,0,0,1,0,1,1,1,0,0,0,0,0,1,0,1,0,0,0,1,1,1,0,1,0,1,1,1,1,0,1,1]",,,,,,,,,,,,,3,2021-04-10_15h13.57.967,premceCat2_ses-01_part-01_label-phase1,2020.2.9,Win32,60,,,,,,,,1,,,,,,stimuli/m2.jpg,stimuli/m5.jpg,1,stimuli/Outdoor activity & sport item.png,stimuli/Kitchen & utensil.png,stimuli/Hand labour tool & accessory.png,stimuli/Electronic device & accessory.png,1,1,1,stimuli/m2.jpg,,stimuli/objects/crosscountryski.jpg,,,,,,,,1,1,1.122685,0,43,43,43,1,Outdoor activity & sport item,,,,,,,
1,"[1,1,1,1,1,1,1,1,1,1,0,0,0,0,1,0,1,1,1,0,0,0,0,0,1,0,1,0,0,0,1,1,1,0,1,0,1,1,1,1,0,1,1,1]",,,,,,,,,,,,,3,2021-04-10_15h13.57.967,premceCat2_ses-01_part-01_label-phase1,2020.2.9,Win32,60,,,,,,,,1,,,,,,stimuli/m5.jpg,stimuli/m2.jpg,1,stimuli/Kitchen & utensil.png,stimuli/Outdoor activity & sport item.png,stimuli/Hand labour tool & accessory.png,stimuli/Electronic device & accessory.png,3,1,1,stimuli/m5.jpg,,stimuli/objects/solderingiron.jpg,,,,,,,,3,1,1.18465,0,44,44,44,1,Hand labour tool & accessory,,,,,,,
0,"[1,1,1,1,1,1,1,1,1,1,0,0,0,0,1,0,1,1,1,0,0,0,0,0,1,0,1,0,0,0,1,1,1,0,1,0,1,1,1,1,0,1,1,1,1]",,,,,,,,,,,,,3,2021-04-10_15h13.57.967,premceCat2_ses-01_part-01_label-phase1,2020.2.9,Win32,60,,,,,,,,1,,,,,,stimuli/m5.jpg,stimuli/m2.jpg,2,stimuli/Kitchen & utensil.png,stimuli/Hand labour tool & accessory.png,stimuli/Electronic device & accessory.png,stimuli/Outdoor activity & sport item.png,2,0,1,stimuli/m2.jpg,,stimuli/objects/boxcutter03a.jpg,,,,,,,,4,0,1.847955,0,45,45,45,1,Hand labour tool & accessory,,,,,,,
1,"[1,1,1,1,1,1,1,1,1,1,0,0,0,0,1,0,1,1,1,0,0,0,0,0,1,0,1,0,0,0,1,1,1,0,1,0,1,1,1,1,0,1,1,1,1]",,,,,,,,,,,,,3,2021-04-10_15h13.57.967,premceCat2_ses-01_part-01_label-phase1,2020.2.9,Win32,60,,,,,,,,1,,,,,,stimuli/m2.jpg,stimuli/m5.jpg,2,stimuli/Kitchen & utensil.png,stimuli/Electronic device & accessory.png,stimuli/Hand labour tool & accessory.png,stimuli/Outdoor activity & sport item.png,3,1,1,stimuli/m5.jpg,,stimuli/objects/gavel.jpg,,,,,,,,3,1,0.966795,0,46,46,46,1,Hand labour tool & accessory,,,,,,,
0,"[1,1,1,1,1,1,1,1,1,1,0,0,0,0,1,0,1,1,1,0,0,0,0,0,1,0,1,0,0,0,1,1,1,0,1,0,1,1,1,1,0,1,1,1,1,1]",,,,,,,,,,,,,3,2021-04-10_15h13.57.967,premceCat2_ses-01_part-01_label-phase1,2020.2.9,Win32,60,,,,,,,,1,,,,,,stimuli/m5.jpg,stimuli/m2.jpg,2,stimuli/Outdoor activity & sport item.png,stimuli/Hand labour tool & accessory.png,stimuli/Kitchen & utensil.png,stimuli/Electronic device & accessory.png,4,0,1,stimuli/m2.jpg,,stimuli/objects/jack.jpg,,,,,,,,1,0,1.119405,0,47,47,47,1,Electronic device & accessory,,,,,,,
,,,,,,,,,,,,,,3,2021-04-10_15h13.57.967,premceCat2_ses-01_part-01_label-phase1,2020.2.9,Win32,60,,,,,,,,,,,,,,,,,,,,,,,,,,,,,,,,,,,,,,,,,,,n,81.11586,0,0,0,0,1
