instructions_loop.thisRepN,instructions_loop.thisTrialN,instructions_loop.thisN,instructions_loop.thisIndex,instructions_loop.ran,text1,text2,text3,participant,date,expName,psychopyVersion,OS,frameRate,key_resp_2.keys,key_resp_2.rt,key_resp_3.keys,key_resp_3.rt,recog_resp.keys,recog_resp.rt,conf_resp.keys,conf_resp.rt,resp_assoc.keys,resp_assoc.rt,assoc_loop.thisRepN,assoc_loop.thisTrialN,assoc_loop.thisN,assoc_loop.thisIndex,assoc_loop.ran,recog_loop.thisRepN,recog_loop.thisTrialN,recog_loop.thisN,recog_loop.thisIndex,recog_loop.ran,images,corr_ans,type,order,key_resp_break.keys,key_resp_break.rt,list_loop.thisRepN,list_loop.thisTrialN,list_loop.thisN,list_loop.thisIndex,list_loop.ran,recog_list
0,0,0,0,1,Welcome to the last phase of this experiment!,.,Please press the space bar to continue,4,2021-04-13_15h32.22.398,premceCat2_ses-02_part-02_label-phase2,2020.2.10,Win32,60,,,,,,,,,,,,,,,,,,,,,,,,,,,,,,,,
0,1,1,1,1,.,"In this phase, you will see some objects. 

For each object, you should indicate whether you have seen it before during the experiment.

Press LEFT ARROW for YES
Press RIGHT ARROW for NO

",Please press the space bar to continue ,4,2021-04-13_15h32.22.398,premceCat2_ses-02_part-02_label-phase2,2020.2.10,Win32,60,,,,,,,,,,,,,,,,,,,,,,,,,,,,,,,,
0,2,2,2,1,.,"After that, you will be asked how confident you are of your choice.

Please rate the confidence in your choice with the numbers from 1 to 4 of your keyboard. 

The numbers correspond to:

1 = Very unsure
2 = Unsure
3 = Sure
4 = Very Sure",Please press the space bar to continue,4,2021-04-13_15h32.22.398,premceCat2_ses-02_part-02_label-phase2,2020.2.10,Win32,60,,,,,,,,,,,,,,,,,,,,,,,,,,,,,,,,
,,,,,,,,4,2021-04-13_15h32.22.398,premceCat2_ses-02_part-02_label-phase2,2020.2.10,Win32,60,space,15.766805,space,12.73621,left,1.836765,3,2.710145,right,5.31003,0,0,0,0,1,,,,,,,,,,,,,,,,,
,,,,,,,,4,2021-04-13_15h32.22.398,premceCat2_ses-02_part-02_label-phase2,2020.2.10,Win32,60,,,,,,,,,,,,,,,,0,0,0,97,1,stimuli/objects/djmixer02.jpg,left,old,98,,,,,,,,
,,,,,,,,4,2021-04-13_15h32.22.398,premceCat2_ses-02_part-02_label-phase2,2020.2.10,Win32,60,,,,,right,1.863875,2,1.42623,,,,,,,,0,1,1,28,1,stimuli/objects/backpack01a.jpg,left,old,29,,,,,,,,
,,,,,,,,4,2021-04-13_15h32.22.398,premceCat2_ses-02_part-02_label-phase2,2020.2.10,Win32,60,,,,,right,2.89481,2,1.762215,,,,,,,,0,2,2,12,1,stimuli/objects/garlicpress02a.jpg,right,new,13,,,,,,,,
,,,,,,,,4,2021-04-13_15h32.22.398,premceCat2_ses-02_part-02_label-phase2,2020.2.10,Win32,60,,,,,left,0.961735,4,1.82249,right,3.398835,0,0,0,0,1,,,,,,,,,,,,,,,,,
,,,,,,,,4,2021-04-13_15h32.22.398,premceCat2_ses-02_part-02_label-phase2,2020.2.10,Win32,60,,,,,,,,,,,,,,,,0,3,3,10,1,stimuli/objects/vhstape.jpg,left,old,11,,,,,,,,
,,,,,,,,4,2021-04-13_15h32.22.398,premceCat2_ses-02_part-02_label-phase2,2020.2.10,Win32,60,,,,,right,3.620865,2,1.37047,,,,,,,,0,4,4,134,1,stimuli/objects/screwdriver04b.jpg,right,new,135,,,,,,,,
,,,,,,,,4,2021-04-13_15h32.22.398,premceCat2_ses-02_part-02_label-phase2,2020.2.10,Win32,60,,,,,left,1.425705,3,2.12032,left,2.17434,0,0,0,0,1,,,,,,,,,,,,,,,,,
,,,,,,,,4,2021-04-13_15h32.22.398,premceCat2_ses-02_part-02_label-phase2,2020.2.10,Win32,60,,,,,,,,,,,,,,,,0,5,5,67,1,stimuli/objects/lifesaver.jpg,left,old,68,,,,,,,,
,,,,,,,,4,2021-04-13_15h32.22.398,premceCat2_ses-02_part-02_label-phase2,2020.2.10,Win32,60,,,,,left,2.49016,3,2.091905,right,2.00005,0,0,0,0,1,,,,,,,,,,,,,,,,,
,,,,,,,,4,2021-04-13_15h32.22.398,premceCat2_ses-02_part-02_label-phase2,2020.2.10,Win32,60,,,,,,,,,,,,,,,,0,6,6,104,1,stimuli/objects/securitycamera.jpg,left,old,105,,,,,,,,
,,,,,,,,4,2021-04-13_15h32.22.398,premceCat2_ses-02_part-02_label-phase2,2020.2.10,Win32,60,,,,,left,1.89432,2,1.438415,right,3.11871,0,0,0,0,1,,,,,,,,,,,,,,,,,
,,,,,,,,4,2021-04-13_15h32.22.398,premceCat2_ses-02_part-02_label-phase2,2020.2.10,Win32,60,,,,,,,,,,,,,,,,0,7,7,123,1,stimuli/objects/breadknife.jpg,left,old,124,,,,,,,,
,,,,,,,,4,2021-04-13_15h32.22.398,premceCat2_ses-02_part-02_label-phase2,2020.2.10,Win32,60,,,,,left,2.644115,3,1.805935,right,2.62527,0,0,0,0,1,,,,,,,,,,,,,,,,,
,,,,,,,,4,2021-04-13_15h32.22.398,premceCat2_ses-02_part-02_label-phase2,2020.2.10,Win32,60,,,,,,,,,,,,,,,,0,8,8,31,1,stimuli/objects/metalbrush.jpg,left,old,32,,,,,,,,
,,,,,,,,4,2021-04-13_15h32.22.398,premceCat2_ses-02_part-02_label-phase2,2020.2.10,Win32,60,,,,,right,1.790645,2,1.79515,,,,,,,,0,9,9,76,1,stimuli/objects/megaphone.jpg,right,new,77,,,,,,,,
,,,,,,,,4,2021-04-13_15h32.22.398,premceCat2_ses-02_part-02_label-phase2,2020.2.10,Win32,60,,,,,right,2.546455,2,0.68969,,,,,,,,0,10,10,127,1,stimuli/objects/cooler01.jpg,left,old,128,,,,,,,,
,,,,,,,,4,2021-04-13_15h32.22.398,premceCat2_ses-02_part-02_label-phase2,2020.2.10,Win32,60,,,,,right,1.77279,3,1.05281,,,,,,,,0,11,11,55,1,stimuli/objects/toolbox02.jpg,right,new,56,,,,,,,,
,,,,,,,,4,2021-04-13_15h32.22.398,premceCat2_ses-02_part-02_label-phase2,2020.2.10,Win32,60,,,,,left,1.270275,3,1.098635,right,2.544975,0,0,0,0,1,,,,,,,,,,,,,,,,,
,,,,,,,,4,2021-04-13_15h32.22.398,premceCat2_ses-02_part-02_label-phase2,2020.2.10,Win32,60,,,,,,,,,,,,,,,,0,12,12,91,1,stimuli/objects/puttyknife.jpg,left,old,92,,,,,,,,
,,,,,,,,4,2021-04-13_15h32.22.398,premceCat2_ses-02_part-02_label-phase2,2020.2.10,Win32,60,,,,,right,1.72445,2,1.748915,,,,,,,,0,13,13,109,1,stimuli/objects/winerack.jpg,right,new,110,,,,,,,,
,,,,,,,,4,2021-04-13_15h32.22.398,premceCat2_ses-02_part-02_label-phase2,2020.2.10,Win32,60,,,,,right,1.992845,3,3.780705,,,,,,,,0,14,14,141,1,stimuli/objects/generator.jpg,right,new,142,,,,,,,,
,,,,,,,,4,2021-04-13_15h32.22.398,premceCat2_ses-02_part-02_label-phase2,2020.2.10,Win32,60,,,,,left,1.66727,4,2.14786,left,2.051435,0,0,0,0,1,,,,,,,,,,,,,,,,,
,,,,,,,,4,2021-04-13_15h32.22.398,premceCat2_ses-02_part-02_label-phase2,2020.2.10,Win32,60,,,,,,,,,,,,,,,,0,15,15,48,1,stimuli/objects/gasburner.jpg,left,old,49,,,,,,,,
,,,,,,,,4,2021-04-13_15h32.22.398,premceCat2_ses-02_part-02_label-phase2,2020.2.10,Win32,60,,,,,right,1.969145,2,0.900535,,,,,,,,0,16,16,70,1,stimuli/objects/oven.jpg,left,old,71,,,,,,,,
,,,,,,,,4,2021-04-13_15h32.22.398,premceCat2_ses-02_part-02_label-phase2,2020.2.10,Win32,60,,,,,left,1.00291,3,1.46013,right,1.313415,0,0,0,0,1,,,,,,,,,,,,,,,,,
,,,,,,,,4,2021-04-13_15h32.22.398,premceCat2_ses-02_part-02_label-phase2,2020.2.10,Win32,60,,,,,,,,,,,,,,,,0,17,17,21,1,stimuli/objects/paintbrush01.jpg,right,new,22,,,,,,,,
,,,,,,,,4,2021-04-13_15h32.22.398,premceCat2_ses-02_part-02_label-phase2,2020.2.10,Win32,60,,,,,left,1.780515,2,1.102105,right,1.98775,0,0,0,0,1,,,,,,,,,,,,,,,,,
,,,,,,,,4,2021-04-13_15h32.22.398,premceCat2_ses-02_part-02_label-phase2,2020.2.10,Win32,60,,,,,,,,,,,,,,,,0,18,18,47,1,stimuli/objects/bucket02.jpg,left,old,48,,,,,,,,
,,,,,,,,4,2021-04-13_15h32.22.398,premceCat2_ses-02_part-02_label-phase2,2020.2.10,Win32,60,,,,,left,1.85979,2,1.21649,left,0.65813,0,0,0,0,1,,,,,,,,,,,,,,,,,
,,,,,,,,4,2021-04-13_15h32.22.398,premceCat2_ses-02_part-02_label-phase2,2020.2.10,Win32,60,,,,,,,,,,,,,,,,0,19,19,96,1,stimuli/objects/golfbag.jpg,right,new,97,,,,,,,,
,,,,,,,,4,2021-04-13_15h32.22.398,premceCat2_ses-02_part-02_label-phase2,2020.2.10,Win32,60,,,,,right,1.362305,3,0.761735,,,,,,,,0,20,20,39,1,stimuli/objects/sippycup.jpg,right,new,40,,,,,,,,
,,,,,,,,4,2021-04-13_15h32.22.398,premceCat2_ses-02_part-02_label-phase2,2020.2.10,Win32,60,,,,,right,1.260745,3,0.60044,,,,,,,,0,21,21,9,1,stimuli/objects/measuringtape01.jpg,right,new,10,,,,,,,,
,,,,,,,,4,2021-04-13_15h32.22.398,premceCat2_ses-02_part-02_label-phase2,2020.2.10,Win32,60,,,,,left,1.515805,3,1.065945,left,1.43124,0,0,0,0,1,,,,,,,,,,,,,,,,,
,,,,,,,,4,2021-04-13_15h32.22.398,premceCat2_ses-02_part-02_label-phase2,2020.2.10,Win32,60,,,,,,,,,,,,,,,,0,22,22,6,1,stimuli/objects/contactlens.jpg,left,old,7,,,,,,,,
,,,,,,,,4,2021-04-13_15h32.22.398,premceCat2_ses-02_part-02_label-phase2,2020.2.10,Win32,60,,,,,right,0.97011,3,1.492235,,,,,,,,0,23,23,136,1,stimuli/objects/battery02b.jpg,right,new,137,,,,,,,,
,,,,,,,,4,2021-04-13_15h32.22.398,premceCat2_ses-02_part-02_label-phase2,2020.2.10,Win32,60,,,,,right,2.397145,2,0.861105,,,,,,,,0,24,24,23,1,stimuli/objects/football.jpg,right,new,24,,,,,,,,
,,,,,,,,4,2021-04-13_15h32.22.398,premceCat2_ses-02_part-02_label-phase2,2020.2.10,Win32,60,,,,,left,1.232775,4,0.889925,left,0.771735,0,0,0,0,1,,,,,,,,,,,,,,,,,
,,,,,,,,4,2021-04-13_15h32.22.398,premceCat2_ses-02_part-02_label-phase2,2020.2.10,Win32,60,,,,,,,,,,,,,,,,0,25,25,124,1,stimuli/objects/baseball01a.jpg,left,old,125,,,,,,,,
,,,,,,,,4,2021-04-13_15h32.22.398,premceCat2_ses-02_part-02_label-phase2,2020.2.10,Win32,60,,,,,right,2.227825,2,1.05928,,,,,,,,0,26,26,33,1,stimuli/objects/microwave.jpg,right,new,34,,,,,,,,
,,,,,,,,4,2021-04-13_15h32.22.398,premceCat2_ses-02_part-02_label-phase2,2020.2.10,Win32,60,,,,,left,1.40775,2,1.97948,left,0.34731,0,0,0,0,1,,,,,,,,,,,,,,,,,
,,,,,,,,4,2021-04-13_15h32.22.398,premceCat2_ses-02_part-02_label-phase2,2020.2.10,Win32,60,,,,,,,,,,,,,,,,0,27,27,34,1,stimuli/objects/surfboard.jpg,left,old,35,,,,,,,,
,,,,,,,,4,2021-04-13_15h32.22.398,premceCat2_ses-02_part-02_label-phase2,2020.2.10,Win32,60,,,,,right,2.478955,2,0.95968,,,,,,,,0,28,28,32,1,stimuli/objects/mitresaw.jpg,right,new,33,,,,,,,,
,,,,,,,,4,2021-04-13_15h32.22.398,premceCat2_ses-02_part-02_label-phase2,2020.2.10,Win32,60,,,,,right,0.93383,2,0.765255,,,,,,,,0,29,29,59,1,stimuli/objects/studiolight.jpg,right,new,60,,,,,,,,
,,,,,,,,4,2021-04-13_15h32.22.398,premceCat2_ses-02_part-02_label-phase2,2020.2.10,Win32,60,,,,,left,1.397545,2,1.48313,right,0.812785,0,0,0,0,1,,,,,,,,,,,,,,,,,
,,,,,,,,4,2021-04-13_15h32.22.398,premceCat2_ses-02_part-02_label-phase2,2020.2.10,Win32,60,,,,,,,,,,,,,,,,0,30,30,116,1,stimuli/objects/radio01.jpg,right,new,117,,,,,,,,
,,,,,,,,4,2021-04-13_15h32.22.398,premceCat2_ses-02_part-02_label-phase2,2020.2.10,Win32,60,,,,,right,1.558385,2,1.712075,,,,,,,,0,31,31,53,1,stimuli/objects/binoculars01b.jpg,right,new,54,,,,,,,,
,,,,,,,,4,2021-04-13_15h32.22.398,premceCat2_ses-02_part-02_label-phase2,2020.2.10,Win32,60,,,,,left,1.685475,3,1.61486,left,0.80147,0,0,0,0,1,,,,,,,,,,,,,,,,,
,,,,,,,,4,2021-04-13_15h32.22.398,premceCat2_ses-02_part-02_label-phase2,2020.2.10,Win32,60,,,,,,,,,,,,,,,,0,32,32,15,1,stimuli/objects/spicerack.jpg,left,old,16,,,,,,,,
,,,,,,,,4,2021-04-13_15h32.22.398,premceCat2_ses-02_part-02_label-phase2,2020.2.10,Win32,60,,,,,left,1.528075,4,1.02431,left,0.597415,0,0,0,0,1,,,,,,,,,,,,,,,,,
,,,,,,,,4,2021-04-13_15h32.22.398,premceCat2_ses-02_part-02_label-phase2,2020.2.10,Win32,60,,,,,,,,,,,,,,,,0,33,33,84,1,stimuli/objects/swimgoggles.jpg,left,old,85,,,,,,,,
,,,,,,,,4,2021-04-13_15h32.22.398,premceCat2_ses-02_part-02_label-phase2,2020.2.10,Win32,60,,,,,right,2.35231,2,0.94703,,,,,,,,0,34,34,26,1,stimuli/objects/boogieboard.jpg,right,new,27,,,,,,,,
,,,,,,,,4,2021-04-13_15h32.22.398,premceCat2_ses-02_part-02_label-phase2,2020.2.10,Win32,60,,,,,right,2.445165,2,1.157885,,,,,,,,0,35,35,43,1,stimuli/objects/punchingball.jpg,right,new,44,,,,,,,,
,,,,,,,,4,2021-04-13_15h32.22.398,premceCat2_ses-02_part-02_label-phase2,2020.2.10,Win32,60,,,,,left,2.506655,4,1.507695,right,2.483855,0,0,0,0,1,,,,,,,,,,,,,,,,,
,,,,,,,,4,2021-04-13_15h32.22.398,premceCat2_ses-02_part-02_label-phase2,2020.2.10,Win32,60,,,,,,,,,,,,,,,,0,36,36,130,1,stimuli/objects/hockeypuck.jpg,left,old,131,,,,,,,,
,,,,,,,,4,2021-04-13_15h32.22.398,premceCat2_ses-02_part-02_label-phase2,2020.2.10,Win32,60,,,,,right,1.376455,2,1.147715,,,,,,,,0,37,37,65,1,stimuli/objects/tape02a.jpg,left,old,66,,,,,,,,
,,,,,,,,4,2021-04-13_15h32.22.398,premceCat2_ses-02_part-02_label-phase2,2020.2.10,Win32,60,,,,,right,1.628585,3,0.970185,,,,,,,,0,38,38,73,1,stimuli/objects/clock01a.jpg,right,new,74,,,,,,,,
,,,,,,,,4,2021-04-13_15h32.22.398,premceCat2_ses-02_part-02_label-phase2,2020.2.10,Win32,60,,,,,right,1.066965,3,0.89541,,,,,,,,0,39,39,90,1,stimuli/objects/carlighter02.jpg,right,new,91,,,,,,,,
,,,,,,,,4,2021-04-13_15h32.22.398,premceCat2_ses-02_part-02_label-phase2,2020.2.10,Win32,60,,,,,right,1.937605,3,0.44858,,,,,,,,0,40,40,30,1,stimuli/objects/printer02.jpg,right,new,31,,,,,,,,
,,,,,,,,4,2021-04-13_15h32.22.398,premceCat2_ses-02_part-02_label-phase2,2020.2.10,Win32,60,,,,,left,0.97017,3,0.582705,left,1.515515,0,0,0,0,1,,,,,,,,,,,,,,,,,
,,,,,,,,4,2021-04-13_15h32.22.398,premceCat2_ses-02_part-02_label-phase2,2020.2.10,Win32,60,,,,,,,,,,,,,,,,0,41,41,16,1,stimuli/objects/wheelbarrow01.jpg,left,old,17,,,,,,,,
,,,,,,,,4,2021-04-13_15h32.22.398,premceCat2_ses-02_part-02_label-phase2,2020.2.10,Win32,60,,,,,right,3.256685,2,3.145005,,,,,,,,0,42,42,102,1,stimuli/objects/skihelmet01.jpg,left,old,103,,,,,,,,
,,,,,,,,4,2021-04-13_15h32.22.398,premceCat2_ses-02_part-02_label-phase2,2020.2.10,Win32,60,,,,,right,1.302975,2,1.0275,,,,,,,,0,43,43,41,1,stimuli/objects/pylon01.jpg,right,new,42,,,,,,,,
,,,,,,,,4,2021-04-13_15h32.22.398,premceCat2_ses-02_part-02_label-phase2,2020.2.10,Win32,60,,,,,left,1.162145,4,0.78177,right,0.602935,0,0,0,0,1,,,,,,,,,,,,,,,,,
,,,,,,,,4,2021-04-13_15h32.22.398,premceCat2_ses-02_part-02_label-phase2,2020.2.10,Win32,60,,,,,,,,,,,,,,,,0,44,44,36,1,stimuli/objects/outletadapter.jpg,left,old,37,,,,,,,,
,,,,,,,,4,2021-04-13_15h32.22.398,premceCat2_ses-02_part-02_label-phase2,2020.2.10,Win32,60,,,,,left,2.588575,4,0.857605,right,2.195875,0,0,0,0,1,,,,,,,,,,,,,,,,,
,,,,,,,,4,2021-04-13_15h32.22.398,premceCat2_ses-02_part-02_label-phase2,2020.2.10,Win32,60,,,,,,,,,,,,,,,,0,45,45,122,1,stimuli/objects/wire.jpg,left,old,123,,,,,,,,
,,,,,,,,4,2021-04-13_15h32.22.398,premceCat2_ses-02_part-02_label-phase2,2020.2.10,Win32,60,,,,,left,3.57688,3,2.14283,right,1.448815,0,0,0,0,1,,,,,,,,,,,,,,,,,
,,,,,,,,4,2021-04-13_15h32.22.398,premceCat2_ses-02_part-02_label-phase2,2020.2.10,Win32,60,,,,,,,,,,,,,,,,0,46,46,115,1,stimuli/objects/flooringstapler.jpg,left,old,116,,,,,,,,
,,,,,,,,4,2021-04-13_15h32.22.398,premceCat2_ses-02_part-02_label-phase2,2020.2.10,Win32,60,,,,,left,2.53139,3,1.61296,left,0.42917,0,0,0,0,1,,,,,,,,,,,,,,,,,
,,,,,,,,4,2021-04-13_15h32.22.398,premceCat2_ses-02_part-02_label-phase2,2020.2.10,Win32,60,,,,,,,,,,,,,,,,0,47,47,37,1,stimuli/objects/aircompressor.jpg,left,old,38,,,,,,,,
,,,,,,,,4,2021-04-13_15h32.22.398,premceCat2_ses-02_part-02_label-phase2,2020.2.10,Win32,60,,,,,left,2.88271,1,1.325805,left,1.663325,0,0,0,0,1,,,,,,,,,,,,,,,,,
,,,,,,,,4,2021-04-13_15h32.22.398,premceCat2_ses-02_part-02_label-phase2,2020.2.10,Win32,60,,,,,,,,,,,,,,,,0,48,48,54,1,stimuli/objects/pda.jpg,right,new,55,,,,,,,,
,,,,,,,,4,2021-04-13_15h32.22.398,premceCat2_ses-02_part-02_label-phase2,2020.2.10,Win32,60,,,,,left,4.174855,2,0.621255,right,1.81223,0,0,0,0,1,,,,,,,,,,,,,,,,,
,,,,,,,,4,2021-04-13_15h32.22.398,premceCat2_ses-02_part-02_label-phase2,2020.2.10,Win32,60,,,,,,,,,,,,,,,,0,49,49,57,1,stimuli/objects/audiocablesplitter.jpg,right,new,58,,,,,,,,
,,,,,,,,4,2021-04-13_15h32.22.398,premceCat2_ses-02_part-02_label-phase2,2020.2.10,Win32,60,,,,,right,1.428495,2,1.154,,,,,,,,0,50,50,62,1,stimuli/objects/tray.jpg,left,old,63,,,,,,,,
,,,,,,,,4,2021-04-13_15h32.22.398,premceCat2_ses-02_part-02_label-phase2,2020.2.10,Win32,60,,,,,left,1.84524,2,1.156555,left,0.93116,0,0,0,0,1,,,,,,,,,,,,,,,,,
,,,,,,,,4,2021-04-13_15h32.22.398,premceCat2_ses-02_part-02_label-phase2,2020.2.10,Win32,60,,,,,,,,,,,,,,,,0,51,51,98,1,stimuli/objects/toyhockeystick01.jpg,left,old,99,,,,,,,,
,,,,,,,,4,2021-04-13_15h32.22.398,premceCat2_ses-02_part-02_label-phase2,2020.2.10,Win32,60,,,,,right,1.44613,3,2.236615,,,,,,,,0,52,52,4,1,stimuli/objects/microphone01.jpg,right,new,5,,,,,,,,
,,,,,,,,4,2021-04-13_15h32.22.398,premceCat2_ses-02_part-02_label-phase2,2020.2.10,Win32,60,,,,,right,1.212555,3,0.841885,,,,,,,,0,53,53,86,1,stimuli/objects/toasteroven.jpg,right,new,87,,,,,,,,
,,,,,,,,4,2021-04-13_15h32.22.398,premceCat2_ses-02_part-02_label-phase2,2020.2.10,Win32,60,,,,,right,1.59845,3,0.528315,,,,,,,,0,54,54,126,1,stimuli/objects/tableknife02.jpg,right,new,127,,,,,,,,
,,,,,,,,4,2021-04-13_15h32.22.398,premceCat2_ses-02_part-02_label-phase2,2020.2.10,Win32,60,,,,,right,1.3015,3,0.64374,,,,,,,,0,55,55,108,1,stimuli/objects/metalscissors.jpg,right,new,109,,,,,,,,
,,,,,,,,4,2021-04-13_15h32.22.398,premceCat2_ses-02_part-02_label-phase2,2020.2.10,Win32,60,,,,,left,1.322775,4,0.99711,right,1.8484,0,0,0,0,1,,,,,,,,,,,,,,,,,
,,,,,,,,4,2021-04-13_15h32.22.398,premceCat2_ses-02_part-02_label-phase2,2020.2.10,Win32,60,,,,,,,,,,,,,,,,0,56,56,99,1,stimuli/objects/sewingmachine01a.jpg,left,old,100,,,,,,,,
,,,,,,,,4,2021-04-13_15h32.22.398,premceCat2_ses-02_part-02_label-phase2,2020.2.10,Win32,60,,,,,right,1.513665,3,1.23249,,,,,,,,0,57,57,121,1,stimuli/objects/ceilingspeaker.jpg,right,new,122,,,,,,,,
,,,,,,,,4,2021-04-13_15h32.22.398,premceCat2_ses-02_part-02_label-phase2,2020.2.10,Win32,60,,,,,left,1.577035,3,1.79647,left,0.69378,0,0,0,0,1,,,,,,,,,,,,,,,,,
,,,,,,,,4,2021-04-13_15h32.22.398,premceCat2_ses-02_part-02_label-phase2,2020.2.10,Win32,60,,,,,,,,,,,,,,,,0,58,58,142,1,stimuli/objects/waterbottle03.jpg,left,old,143,,,,,,,,
,,,,,,,,4,2021-04-13_15h32.22.398,premceCat2_ses-02_part-02_label-phase2,2020.2.10,Win32,60,,,,,left,1.480325,4,0.64151,right,2.44659,0,0,0,0,1,,,,,,,,,,,,,,,,,
,,,,,,,,4,2021-04-13_15h32.22.398,premceCat2_ses-02_part-02_label-phase2,2020.2.10,Win32,60,,,,,,,,,,,,,,,,0,59,59,40,1,stimuli/objects/staplegun.jpg,left,old,41,,,,,,,,
,,,,,,,,4,2021-04-13_15h32.22.398,premceCat2_ses-02_part-02_label-phase2,2020.2.10,Win32,60,,,,,left,1.97931,2,1.587095,right,2.26154,0,0,0,0,1,,,,,,,,,,,,,,,,,
,,,,,,,,4,2021-04-13_15h32.22.398,premceCat2_ses-02_part-02_label-phase2,2020.2.10,Win32,60,,,,,,,,,,,,,,,,0,60,60,88,1,stimuli/objects/cowbell.jpg,left,old,89,,,,,,,,
,,,,,,,,4,2021-04-13_15h32.22.398,premceCat2_ses-02_part-02_label-phase2,2020.2.10,Win32,60,,,,,right,1.474965,3,1.17612,,,,,,,,0,61,61,85,1,stimuli/objects/golfball.jpg,right,new,86,,,,,,,,
,,,,,,,,4,2021-04-13_15h32.22.398,premceCat2_ses-02_part-02_label-phase2,2020.2.10,Win32,60,,,,,left,1.51948,3,1.365105,right,2.117125,0,0,0,0,1,,,,,,,,,,,,,,,,,
,,,,,,,,4,2021-04-13_15h32.22.398,premceCat2_ses-02_part-02_label-phase2,2020.2.10,Win32,60,,,,,,,,,,,,,,,,0,62,62,5,1,stimuli/objects/electricoutlet.jpg,left,old,6,,,,,,,,
,,,,,,,,4,2021-04-13_15h32.22.398,premceCat2_ses-02_part-02_label-phase2,2020.2.10,Win32,60,,,,,right,2.952465,2,1.01194,,,,,,,,0,63,63,42,1,stimuli/objects/snowshoe.jpg,right,new,43,,,,,,,,
,,,,,,,,4,2021-04-13_15h32.22.398,premceCat2_ses-02_part-02_label-phase2,2020.2.10,Win32,60,,,,,left,1.432315,2,0.69525,right,1.095095,0,0,0,0,1,,,,,,,,,,,,,,,,,
,,,,,,,,4,2021-04-13_15h32.22.398,premceCat2_ses-02_part-02_label-phase2,2020.2.10,Win32,60,,,,,,,,,,,,,,,,0,64,64,35,1,stimuli/objects/chandelier.jpg,left,old,36,,,,,,,,
,,,,,,,,4,2021-04-13_15h32.22.398,premceCat2_ses-02_part-02_label-phase2,2020.2.10,Win32,60,,,,,right,1.85484,2,1.21057,,,,,,,,0,65,65,94,1,stimuli/objects/electricmixer.jpg,right,new,95,,,,,,,,
,,,,,,,,4,2021-04-13_15h32.22.398,premceCat2_ses-02_part-02_label-phase2,2020.2.10,Win32,60,,,,,left,1.009935,2,1.01309,left,2.802565,0,0,0,0,1,,,,,,,,,,,,,,,,,
,,,,,,,,4,2021-04-13_15h32.22.398,premceCat2_ses-02_part-02_label-phase2,2020.2.10,Win32,60,,,,,,,,,,,,,,,,0,66,66,7,1,stimuli/objects/hammer01.jpg,left,old,8,,,,,,,,
,,,,,,,,4,2021-04-13_15h32.22.398,premceCat2_ses-02_part-02_label-phase2,2020.2.10,Win32,60,,,,,left,1.79485,3,0.451455,right,0.565565,0,0,0,0,1,,,,,,,,,,,,,,,,,
,,,,,,,,4,2021-04-13_15h32.22.398,premceCat2_ses-02_part-02_label-phase2,2020.2.10,Win32,60,,,,,,,,,,,,,,,,0,67,67,2,1,stimuli/objects/crocodileclips.jpg,left,old,3,,,,,,,,
,,,,,,,,4,2021-04-13_15h32.22.398,premceCat2_ses-02_part-02_label-phase2,2020.2.10,Win32,60,,,,,left,1.00191,3,0.45119,left,4.00051,0,0,0,0,1,,,,,,,,,,,,,,,,,
,,,,,,,,4,2021-04-13_15h32.22.398,premceCat2_ses-02_part-02_label-phase2,2020.2.10,Win32,60,,,,,,,,,,,,,,,,0,68,68,78,1,stimuli/objects/servingspoon01.jpg,left,old,79,,,,,,,,
,,,,,,,,4,2021-04-13_15h32.22.398,premceCat2_ses-02_part-02_label-phase2,2020.2.10,Win32,60,,,,,left,2.07602,3,1.08112,right,3.25451,0,0,0,0,1,,,,,,,,,,,,,,,,,
,,,,,,,,4,2021-04-13_15h32.22.398,premceCat2_ses-02_part-02_label-phase2,2020.2.10,Win32,60,,,,,,,,,,,,,,,,0,69,69,79,1,stimuli/objects/gps.jpg,left,old,80,,,,,,,,
,,,,,,,,4,2021-04-13_15h32.22.398,premceCat2_ses-02_part-02_label-phase2,2020.2.10,Win32,60,,,,,left,1.211645,4,0.579945,left,3.129895,0,0,0,0,1,,,,,,,,,,,,,,,,,
,,,,,,,,4,2021-04-13_15h32.22.398,premceCat2_ses-02_part-02_label-phase2,2020.2.10,Win32,60,,,,,,,,,,,,,,,,0,70,70,1,1,stimuli/objects/headphones02b.jpg,left,old,2,,,,,,,,
,,,,,,,,4,2021-04-13_15h32.22.398,premceCat2_ses-02_part-02_label-phase2,2020.2.10,Win32,60,,,,,left,1.54823,3,0.631155,left,1.16823,0,0,0,0,1,,,,,,,,,,,,,,,,,
,,,,,,,,4,2021-04-13_15h32.22.398,premceCat2_ses-02_part-02_label-phase2,2020.2.10,Win32,60,,,,,,,,,,,,,,,,0,71,71,103,1,stimuli/objects/bowl02a.jpg,left,old,104,,,,,,,,
,,,,,,,,4,2021-04-13_15h32.22.398,premceCat2_ses-02_part-02_label-phase2,2020.2.10,Win32,60,,,,,right,1.81034,2,0.460615,,,,,,,,0,72,72,56,1,stimuli/objects/jar02.jpg,left,old,57,,,,,,,,
,,,,,,,,4,2021-04-13_15h32.22.398,premceCat2_ses-02_part-02_label-phase2,2020.2.10,Win32,60,,,,,right,1.646385,2,0.591265,,,,,,,,0,73,73,112,1,stimuli/objects/gymnasticring.jpg,right,new,113,,,,,,,,
,,,,,,,,4,2021-04-13_15h32.22.398,premceCat2_ses-02_part-02_label-phase2,2020.2.10,Win32,60,,,,,left,1.511355,2,0.927725,left,1.38346,0,0,0,0,1,,,,,,,,,,,,,,,,,
,,,,,,,,4,2021-04-13_15h32.22.398,premceCat2_ses-02_part-02_label-phase2,2020.2.10,Win32,60,,,,,,,,,,,,,,,,0,74,74,120,1,stimuli/objects/muffintray01.jpg,left,old,121,,,,,,,,
,,,,,,,,4,2021-04-13_15h32.22.398,premceCat2_ses-02_part-02_label-phase2,2020.2.10,Win32,60,,,,,right,1.882715,2,2.37909,,,,,,,,0,75,75,72,1,stimuli/objects/cclamp.jpg,right,new,73,,,,,,,,
,,,,,,,,4,2021-04-13_15h32.22.398,premceCat2_ses-02_part-02_label-phase2,2020.2.10,Win32,60,,,,,right,2.24373,3,0.741105,,,,,,,,0,76,76,50,1,stimuli/objects/chisel02b.jpg,right,new,51,,,,,,,,
,,,,,,,,4,2021-04-13_15h32.22.398,premceCat2_ses-02_part-02_label-phase2,2020.2.10,Win32,60,,,,,left,1.56802,3,1.12993,right,1.74002,0,0,0,0,1,,,,,,,,,,,,,,,,,
,,,,,,,,4,2021-04-13_15h32.22.398,premceCat2_ses-02_part-02_label-phase2,2020.2.10,Win32,60,,,,,,,,,,,,,,,,0,77,77,61,1,stimuli/objects/painttray.jpg,left,old,62,,,,,,,,
,,,,,,,,4,2021-04-13_15h32.22.398,premceCat2_ses-02_part-02_label-phase2,2020.2.10,Win32,60,,,,,left,4.515405,4,1.315025,left,1.16021,0,0,0,0,1,,,,,,,,,,,,,,,,,
,,,,,,,,4,2021-04-13_15h32.22.398,premceCat2_ses-02_part-02_label-phase2,2020.2.10,Win32,60,,,,,,,,,,,,,,,,0,78,78,52,1,stimuli/objects/bottlecap.jpg,left,old,53,,,,,,,,
,,,,,,,,4,2021-04-13_15h32.22.398,premceCat2_ses-02_part-02_label-phase2,2020.2.10,Win32,60,,,,,left,1.723775,3,1.766795,left,0.461095,0,0,0,0,1,,,,,,,,,,,,,,,,,
,,,,,,,,4,2021-04-13_15h32.22.398,premceCat2_ses-02_part-02_label-phase2,2020.2.10,Win32,60,,,,,,,,,,,,,,,,0,79,79,45,1,stimuli/objects/butterknife.jpg,left,old,46,,,,,,,,
,,,,,,,,4,2021-04-13_15h32.22.398,premceCat2_ses-02_part-02_label-phase2,2020.2.10,Win32,60,,,,,right,1.83091,2,0.922665,,,,,,,,0,80,80,24,1,stimuli/objects/skateboard.jpg,right,new,25,,,,,,,,
,,,,,,,,4,2021-04-13_15h32.22.398,premceCat2_ses-02_part-02_label-phase2,2020.2.10,Win32,60,,,,,right,2.443275,3,0.82907,,,,,,,,0,81,81,131,1,stimuli/objects/spotlight.jpg,right,new,132,,,,,,,,
,,,,,,,,4,2021-04-13_15h32.22.398,premceCat2_ses-02_part-02_label-phase2,2020.2.10,Win32,60,,,,,right,1.499995,3,0.530675,,,,,,,,0,82,82,25,1,stimuli/objects/bowlingball.jpg,right,new,26,,,,,,,,
,,,,,,,,4,2021-04-13_15h32.22.398,premceCat2_ses-02_part-02_label-phase2,2020.2.10,Win32,60,,,,,right,1.07941,3,0.6684,,,,,,,,0,83,83,19,1,stimuli/objects/peppermill02b.jpg,right,new,20,,,,,,,,
,,,,,,,,4,2021-04-13_15h32.22.398,premceCat2_ses-02_part-02_label-phase2,2020.2.10,Win32,60,,,,,right,1.46126,2,0.850695,,,,,,,,0,84,84,106,1,stimuli/objects/minifridge.jpg,right,new,107,,,,,,,,
,,,,,,,,4,2021-04-13_15h32.22.398,premceCat2_ses-02_part-02_label-phase2,2020.2.10,Win32,60,,,,,left,1.62729,2,0.56514,left,1.228855,0,0,0,0,1,,,,,,,,,,,,,,,,,
,,,,,,,,4,2021-04-13_15h32.22.398,premceCat2_ses-02_part-02_label-phase2,2020.2.10,Win32,60,,,,,,,,,,,,,,,,0,85,85,82,1,stimuli/objects/snowbrush.jpg,right,new,83,,,,,,,,
,,,,,,,,4,2021-04-13_15h32.22.398,premceCat2_ses-02_part-02_label-phase2,2020.2.10,Win32,60,,,,,right,1.280095,3,0.731655,,,,,,,,0,86,86,110,1,stimuli/objects/lock03a.jpg,right,new,111,,,,,,,,
,,,,,,,,4,2021-04-13_15h32.22.398,premceCat2_ses-02_part-02_label-phase2,2020.2.10,Win32,60,,,,,left,1.462465,4,1.05183,left,1.11525,0,0,0,0,1,,,,,,,,,,,,,,,,,
,,,,,,,,4,2021-04-13_15h32.22.398,premceCat2_ses-02_part-02_label-phase2,2020.2.10,Win32,60,,,,,,,,,,,,,,,,0,87,87,101,1,stimuli/objects/fuse.jpg,left,old,102,,,,,,,,
,,,,,,,,4,2021-04-13_15h32.22.398,premceCat2_ses-02_part-02_label-phase2,2020.2.10,Win32,60,,,,,right,1.04372,2,0.495345,,,,,,,,0,88,88,119,1,stimuli/objects/tongs01b.jpg,right,new,120,,,,,,,,
,,,,,,,,4,2021-04-13_15h32.22.398,premceCat2_ses-02_part-02_label-phase2,2020.2.10,Win32,60,,,,,right,1.259485,2,0.580135,,,,,,,,0,89,89,63,1,stimuli/objects/butterdish.jpg,right,new,64,,,,,,,,
,,,,,,,,4,2021-04-13_15h32.22.398,premceCat2_ses-02_part-02_label-phase2,2020.2.10,Win32,60,,,,,left,1.788655,3,1.61659,right,1.06776,0,0,0,0,1,,,,,,,,,,,,,,,,,
,,,,,,,,4,2021-04-13_15h32.22.398,premceCat2_ses-02_part-02_label-phase2,2020.2.10,Win32,60,,,,,,,,,,,,,,,,0,90,90,77,1,stimuli/objects/lightbulb01.jpg,left,old,78,,,,,,,,
,,,,,,,,4,2021-04-13_15h32.22.398,premceCat2_ses-02_part-02_label-phase2,2020.2.10,Win32,60,,,,,left,1.663035,4,0.859505,right,2.31445,0,0,0,0,1,,,,,,,,,,,,,,,,,
,,,,,,,,4,2021-04-13_15h32.22.398,premceCat2_ses-02_part-02_label-phase2,2020.2.10,Win32,60,,,,,,,,,,,,,,,,0,91,91,105,1,stimuli/objects/cellphone.jpg,left,old,106,,,,,,,,
,,,,,,,,4,2021-04-13_15h32.22.398,premceCat2_ses-02_part-02_label-phase2,2020.2.10,Win32,60,,,,,right,1.38632,2,0.430025,,,,,,,,0,92,92,93,1,stimuli/objects/icepack.jpg,right,new,94,,,,,,,,
,,,,,,,,4,2021-04-13_15h32.22.398,premceCat2_ses-02_part-02_label-phase2,2020.2.10,Win32,60,,,,,left,1.195735,3,0.69788,left,1.574615,0,0,0,0,1,,,,,,,,,,,,,,,,,
,,,,,,,,4,2021-04-13_15h32.22.398,premceCat2_ses-02_part-02_label-phase2,2020.2.10,Win32,60,,,,,,,,,,,,,,,,0,93,93,49,1,stimuli/objects/badmintonracket.jpg,left,old,50,,,,,,,,
,,,,,,,,4,2021-04-13_15h32.22.398,premceCat2_ses-02_part-02_label-phase2,2020.2.10,Win32,60,,,,,right,1.78883,2,0.74253,,,,,,,,0,94,94,100,1,stimuli/objects/remotecontrol04.jpg,right,new,101,,,,,,,,
,,,,,,,,4,2021-04-13_15h32.22.398,premceCat2_ses-02_part-02_label-phase2,2020.2.10,Win32,60,,,,,left,1.49109,4,0.52678,left,1.075545,0,0,0,0,1,,,,,,,,,,,,,,,,,
,,,,,,,,4,2021-04-13_15h32.22.398,premceCat2_ses-02_part-02_label-phase2,2020.2.10,Win32,60,,,,,,,,,,,,,,,,0,95,95,64,1,stimuli/objects/snowshovel.jpg,left,old,65,,,,,,,,
,,,,,,,,4,2021-04-13_15h32.22.398,premceCat2_ses-02_part-02_label-phase2,2020.2.10,Win32,60,,,,,left,1.64769,3,0.76454,left,0.920085,0,0,0,0,1,,,,,,,,,,,,,,,,,
,,,,,,,,4,2021-04-13_15h32.22.398,premceCat2_ses-02_part-02_label-phase2,2020.2.10,Win32,60,,,,,,,,,,,,,,,,0,96,96,118,1,stimuli/objects/rope03.jpg,left,old,119,,,,,,,,
,,,,,,,,4,2021-04-13_15h32.22.398,premceCat2_ses-02_part-02_label-phase2,2020.2.10,Win32,60,,,,,left,1.513065,3,0.88806,right,0.83528,0,0,0,0,1,,,,,,,,,,,,,,,,,
,,,,,,,,4,2021-04-13_15h32.22.398,premceCat2_ses-02_part-02_label-phase2,2020.2.10,Win32,60,,,,,,,,,,,,,,,,0,97,97,58,1,stimuli/objects/bungeecord02.jpg,left,old,59,,,,,,,,
,,,,,,,,4,2021-04-13_15h32.22.398,premceCat2_ses-02_part-02_label-phase2,2020.2.10,Win32,60,,,,,right,1.811135,2,0.64332,,,,,,,,0,98,98,71,1,stimuli/objects/faxmachine.jpg,right,new,72,,,,,,,,
,,,,,,,,4,2021-04-13_15h32.22.398,premceCat2_ses-02_part-02_label-phase2,2020.2.10,Win32,60,,,,,left,1.15666,4,0.679375,left,3.02599,0,0,0,0,1,,,,,,,,,,,,,,,,,
,,,,,,,,4,2021-04-13_15h32.22.398,premceCat2_ses-02_part-02_label-phase2,2020.2.10,Win32,60,,,,,,,,,,,,,,,,0,99,99,129,1,stimuli/objects/corkscrew03a.jpg,left,old,130,,,,,,,,
,,,,,,,,4,2021-04-13_15h32.22.398,premceCat2_ses-02_part-02_label-phase2,2020.2.10,Win32,60,,,,,left,1.265155,4,0.528505,right,0.692695,0,0,0,0,1,,,,,,,,,,,,,,,,,
,,,,,,,,4,2021-04-13_15h32.22.398,premceCat2_ses-02_part-02_label-phase2,2020.2.10,Win32,60,,,,,,,,,,,,,,,,0,100,100,29,1,stimuli/objects/ipad02.jpg,left,old,30,,,,,,,,
,,,,,,,,4,2021-04-13_15h32.22.398,premceCat2_ses-02_part-02_label-phase2,2020.2.10,Win32,60,,,,,right,5.05267,1,0.877835,,,,,,,,0,101,101,83,1,stimuli/objects/kitchenscale01a.jpg,right,new,84,,,,,,,,
,,,,,,,,4,2021-04-13_15h32.22.398,premceCat2_ses-02_part-02_label-phase2,2020.2.10,Win32,60,,,,,right,1.088385,1,0.664855,,,,,,,,0,102,102,51,1,stimuli/objects/webcam.jpg,right,new,52,,,,,,,,
,,,,,,,,4,2021-04-13_15h32.22.398,premceCat2_ses-02_part-02_label-phase2,2020.2.10,Win32,60,,,,,right,2.854955,1,2.323235,,,,,,,,0,103,103,38,1,stimuli/objects/soundmixer.jpg,right,new,39,,,,,,,,
,,,,,,,,4,2021-04-13_15h32.22.398,premceCat2_ses-02_part-02_label-phase2,2020.2.10,Win32,60,,,,,right,1.252205,1,0.778675,,,,,,,,0,104,104,138,1,stimuli/objects/taperecorder.jpg,right,new,139,,,,,,,,
,,,,,,,,4,2021-04-13_15h32.22.398,premceCat2_ses-02_part-02_label-phase2,2020.2.10,Win32,60,,,,,left,1.29797,4,0.50605,left,2.816895,0,0,0,0,1,,,,,,,,,,,,,,,,,
,,,,,,,,4,2021-04-13_15h32.22.398,premceCat2_ses-02_part-02_label-phase2,2020.2.10,Win32,60,,,,,,,,,,,,,,,,0,105,105,69,1,stimuli/objects/atm.jpg,left,old,70,,,,,,,,
,,,,,,,,4,2021-04-13_15h32.22.398,premceCat2_ses-02_part-02_label-phase2,2020.2.10,Win32,60,,,,,left,1.35398,1,0.441315,right,1.5969,0,0,0,0,1,,,,,,,,,,,,,,,,,
,,,,,,,,4,2021-04-13_15h32.22.398,premceCat2_ses-02_part-02_label-phase2,2020.2.10,Win32,60,,,,,,,,,,,,,,,,0,106,106,117,1,stimuli/objects/videotape01b.jpg,right,new,118,,,,,,,,
,,,,,,,,4,2021-04-13_15h32.22.398,premceCat2_ses-02_part-02_label-phase2,2020.2.10,Win32,60,,,,,left,1.20314,4,0.507755,left,1.432005,0,0,0,0,1,,,,,,,,,,,,,,,,,
,,,,,,,,4,2021-04-13_15h32.22.398,premceCat2_ses-02_part-02_label-phase2,2020.2.10,Win32,60,,,,,,,,,,,,,,,,0,107,107,137,1,stimuli/objects/podium.jpg,left,old,138,,,,,,,,
,,,,,,,,4,2021-04-13_15h32.22.398,premceCat2_ses-02_part-02_label-phase2,2020.2.10,Win32,60,,,,,right,1.806315,1,0.789675,,,,,,,,0,108,108,22,1,stimuli/objects/umbrella04.jpg,right,new,23,,,,,,,,
,,,,,,,,4,2021-04-13_15h32.22.398,premceCat2_ses-02_part-02_label-phase2,2020.2.10,Win32,60,,,,,left,1.2763,2,0.49533,left,1.36284,0,0,0,0,1,,,,,,,,,,,,,,,,,
,,,,,,,,4,2021-04-13_15h32.22.398,premceCat2_ses-02_part-02_label-phase2,2020.2.10,Win32,60,,,,,,,,,,,,,,,,0,109,109,140,1,stimuli/objects/volleyball.jpg,left,old,141,,,,,,,,
,,,,,,,,4,2021-04-13_15h32.22.398,premceCat2_ses-02_part-02_label-phase2,2020.2.10,Win32,60,,,,,right,1.61321,1,1.215885,,,,,,,,0,110,110,81,1,stimuli/objects/avcable.jpg,right,new,82,,,,,,,,
,,,,,,,,4,2021-04-13_15h32.22.398,premceCat2_ses-02_part-02_label-phase2,2020.2.10,Win32,60,,,,,left,1.28192,3,1.167725,left,1.332825,0,0,0,0,1,,,,,,,,,,,,,,,,,
,,,,,,,,4,2021-04-13_15h32.22.398,premceCat2_ses-02_part-02_label-phase2,2020.2.10,Win32,60,,,,,,,,,,,,,,,,0,111,111,27,1,stimuli/objects/catchermask.jpg,left,old,28,,,,,,,,
,,,,,,,,4,2021-04-13_15h32.22.398,premceCat2_ses-02_part-02_label-phase2,2020.2.10,Win32,60,,,,,right,1.758885,2,1.570435,,,,,,,,0,112,112,60,1,stimuli/objects/glass02a.jpg,right,new,61,,,,,,,,
,,,,,,,,4,2021-04-13_15h32.22.398,premceCat2_ses-02_part-02_label-phase2,2020.2.10,Win32,60,,,,,left,1.32205,3,0.56381,left,0.789935,0,0,0,0,1,,,,,,,,,,,,,,,,,
,,,,,,,,4,2021-04-13_15h32.22.398,premceCat2_ses-02_part-02_label-phase2,2020.2.10,Win32,60,,,,,,,,,,,,,,,,0,113,113,114,1,stimuli/objects/pitcher02b.jpg,left,old,115,,,,,,,,
,,,,,,,,4,2021-04-13_15h32.22.398,premceCat2_ses-02_part-02_label-phase2,2020.2.10,Win32,60,,,,,right,1.187265,4,1.64831,,,,,,,,0,114,114,80,1,stimuli/objects/snowman.jpg,right,new,81,,,,,,,,
,,,,,,,,4,2021-04-13_15h32.22.398,premceCat2_ses-02_part-02_label-phase2,2020.2.10,Win32,60,,,,,right,1.26866,3,0.763195,,,,,,,,0,115,115,8,1,stimuli/objects/basketballhoop01.jpg,right,new,9,,,,,,,,
,,,,,,,,4,2021-04-13_15h32.22.398,premceCat2_ses-02_part-02_label-phase2,2020.2.10,Win32,60,,,,,left,1.41555,3,0.66151,left,1.27527,0,0,0,0,1,,,,,,,,,,,,,,,,,
,,,,,,,,4,2021-04-13_15h32.22.398,premceCat2_ses-02_part-02_label-phase2,2020.2.10,Win32,60,,,,,,,,,,,,,,,,0,116,116,44,1,stimuli/objects/toyhardhat.jpg,left,old,45,,,,,,,,
,,,,,,,,4,2021-04-13_15h32.22.398,premceCat2_ses-02_part-02_label-phase2,2020.2.10,Win32,60,,,,,left,1.31162,2,0.709555,left,1.544865,0,0,0,0,1,,,,,,,,,,,,,,,,,
,,,,,,,,4,2021-04-13_15h32.22.398,premceCat2_ses-02_part-02_label-phase2,2020.2.10,Win32,60,,,,,,,,,,,,,,,,0,117,117,74,1,stimuli/objects/treadmill.jpg,left,old,75,,,,,,,,
,,,,,,,,4,2021-04-13_15h32.22.398,premceCat2_ses-02_part-02_label-phase2,2020.2.10,Win32,60,,,,,left,1.09474,3,0.49978,left,2.325165,0,0,0,0,1,,,,,,,,,,,,,,,,,
,,,,,,,,4,2021-04-13_15h32.22.398,premceCat2_ses-02_part-02_label-phase2,2020.2.10,Win32,60,,,,,,,,,,,,,,,,0,118,118,89,1,stimuli/objects/ducttape.jpg,right,new,90,,,,,,,,
,,,,,,,,4,2021-04-13_15h32.22.398,premceCat2_ses-02_part-02_label-phase2,2020.2.10,Win32,60,,,,,right,2.536235,1,0.726335,,,,,,,,0,119,119,92,1,stimuli/objects/carjack.jpg,right,new,93,,,,,,,,
,,,,,,,,4,2021-04-13_15h32.22.398,premceCat2_ses-02_part-02_label-phase2,2020.2.10,Win32,60,,,,,right,2.67917,2,0.974695,,,,,,,,0,120,120,18,1,stimuli/objects/cashregister01.jpg,right,new,19,,,,,,,,
,,,,,,,,4,2021-04-13_15h32.22.398,premceCat2_ses-02_part-02_label-phase2,2020.2.10,Win32,60,,,,,right,1.380695,2,0.79915,,,,,,,,0,121,121,17,1,stimuli/objects/exercisebench.jpg,right,new,18,,,,,,,,
,,,,,,,,4,2021-04-13_15h32.22.398,premceCat2_ses-02_part-02_label-phase2,2020.2.10,Win32,60,,,,,right,2.063375,2,0.368165,,,,,,,,0,122,122,113,1,stimuli/objects/powercable.jpg,right,new,114,,,,,,,,
,,,,,,,,4,2021-04-13_15h32.22.398,premceCat2_ses-02_part-02_label-phase2,2020.2.10,Win32,60,,,,,right,1.99679,1,1.158505,,,,,,,,0,123,123,68,1,stimuli/objects/leafblower01.jpg,right,new,69,,,,,,,,
,,,,,,,,4,2021-04-13_15h32.22.398,premceCat2_ses-02_part-02_label-phase2,2020.2.10,Win32,60,,,,,left,1.363285,3,1.09215,left,0.642355,0,0,0,0,1,,,,,,,,,,,,,,,,,
,,,,,,,,4,2021-04-13_15h32.22.398,premceCat2_ses-02_part-02_label-phase2,2020.2.10,Win32,60,,,,,,,,,,,,,,,,0,124,124,3,1,stimuli/objects/towel01.jpg,left,old,4,,,,,,,,
,,,,,,,,4,2021-04-13_15h32.22.398,premceCat2_ses-02_part-02_label-phase2,2020.2.10,Win32,60,,,,,right,1.93018,2,1.58337,,,,,,,,0,125,125,75,1,stimuli/objects/stepladder.jpg,right,new,76,,,,,,,,
,,,,,,,,4,2021-04-13_15h32.22.398,premceCat2_ses-02_part-02_label-phase2,2020.2.10,Win32,60,,,,,left,2.985115,3,1.464055,right,1.26321,0,0,0,0,1,,,,,,,,,,,,,,,,,
,,,,,,,,4,2021-04-13_15h32.22.398,premceCat2_ses-02_part-02_label-phase2,2020.2.10,Win32,60,,,,,,,,,,,,,,,,0,126,126,95,1,stimuli/objects/telephone01b.jpg,left,old,96,,,,,,,,
,,,,,,,,4,2021-04-13_15h32.22.398,premceCat2_ses-02_part-02_label-phase2,2020.2.10,Win32,60,,,,,right,2.43953,2,3.11503,,,,,,,,0,127,127,13,1,stimuli/objects/bastingbrush.jpg,right,new,14,,,,,,,,
,,,,,,,,4,2021-04-13_15h32.22.398,premceCat2_ses-02_part-02_label-phase2,2020.2.10,Win32,60,,,,,right,0.95408,3,0.5222,,,,,,,,0,128,128,107,1,stimuli/objects/martiniglass01b.jpg,left,old,108,,,,,,,,
,,,,,,,,4,2021-04-13_15h32.22.398,premceCat2_ses-02_part-02_label-phase2,2020.2.10,Win32,60,,,,,left,1.29592,2,1.120595,right,0.6526,0,0,0,0,1,,,,,,,,,,,,,,,,,
,,,,,,,,4,2021-04-13_15h32.22.398,premceCat2_ses-02_part-02_label-phase2,2020.2.10,Win32,60,,,,,,,,,,,,,,,,0,129,129,14,1,stimuli/objects/mallet01b.jpg,left,old,15,,,,,,,,
,,,,,,,,4,2021-04-13_15h32.22.398,premceCat2_ses-02_part-02_label-phase2,2020.2.10,Win32,60,,,,,left,1.053915,2,1.11909,left,0.444915,0,0,0,0,1,,,,,,,,,,,,,,,,,
,,,,,,,,4,2021-04-13_15h32.22.398,premceCat2_ses-02_part-02_label-phase2,2020.2.10,Win32,60,,,,,,,,,,,,,,,,0,130,130,125,1,stimuli/objects/shoulderpad.jpg,right,new,126,,,,,,,,
,,,,,,,,4,2021-04-13_15h32.22.398,premceCat2_ses-02_part-02_label-phase2,2020.2.10,Win32,60,,,,,right,1.36221,3,1.77135,,,,,,,,0,131,131,111,1,stimuli/objects/speaker04.jpg,right,new,112,,,,,,,,
,,,,,,,,4,2021-04-13_15h32.22.398,premceCat2_ses-02_part-02_label-phase2,2020.2.10,Win32,60,,,,,right,1.33728,2,0.72968,,,,,,,,0,132,132,11,1,stimuli/objects/videocamera01a.jpg,left,old,12,,,,,,,,
,,,,,,,,4,2021-04-13_15h32.22.398,premceCat2_ses-02_part-02_label-phase2,2020.2.10,Win32,60,,,,,right,0.90379,3,0.922765,,,,,,,,0,133,133,128,1,stimuli/objects/tripod01.jpg,right,new,129,,,,,,,,
,,,,,,,,4,2021-04-13_15h32.22.398,premceCat2_ses-02_part-02_label-phase2,2020.2.10,Win32,60,,,,,right,1.180855,3,0.81037,,,,,,,,0,134,134,20,1,stimuli/objects/laptop01a.jpg,right,new,21,,,,,,,,
,,,,,,,,4,2021-04-13_15h32.22.398,premceCat2_ses-02_part-02_label-phase2,2020.2.10,Win32,60,,,,,right,1.154805,3,0.7285,,,,,,,,0,135,135,132,1,stimuli/objects/airconditioner.jpg,left,old,133,,,,,,,,
,,,,,,,,4,2021-04-13_15h32.22.398,premceCat2_ses-02_part-02_label-phase2,2020.2.10,Win32,60,,,,,right,2.362975,3,0.59064,,,,,,,,0,136,136,66,1,stimuli/objects/nailgun.jpg,right,new,67,,,,,,,,
,,,,,,,,4,2021-04-13_15h32.22.398,premceCat2_ses-02_part-02_label-phase2,2020.2.10,Win32,60,,,,,right,1.188365,4,0.60728,,,,,,,,0,137,137,139,1,stimuli/objects/frisbee.jpg,right,new,140,,,,,,,,
,,,,,,,,4,2021-04-13_15h32.22.398,premceCat2_ses-02_part-02_label-phase2,2020.2.10,Win32,60,,,,,left,1.44846,4,0.57995,left,1.661805,0,0,0,0,1,,,,,,,,,,,,,,,,,
,,,,,,,,4,2021-04-13_15h32.22.398,premceCat2_ses-02_part-02_label-phase2,2020.2.10,Win32,60,,,,,,,,,,,,,,,,0,138,138,87,1,stimuli/objects/coffeemachine.jpg,left,old,88,,,,,,,,
,,,,,,,,4,2021-04-13_15h32.22.398,premceCat2_ses-02_part-02_label-phase2,2020.2.10,Win32,60,,,,,right,1.49107,2,0.389405,,,,,,,,0,139,139,133,1,stimuli/objects/icebucket.jpg,right,new,134,,,,,,,,
,,,,,,,,4,2021-04-13_15h32.22.398,premceCat2_ses-02_part-02_label-phase2,2020.2.10,Win32,60,,,,,left,1.294295,2,0.505905,right,0.64624,0,0,0,0,1,,,,,,,,,,,,,,,,,
,,,,,,,,4,2021-04-13_15h32.22.398,premceCat2_ses-02_part-02_label-phase2,2020.2.10,Win32,60,,,,,,,,,,,,,,,,0,140,140,135,1,stimuli/objects/drillbit03a.jpg,left,old,136,,,,,,,,
,,,,,,,,4,2021-04-13_15h32.22.398,premceCat2_ses-02_part-02_label-phase2,2020.2.10,Win32,60,,,,,right,1.208145,2,1.54537,,,,,,,,0,141,141,46,1,stimuli/objects/walkman.jpg,right,new,47,,,,,,,,
,,,,,,,,4,2021-04-13_15h32.22.398,premceCat2_ses-02_part-02_label-phase2,2020.2.10,Win32,60,,,,,right,1.057735,2,0.408375,,,,,,,,0,142,142,0,1,stimuli/objects/phonejack.jpg,left,old,1,,,,,,,,
,,,,,,,,4,2021-04-13_15h32.22.398,premceCat2_ses-02_part-02_label-phase2,2020.2.10,Win32,60,,,,,,,,,,,,,,,,,,,,,,,,,space,2.760135,0,0,0,0,1,condition_files/ImagesforRecog1_1.csv
,,,,,,,,4,2021-04-13_15h32.22.398,premceCat2_ses-02_part-02_label-phase2,2020.2.10,Win32,60,,,,,left,2.618195,2,5.013535,left,0.893755,0,0,0,0,1,,,,,,,,,,,,,,,,,
,,,,,,,,4,2021-04-13_15h32.22.398,premceCat2_ses-02_part-02_label-phase2,2020.2.10,Win32,60,,,,,,,,,,,,,,,,0,0,0,93,1,stimuli/objects/axe01.jpg,left,old,237,,,,,,,,
,,,,,,,,4,2021-04-13_15h32.22.398,premceCat2_ses-02_part-02_label-phase2,2020.2.10,Win32,60,,,,,left,2.12662,3,1.04453,left,2.22694,0,0,0,0,1,,,,,,,,,,,,,,,,,
,,,,,,,,4,2021-04-13_15h32.22.398,premceCat2_ses-02_part-02_label-phase2,2020.2.10,Win32,60,,,,,,,,,,,,,,,,0,1,1,36,1,stimuli/objects/loppingshears.jpg,right,new,180,,,,,,,,
,,,,,,,,4,2021-04-13_15h32.22.398,premceCat2_ses-02_part-02_label-phase2,2020.2.10,Win32,60,,,,,left,1.257655,3,0.500135,left,0.39587,0,0,0,0,1,,,,,,,,,,,,,,,,,
,,,,,,,,4,2021-04-13_15h32.22.398,premceCat2_ses-02_part-02_label-phase2,2020.2.10,Win32,60,,,,,,,,,,,,,,,,0,2,2,58,1,stimuli/objects/ellipticalmachine.jpg,left,old,202,,,,,,,,
,,,,,,,,4,2021-04-13_15h32.22.398,premceCat2_ses-02_part-02_label-phase2,2020.2.10,Win32,60,,,,,left,1.2355,1,1.44891,right,0.389885,0,0,0,0,1,,,,,,,,,,,,,,,,,
,,,,,,,,4,2021-04-13_15h32.22.398,premceCat2_ses-02_part-02_label-phase2,2020.2.10,Win32,60,,,,,,,,,,,,,,,,0,3,3,35,1,stimuli/objects/stroller.jpg,right,new,179,,,,,,,,
,,,,,,,,4,2021-04-13_15h32.22.398,premceCat2_ses-02_part-02_label-phase2,2020.2.10,Win32,60,,,,,left,3.32832,1,0.52688,left,0.664675,0,0,0,0,1,,,,,,,,,,,,,,,,,
,,,,,,,,4,2021-04-13_15h32.22.398,premceCat2_ses-02_part-02_label-phase2,2020.2.10,Win32,60,,,,,,,,,,,,,,,,0,4,4,70,1,stimuli/objects/shovel01.jpg,right,new,214,,,,,,,,
,,,,,,,,4,2021-04-13_15h32.22.398,premceCat2_ses-02_part-02_label-phase2,2020.2.10,Win32,60,,,,,left,1.71235,3,0.82527,right,1.615195,0,0,0,0,1,,,,,,,,,,,,,,,,,
,,,,,,,,4,2021-04-13_15h32.22.398,premceCat2_ses-02_part-02_label-phase2,2020.2.10,Win32,60,,,,,,,,,,,,,,,,0,5,5,54,1,stimuli/objects/stubbywrench01a.jpg,left,old,198,,,,,,,,
,,,,,,,,4,2021-04-13_15h32.22.398,premceCat2_ses-02_part-02_label-phase2,2020.2.10,Win32,60,,,,,right,1.43826,2,1.008645,,,,,,,,0,6,6,24,1,stimuli/objects/monitor.jpg,right,new,168,,,,,,,,
,,,,,,,,4,2021-04-13_15h32.22.398,premceCat2_ses-02_part-02_label-phase2,2020.2.10,Win32,60,,,,,left,1.201665,3,0.56001,left,1.638755,0,0,0,0,1,,,,,,,,,,,,,,,,,
,,,,,,,,4,2021-04-13_15h32.22.398,premceCat2_ses-02_part-02_label-phase2,2020.2.10,Win32,60,,,,,,,,,,,,,,,,0,7,7,72,1,stimuli/objects/wheel01.jpg,left,old,216,,,,,,,,
,,,,,,,,4,2021-04-13_15h32.22.398,premceCat2_ses-02_part-02_label-phase2,2020.2.10,Win32,60,,,,,left,1.6701,2,0.780865,left,0.51736,0,0,0,0,1,,,,,,,,,,,,,,,,,
,,,,,,,,4,2021-04-13_15h32.22.398,premceCat2_ses-02_part-02_label-phase2,2020.2.10,Win32,60,,,,,,,,,,,,,,,,0,8,8,118,1,stimuli/objects/pressurewasher.jpg,left,old,262,,,,,,,,
,,,,,,,,4,2021-04-13_15h32.22.398,premceCat2_ses-02_part-02_label-phase2,2020.2.10,Win32,60,,,,,right,2.040895,2,0.66813,,,,,,,,0,9,9,48,1,stimuli/objects/eggslicer.jpg,right,new,192,,,,,,,,
,,,,,,,,4,2021-04-13_15h32.22.398,premceCat2_ses-02_part-02_label-phase2,2020.2.10,Win32,60,,,,,right,1.22752,2,0.826535,,,,,,,,0,10,10,84,1,stimuli/objects/sportbag.jpg,left,old,228,,,,,,,,
,,,,,,,,4,2021-04-13_15h32.22.398,premceCat2_ses-02_part-02_label-phase2,2020.2.10,Win32,60,,,,,left,0.962945,3,0.38502,right,0.723665,0,0,0,0,1,,,,,,,,,,,,,,,,,
,,,,,,,,4,2021-04-13_15h32.22.398,premceCat2_ses-02_part-02_label-phase2,2020.2.10,Win32,60,,,,,,,,,,,,,,,,0,11,11,53,1,stimuli/objects/chainsaw.jpg,left,old,197,,,,,,,,
,,,,,,,,4,2021-04-13_15h32.22.398,premceCat2_ses-02_part-02_label-phase2,2020.2.10,Win32,60,,,,,left,1.50413,4,1.389055,right,1.08117,0,0,0,0,1,,,,,,,,,,,,,,,,,
,,,,,,,,4,2021-04-13_15h32.22.398,premceCat2_ses-02_part-02_label-phase2,2020.2.10,Win32,60,,,,,,,,,,,,,,,,0,12,12,18,1,stimuli/objects/dvdplayer.jpg,left,old,162,,,,,,,,
,,,,,,,,4,2021-04-13_15h32.22.398,premceCat2_ses-02_part-02_label-phase2,2020.2.10,Win32,60,,,,,left,2.861335,3,1.19761,left,0.76248,0,0,0,0,1,,,,,,,,,,,,,,,,,
,,,,,,,,4,2021-04-13_15h32.22.398,premceCat2_ses-02_part-02_label-phase2,2020.2.10,Win32,60,,,,,,,,,,,,,,,,0,13,13,42,1,stimuli/objects/tennisracket.jpg,right,new,186,,,,,,,,
,,,,,,,,4,2021-04-13_15h32.22.398,premceCat2_ses-02_part-02_label-phase2,2020.2.10,Win32,60,,,,,right,1.331715,2,1.31067,,,,,,,,0,14,14,30,1,stimuli/objects/halogenlightbulb.jpg,right,new,174,,,,,,,,
,,,,,,,,4,2021-04-13_15h32.22.398,premceCat2_ses-02_part-02_label-phase2,2020.2.10,Win32,60,,,,,left,1.481605,2,1.085225,right,1.209705,0,0,0,0,1,,,,,,,,,,,,,,,,,
,,,,,,,,4,2021-04-13_15h32.22.398,premceCat2_ses-02_part-02_label-phase2,2020.2.10,Win32,60,,,,,,,,,,,,,,,,0,15,15,106,1,stimuli/objects/usbcable01a.jpg,left,old,250,,,,,,,,
,,,,,,,,4,2021-04-13_15h32.22.398,premceCat2_ses-02_part-02_label-phase2,2020.2.10,Win32,60,,,,,left,1.29214,3,0.87898,right,0.97015,0,0,0,0,1,,,,,,,,,,,,,,,,,
,,,,,,,,4,2021-04-13_15h32.22.398,premceCat2_ses-02_part-02_label-phase2,2020.2.10,Win32,60,,,,,,,,,,,,,,,,0,16,16,31,1,stimuli/objects/outdoorheater.jpg,left,old,175,,,,,,,,
,,,,,,,,4,2021-04-13_15h32.22.398,premceCat2_ses-02_part-02_label-phase2,2020.2.10,Win32,60,,,,,left,1.18917,3,0.479105,right,0.52777,0,0,0,0,1,,,,,,,,,,,,,,,,,
,,,,,,,,4,2021-04-13_15h32.22.398,premceCat2_ses-02_part-02_label-phase2,2020.2.10,Win32,60,,,,,,,,,,,,,,,,0,17,17,13,1,stimuli/objects/leafrake.jpg,left,old,157,,,,,,,,
,,,,,,,,4,2021-04-13_15h32.22.398,premceCat2_ses-02_part-02_label-phase2,2020.2.10,Win32,60,,,,,right,2.33997,2,0.774625,,,,,,,,0,18,18,43,1,stimuli/objects/bowrake.jpg,right,new,187,,,,,,,,
,,,,,,,,4,2021-04-13_15h32.22.398,premceCat2_ses-02_part-02_label-phase2,2020.2.10,Win32,60,,,,,right,1.095125,2,0.490365,,,,,,,,0,19,19,135,1,stimuli/objects/mortarandpestle.jpg,right,new,279,,,,,,,,
,,,,,,,,4,2021-04-13_15h32.22.398,premceCat2_ses-02_part-02_label-phase2,2020.2.10,Win32,60,,,,,left,1.31551,3,0.467195,left,0.58175,0,0,0,0,1,,,,,,,,,,,,,,,,,
,,,,,,,,4,2021-04-13_15h32.22.398,premceCat2_ses-02_part-02_label-phase2,2020.2.10,Win32,60,,,,,,,,,,,,,,,,0,20,20,88,1,stimuli/objects/charcoalbarbecue.jpg,left,old,232,,,,,,,,
,,,,,,,,4,2021-04-13_15h32.22.398,premceCat2_ses-02_part-02_label-phase2,2020.2.10,Win32,60,,,,,left,1.52979,3,0.48111,left,0.5283,0,0,0,0,1,,,,,,,,,,,,,,,,,
,,,,,,,,4,2021-04-13_15h32.22.398,premceCat2_ses-02_part-02_label-phase2,2020.2.10,Win32,60,,,,,,,,,,,,,,,,0,21,21,50,1,stimuli/objects/magneticcompass.jpg,left,old,194,,,,,,,,
,,,,,,,,4,2021-04-13_15h32.22.398,premceCat2_ses-02_part-02_label-phase2,2020.2.10,Win32,60,,,,,left,3.480985,2,0.587925,right,0.631885,0,0,0,0,1,,,,,,,,,,,,,,,,,
,,,,,,,,4,2021-04-13_15h32.22.398,premceCat2_ses-02_part-02_label-phase2,2020.2.10,Win32,60,,,,,,,,,,,,,,,,0,22,22,4,1,stimuli/objects/cassettetape01a.jpg,right,new,148,,,,,,,,
,,,,,,,,4,2021-04-13_15h32.22.398,premceCat2_ses-02_part-02_label-phase2,2020.2.10,Win32,60,,,,,left,1.38829,4,0.673915,left,0.43925,0,0,0,0,1,,,,,,,,,,,,,,,,,
,,,,,,,,4,2021-04-13_15h32.22.398,premceCat2_ses-02_part-02_label-phase2,2020.2.10,Win32,60,,,,,,,,,,,,,,,,0,23,23,109,1,stimuli/objects/peeler01.jpg,left,old,253,,,,,,,,
,,,,,,,,4,2021-04-13_15h32.22.398,premceCat2_ses-02_part-02_label-phase2,2020.2.10,Win32,60,,,,,left,1.43097,3,1.074635,left,2.08733,0,0,0,0,1,,,,,,,,,,,,,,,,,
,,,,,,,,4,2021-04-13_15h32.22.398,premceCat2_ses-02_part-02_label-phase2,2020.2.10,Win32,60,,,,,,,,,,,,,,,,0,24,24,134,1,stimuli/objects/filmnegative.jpg,left,old,278,,,,,,,,
,,,,,,,,4,2021-04-13_15h32.22.398,premceCat2_ses-02_part-02_label-phase2,2020.2.10,Win32,60,,,,,left,1.063875,3,1.446675,left,0.34889,0,0,0,0,1,,,,,,,,,,,,,,,,,
,,,,,,,,4,2021-04-13_15h32.22.398,premceCat2_ses-02_part-02_label-phase2,2020.2.10,Win32,60,,,,,,,,,,,,,,,,0,25,25,110,1,stimuli/objects/bikewheel.jpg,left,old,254,,,,,,,,
,,,,,,,,4,2021-04-13_15h32.22.398,premceCat2_ses-02_part-02_label-phase2,2020.2.10,Win32,60,,,,,right,1.546795,2,0.687195,,,,,,,,0,26,26,59,1,stimuli/objects/speedball.jpg,right,new,203,,,,,,,,
,,,,,,,,4,2021-04-13_15h32.22.398,premceCat2_ses-02_part-02_label-phase2,2020.2.10,Win32,60,,,,,right,1.802295,2,1.45557,,,,,,,,0,27,27,34,1,stimuli/objects/kneepad01c.jpg,right,new,178,,,,,,,,
,,,,,,,,4,2021-04-13_15h32.22.398,premceCat2_ses-02_part-02_label-phase2,2020.2.10,Win32,60,,,,,left,1.16972,4,0.87929,left,2.53773,0,0,0,0,1,,,,,,,,,,,,,,,,,
,,,,,,,,4,2021-04-13_15h32.22.398,premceCat2_ses-02_part-02_label-phase2,2020.2.10,Win32,60,,,,,,,,,,,,,,,,0,28,28,77,1,stimuli/objects/thermos.jpg,left,old,221,,,,,,,,
,,,,,,,,4,2021-04-13_15h32.22.398,premceCat2_ses-02_part-02_label-phase2,2020.2.10,Win32,60,,,,,right,1.461125,2,0.430655,,,,,,,,0,29,29,89,1,stimuli/objects/pastaspoon.jpg,left,old,233,,,,,,,,
,,,,,,,,4,2021-04-13_15h32.22.398,premceCat2_ses-02_part-02_label-phase2,2020.2.10,Win32,60,,,,,left,0.9743,2,0.734345,left,0.96777,0,0,0,0,1,,,,,,,,,,,,,,,,,
,,,,,,,,4,2021-04-13_15h32.22.398,premceCat2_ses-02_part-02_label-phase2,2020.2.10,Win32,60,,,,,,,,,,,,,,,,0,30,30,100,1,stimuli/objects/lawnmower.jpg,left,old,244,,,,,,,,
,,,,,,,,4,2021-04-13_15h32.22.398,premceCat2_ses-02_part-02_label-phase2,2020.2.10,Win32,60,,,,,left,1.04626,3,0.851545,right,0.86096,0,0,0,0,1,,,,,,,,,,,,,,,,,
,,,,,,,,4,2021-04-13_15h32.22.398,premceCat2_ses-02_part-02_label-phase2,2020.2.10,Win32,60,,,,,,,,,,,,,,,,0,31,31,52,1,stimuli/objects/extensioncord.jpg,left,old,196,,,,,,,,
,,,,,,,,4,2021-04-13_15h32.22.398,premceCat2_ses-02_part-02_label-phase2,2020.2.10,Win32,60,,,,,right,0.942135,3,0.445,,,,,,,,0,32,32,133,1,stimuli/objects/birdie.jpg,right,new,277,,,,,,,,
,,,,,,,,4,2021-04-13_15h32.22.398,premceCat2_ses-02_part-02_label-phase2,2020.2.10,Win32,60,,,,,right,1.12865,3,1.508785,,,,,,,,0,33,33,113,1,stimuli/objects/boltcutter.jpg,left,old,257,,,,,,,,
,,,,,,,,4,2021-04-13_15h32.22.398,premceCat2_ses-02_part-02_label-phase2,2020.2.10,Win32,60,,,,,left,2.44179,2,0.66624,left,1.03414,0,0,0,0,1,,,,,,,,,,,,,,,,,
,,,,,,,,4,2021-04-13_15h32.22.398,premceCat2_ses-02_part-02_label-phase2,2020.2.10,Win32,60,,,,,,,,,,,,,,,,0,34,34,10,1,stimuli/objects/downhillski.jpg,left,old,154,,,,,,,,
,,,,,,,,4,2021-04-13_15h32.22.398,premceCat2_ses-02_part-02_label-phase2,2020.2.10,Win32,60,,,,,right,1.179645,2,1.1961,,,,,,,,0,35,35,91,1,stimuli/objects/cuttingpliers02.jpg,right,new,235,,,,,,,,
,,,,,,,,4,2021-04-13_15h32.22.398,premceCat2_ses-02_part-02_label-phase2,2020.2.10,Win32,60,,,,,right,1.0948,3,0.651525,,,,,,,,0,36,36,5,1,stimuli/objects/pickaxe02.jpg,right,new,149,,,,,,,,
,,,,,,,,4,2021-04-13_15h32.22.398,premceCat2_ses-02_part-02_label-phase2,2020.2.10,Win32,60,,,,,right,1.184905,3,0.745525,,,,,,,,0,37,37,19,1,stimuli/objects/mug01.jpg,right,new,163,,,,,,,,
,,,,,,,,4,2021-04-13_15h32.22.398,premceCat2_ses-02_part-02_label-phase2,2020.2.10,Win32,60,,,,,right,1.14997,2,0.81375,,,,,,,,0,38,38,101,1,stimuli/objects/lifejacket.jpg,right,new,245,,,,,,,,
,,,,,,,,4,2021-04-13_15h32.22.398,premceCat2_ses-02_part-02_label-phase2,2020.2.10,Win32,60,,,,,left,1.260775,1,1.14258,left,0.38604,0,0,0,0,1,,,,,,,,,,,,,,,,,
,,,,,,,,4,2021-04-13_15h32.22.398,premceCat2_ses-02_part-02_label-phase2,2020.2.10,Win32,60,,,,,,,,,,,,,,,,0,39,39,14,1,stimuli/objects/canoepaddle02.jpg,left,old,158,,,,,,,,
,,,,,,,,4,2021-04-13_15h32.22.398,premceCat2_ses-02_part-02_label-phase2,2020.2.10,Win32,60,,,,,left,0.896915,3,0.415625,left,1.796575,0,0,0,0,1,,,,,,,,,,,,,,,,,
,,,,,,,,4,2021-04-13_15h32.22.398,premceCat2_ses-02_part-02_label-phase2,2020.2.10,Win32,60,,,,,,,,,,,,,,,,0,40,40,85,1,stimuli/objects/fan.jpg,left,old,229,,,,,,,,
,,,,,,,,4,2021-04-13_15h32.22.398,premceCat2_ses-02_part-02_label-phase2,2020.2.10,Win32,60,,,,,left,1.267535,2,0.532755,right,1.03642,0,0,0,0,1,,,,,,,,,,,,,,,,,
,,,,,,,,4,2021-04-13_15h32.22.398,premceCat2_ses-02_part-02_label-phase2,2020.2.10,Win32,60,,,,,,,,,,,,,,,,0,41,41,105,1,stimuli/objects/cork02.jpg,left,old,249,,,,,,,,
,,,,,,,,4,2021-04-13_15h32.22.398,premceCat2_ses-02_part-02_label-phase2,2020.2.10,Win32,60,,,,,left,2.275425,2,0.384555,left,0.321835,0,0,0,0,1,,,,,,,,,,,,,,,,,
,,,,,,,,4,2021-04-13_15h32.22.398,premceCat2_ses-02_part-02_label-phase2,2020.2.10,Win32,60,,,,,,,,,,,,,,,,0,42,42,126,1,stimuli/objects/shinpad.jpg,left,old,270,,,,,,,,
,,,,,,,,4,2021-04-13_15h32.22.398,premceCat2_ses-02_part-02_label-phase2,2020.2.10,Win32,60,,,,,right,1.360385,2,0.73578,,,,,,,,0,43,43,78,1,stimuli/objects/lightswitch01.jpg,right,new,222,,,,,,,,
,,,,,,,,4,2021-04-13_15h32.22.398,premceCat2_ses-02_part-02_label-phase2,2020.2.10,Win32,60,,,,,left,1.492135,3,0.379335,left,0.695395,0,0,0,0,1,,,,,,,,,,,,,,,,,
,,,,,,,,4,2021-04-13_15h32.22.398,premceCat2_ses-02_part-02_label-phase2,2020.2.10,Win32,60,,,,,,,,,,,,,,,,0,44,44,112,1,stimuli/objects/filmroll.jpg,left,old,256,,,,,,,,
,,,,,,,,4,2021-04-13_15h32.22.398,premceCat2_ses-02_part-02_label-phase2,2020.2.10,Win32,60,,,,,left,1.823045,3,1.134765,right,0.89486,0,0,0,0,1,,,,,,,,,,,,,,,,,
,,,,,,,,4,2021-04-13_15h32.22.398,premceCat2_ses-02_part-02_label-phase2,2020.2.10,Win32,60,,,,,,,,,,,,,,,,0,45,45,67,1,stimuli/objects/nintendods.jpg,left,old,211,,,,,,,,
,,,,,,,,4,2021-04-13_15h32.22.398,premceCat2_ses-02_part-02_label-phase2,2020.2.10,Win32,60,,,,,left,3.544445,2,0.86383,left,0.85596,0,0,0,0,1,,,,,,,,,,,,,,,,,
,,,,,,,,4,2021-04-13_15h32.22.398,premceCat2_ses-02_part-02_label-phase2,2020.2.10,Win32,60,,,,,,,,,,,,,,,,0,46,46,62,1,stimuli/objects/spoon01.jpg,left,old,206,,,,,,,,
,,,,,,,,4,2021-04-13_15h32.22.398,premceCat2_ses-02_part-02_label-phase2,2020.2.10,Win32,60,,,,,right,1.127125,2,0.96803,,,,,,,,0,47,47,116,1,stimuli/objects/lockingplier.jpg,right,new,260,,,,,,,,
,,,,,,,,4,2021-04-13_15h32.22.398,premceCat2_ses-02_part-02_label-phase2,2020.2.10,Win32,60,,,,,right,1.311405,3,0.47556,,,,,,,,0,48,48,95,1,stimuli/objects/tennisball01b.jpg,right,new,239,,,,,,,,
,,,,,,,,4,2021-04-13_15h32.22.398,premceCat2_ses-02_part-02_label-phase2,2020.2.10,Win32,60,,,,,right,1.174655,3,0.54525,,,,,,,,0,49,49,69,1,stimuli/objects/straw.jpg,right,new,213,,,,,,,,
,,,,,,,,4,2021-04-13_15h32.22.398,premceCat2_ses-02_part-02_label-phase2,2020.2.10,Win32,60,,,,,left,1.115385,3,0.461815,right,2.06429,0,0,0,0,1,,,,,,,,,,,,,,,,,
,,,,,,,,4,2021-04-13_15h32.22.398,premceCat2_ses-02_part-02_label-phase2,2020.2.10,Win32,60,,,,,,,,,,,,,,,,0,50,50,92,1,stimuli/objects/gluetube.jpg,left,old,236,,,,,,,,
,,,,,,,,4,2021-04-13_15h32.22.398,premceCat2_ses-02_part-02_label-phase2,2020.2.10,Win32,60,,,,,left,2.38035,3,1.439885,left,0.599775,0,0,0,0,1,,,,,,,,,,,,,,,,,
,,,,,,,,4,2021-04-13_15h32.22.398,premceCat2_ses-02_part-02_label-phase2,2020.2.10,Win32,60,,,,,,,,,,,,,,,,0,51,51,45,1,stimuli/objects/bikelock.jpg,left,old,189,,,,,,,,
,,,,,,,,4,2021-04-13_15h32.22.398,premceCat2_ses-02_part-02_label-phase2,2020.2.10,Win32,60,,,,,left,1.128945,3,0.96642,left,0.53926,0,0,0,0,1,,,,,,,,,,,,,,,,,
,,,,,,,,4,2021-04-13_15h32.22.398,premceCat2_ses-02_part-02_label-phase2,2020.2.10,Win32,60,,,,,,,,,,,,,,,,0,52,52,56,1,stimuli/objects/hourglass.jpg,left,old,200,,,,,,,,
,,,,,,,,4,2021-04-13_15h32.22.398,premceCat2_ses-02_part-02_label-phase2,2020.2.10,Win32,60,,,,,right,1.00476,2,0.579455,,,,,,,,0,53,53,46,1,stimuli/objects/waterbottleholder.jpg,right,new,190,,,,,,,,
,,,,,,,,4,2021-04-13_15h32.22.398,premceCat2_ses-02_part-02_label-phase2,2020.2.10,Win32,60,,,,,right,2.790455,1,0.64572,,,,,,,,0,54,54,139,1,stimuli/objects/measuringcup01.jpg,left,old,283,,,,,,,,
,,,,,,,,4,2021-04-13_15h32.22.398,premceCat2_ses-02_part-02_label-phase2,2020.2.10,Win32,60,,,,,right,1.0681,2,0.680815,,,,,,,,0,55,55,98,1,stimuli/objects/cameracase01a.jpg,right,new,242,,,,,,,,
,,,,,,,,4,2021-04-13_15h32.22.398,premceCat2_ses-02_part-02_label-phase2,2020.2.10,Win32,60,,,,,right,1.266795,2,0.77782,,,,,,,,0,56,56,141,1,stimuli/objects/coffeepot03a.jpg,left,old,285,,,,,,,,
,,,,,,,,4,2021-04-13_15h32.22.398,premceCat2_ses-02_part-02_label-phase2,2020.2.10,Win32,60,,,,,left,0.976585,3,0.473265,left,0.445885,0,0,0,0,1,,,,,,,,,,,,,,,,,
,,,,,,,,4,2021-04-13_15h32.22.398,premceCat2_ses-02_part-02_label-phase2,2020.2.10,Win32,60,,,,,,,,,,,,,,,,0,57,57,28,1,stimuli/objects/saladspinner.jpg,left,old,172,,,,,,,,
,,,,,,,,4,2021-04-13_15h32.22.398,premceCat2_ses-02_part-02_label-phase2,2020.2.10,Win32,60,,,,,left,1.29978,3,0.8899,right,0.71267,0,0,0,0,1,,,,,,,,,,,,,,,,,
,,,,,,,,4,2021-04-13_15h32.22.398,premceCat2_ses-02_part-02_label-phase2,2020.2.10,Win32,60,,,,,,,,,,,,,,,,0,58,58,65,1,stimuli/objects/hoe.jpg,left,old,209,,,,,,,,
,,,,,,,,4,2021-04-13_15h32.22.398,premceCat2_ses-02_part-02_label-phase2,2020.2.10,Win32,60,,,,,right,1.713795,2,0.928955,,,,,,,,0,59,59,75,1,stimuli/objects/ladder.jpg,left,old,219,,,,,,,,
,,,,,,,,4,2021-04-13_15h32.22.398,premceCat2_ses-02_part-02_label-phase2,2020.2.10,Win32,60,,,,,right,1.87721,2,1.906325,,,,,,,,0,60,60,127,1,stimuli/objects/skigoggles01.jpg,right,new,271,,,,,,,,
,,,,,,,,4,2021-04-13_15h32.22.398,premceCat2_ses-02_part-02_label-phase2,2020.2.10,Win32,60,,,,,right,1.06601,3,3.196245,,,,,,,,0,61,61,121,1,stimuli/objects/parachute.jpg,right,new,265,,,,,,,,
,,,,,,,,4,2021-04-13_15h32.22.398,premceCat2_ses-02_part-02_label-phase2,2020.2.10,Win32,60,,,,,right,1.265655,2,0.675035,,,,,,,,0,62,62,140,1,stimuli/objects/wineglass01.jpg,right,new,284,,,,,,,,
,,,,,,,,4,2021-04-13_15h32.22.398,premceCat2_ses-02_part-02_label-phase2,2020.2.10,Win32,60,,,,,left,1.345925,3,0.695745,right,1.035535,0,0,0,0,1,,,,,,,,,,,,,,,,,
,,,,,,,,4,2021-04-13_15h32.22.398,premceCat2_ses-02_part-02_label-phase2,2020.2.10,Win32,60,,,,,,,,,,,,,,,,0,63,63,22,1,stimuli/objects/pipewrench.jpg,left,old,166,,,,,,,,
,,,,,,,,4,2021-04-13_15h32.22.398,premceCat2_ses-02_part-02_label-phase2,2020.2.10,Win32,60,,,,,right,1.043165,2,0.336565,,,,,,,,0,64,64,83,1,stimuli/objects/icecubetray01a.jpg,right,new,227,,,,,,,,
,,,,,,,,4,2021-04-13_15h32.22.398,premceCat2_ses-02_part-02_label-phase2,2020.2.10,Win32,60,,,,,right,0.81371,2,0.447325,,,,,,,,0,65,65,3,1,stimuli/objects/boxingglove01.jpg,right,new,147,,,,,,,,
,,,,,,,,4,2021-04-13_15h32.22.398,premceCat2_ses-02_part-02_label-phase2,2020.2.10,Win32,60,,,,,right,0.82322,2,0.5462,,,,,,,,0,66,66,11,1,stimuli/objects/antenna.jpg,left,old,155,,,,,,,,
,,,,,,,,4,2021-04-13_15h32.22.398,premceCat2_ses-02_part-02_label-phase2,2020.2.10,Win32,60,,,,,left,1.06581,3,0.599855,left,0.530085,0,0,0,0,1,,,,,,,,,,,,,,,,,
,,,,,,,,4,2021-04-13_15h32.22.398,premceCat2_ses-02_part-02_label-phase2,2020.2.10,Win32,60,,,,,,,,,,,,,,,,0,67,67,23,1,stimuli/objects/baseballglove.jpg,left,old,167,,,,,,,,
,,,,,,,,4,2021-04-13_15h32.22.398,premceCat2_ses-02_part-02_label-phase2,2020.2.10,Win32,60,,,,,right,1.259815,2,0.637155,,,,,,,,0,68,68,94,1,stimuli/objects/file.jpg,right,new,238,,,,,,,,
,,,,,,,,4,2021-04-13_15h32.22.398,premceCat2_ses-02_part-02_label-phase2,2020.2.10,Win32,60,,,,,right,1.184235,2,0.437005,,,,,,,,0,69,69,138,1,stimuli/objects/beermug01a.jpg,right,new,282,,,,,,,,
,,,,,,,,4,2021-04-13_15h32.22.398,premceCat2_ses-02_part-02_label-phase2,2020.2.10,Win32,60,,,,,right,1.245095,3,0.51146,,,,,,,,0,70,70,41,1,stimuli/objects/flask.jpg,right,new,185,,,,,,,,
,,,,,,,,4,2021-04-13_15h32.22.398,premceCat2_ses-02_part-02_label-phase2,2020.2.10,Win32,60,,,,,left,1.77624,1,0.46075,right,0.475965,0,0,0,0,1,,,,,,,,,,,,,,,,,
,,,,,,,,4,2021-04-13_15h32.22.398,premceCat2_ses-02_part-02_label-phase2,2020.2.10,Win32,60,,,,,,,,,,,,,,,,0,71,71,21,1,stimuli/objects/adjustablewrench01b.jpg,left,old,165,,,,,,,,
,,,,,,,,4,2021-04-13_15h32.22.398,premceCat2_ses-02_part-02_label-phase2,2020.2.10,Win32,60,,,,,left,1.27899,2,1.06336,left,0.35908,0,0,0,0,1,,,,,,,,,,,,,,,,,
,,,,,,,,4,2021-04-13_15h32.22.398,premceCat2_ses-02_part-02_label-phase2,2020.2.10,Win32,60,,,,,,,,,,,,,,,,0,72,72,68,1,stimuli/objects/ladle02a.jpg,right,new,212,,,,,,,,
,,,,,,,,4,2021-04-13_15h32.22.398,premceCat2_ses-02_part-02_label-phase2,2020.2.10,Win32,60,,,,,right,1.496395,2,1.094785,,,,,,,,0,73,73,123,1,stimuli/objects/jackhammer.jpg,right,new,267,,,,,,,,
,,,,,,,,4,2021-04-13_15h32.22.398,premceCat2_ses-02_part-02_label-phase2,2020.2.10,Win32,60,,,,,right,1.74724,2,0.44261,,,,,,,,0,74,74,16,1,stimuli/objects/bottleopener01.jpg,right,new,160,,,,,,,,
,,,,,,,,4,2021-04-13_15h32.22.398,premceCat2_ses-02_part-02_label-phase2,2020.2.10,Win32,60,,,,,right,0.888115,3,0.758525,,,,,,,,0,75,75,120,1,stimuli/objects/tent.jpg,right,new,264,,,,,,,,
,,,,,,,,4,2021-04-13_15h32.22.398,premceCat2_ses-02_part-02_label-phase2,2020.2.10,Win32,60,,,,,left,1.20269,2,0.985155,left,1.9651,0,0,0,0,1,,,,,,,,,,,,,,,,,
,,,,,,,,4,2021-04-13_15h32.22.398,premceCat2_ses-02_part-02_label-phase2,2020.2.10,Win32,60,,,,,,,,,,,,,,,,0,76,76,102,1,stimuli/objects/beachumbrella01.jpg,right,new,246,,,,,,,,
,,,,,,,,4,2021-04-13_15h32.22.398,premceCat2_ses-02_part-02_label-phase2,2020.2.10,Win32,60,,,,,right,1.34661,2,0.533825,,,,,,,,0,77,77,90,1,stimuli/objects/patioumbrella.jpg,left,old,234,,,,,,,,
,,,,,,,,4,2021-04-13_15h32.22.398,premceCat2_ses-02_part-02_label-phase2,2020.2.10,Win32,60,,,,,right,1.58956,2,0.58607,,,,,,,,0,78,78,79,1,stimuli/objects/snowboard.jpg,left,old,223,,,,,,,,
,,,,,,,,4,2021-04-13_15h32.22.398,premceCat2_ses-02_part-02_label-phase2,2020.2.10,Win32,60,,,,,left,0.97994,3,0.33242,right,1.3641,0,0,0,0,1,,,,,,,,,,,,,,,,,
,,,,,,,,4,2021-04-13_15h32.22.398,premceCat2_ses-02_part-02_label-phase2,2020.2.10,Win32,60,,,,,,,,,,,,,,,,0,79,79,76,1,stimuli/objects/satellitedish01.jpg,left,old,220,,,,,,,,
,,,,,,,,4,2021-04-13_15h32.22.398,premceCat2_ses-02_part-02_label-phase2,2020.2.10,Win32,60,,,,,right,1.19048,2,0.82793,,,,,,,,0,80,80,60,1,stimuli/objects/kite.jpg,right,new,204,,,,,,,,
,,,,,,,,4,2021-04-13_15h32.22.398,premceCat2_ses-02_part-02_label-phase2,2020.2.10,Win32,60,,,,,right,1.10485,2,0.66367,,,,,,,,0,81,81,128,1,stimuli/objects/espressomachine.jpg,left,old,272,,,,,,,,
,,,,,,,,4,2021-04-13_15h32.22.398,premceCat2_ses-02_part-02_label-phase2,2020.2.10,Win32,60,,,,,right,2.48345,2,0.32896,,,,,,,,0,82,82,39,1,stimuli/objects/wafflemaker.jpg,right,new,183,,,,,,,,
,,,,,,,,4,2021-04-13_15h32.22.398,premceCat2_ses-02_part-02_label-phase2,2020.2.10,Win32,60,,,,,left,1.912465,3,0.957565,left,0.35595,0,0,0,0,1,,,,,,,,,,,,,,,,,
,,,,,,,,4,2021-04-13_15h32.22.398,premceCat2_ses-02_part-02_label-phase2,2020.2.10,Win32,60,,,,,,,,,,,,,,,,0,83,83,32,1,stimuli/objects/potatomasher03b.jpg,left,old,176,,,,,,,,
,,,,,,,,4,2021-04-13_15h32.22.398,premceCat2_ses-02_part-02_label-phase2,2020.2.10,Win32,60,,,,,left,0.880285,3,0.796835,left,0.53017,0,0,0,0,1,,,,,,,,,,,,,,,,,
,,,,,,,,4,2021-04-13_15h32.22.398,premceCat2_ses-02_part-02_label-phase2,2020.2.10,Win32,60,,,,,,,,,,,,,,,,0,84,84,38,1,stimuli/objects/rollingpin01a.jpg,left,old,182,,,,,,,,
,,,,,,,,4,2021-04-13_15h32.22.398,premceCat2_ses-02_part-02_label-phase2,2020.2.10,Win32,60,,,,,left,1.02443,2,0.486595,left,0.365985,0,0,0,0,1,,,,,,,,,,,,,,,,,
,,,,,,,,4,2021-04-13_15h32.22.398,premceCat2_ses-02_part-02_label-phase2,2020.2.10,Win32,60,,,,,,,,,,,,,,,,0,85,85,47,1,stimuli/objects/plate01b.jpg,right,new,191,,,,,,,,
,,,,,,,,4,2021-04-13_15h32.22.398,premceCat2_ses-02_part-02_label-phase2,2020.2.10,Win32,60,,,,,left,1.3046,3,0.704145,right,0.460925,0,0,0,0,1,,,,,,,,,,,,,,,,,
,,,,,,,,4,2021-04-13_15h32.22.398,premceCat2_ses-02_part-02_label-phase2,2020.2.10,Win32,60,,,,,,,,,,,,,,,,0,86,86,63,1,stimuli/objects/watercooler.jpg,left,old,207,,,,,,,,
,,,,,,,,4,2021-04-13_15h32.22.398,premceCat2_ses-02_part-02_label-phase2,2020.2.10,Win32,60,,,,,left,1.30628,1,0.33924,left,0.34784,0,0,0,0,1,,,,,,,,,,,,,,,,,
,,,,,,,,4,2021-04-13_15h32.22.398,premceCat2_ses-02_part-02_label-phase2,2020.2.10,Win32,60,,,,,,,,,,,,,,,,0,87,87,64,1,stimuli/objects/fishingrod.jpg,left,old,208,,,,,,,,
,,,,,,,,4,2021-04-13_15h32.22.398,premceCat2_ses-02_part-02_label-phase2,2020.2.10,Win32,60,,,,,left,0.96282,3,0.47609,right,0.479675,0,0,0,0,1,,,,,,,,,,,,,,,,,
,,,,,,,,4,2021-04-13_15h32.22.398,premceCat2_ses-02_part-02_label-phase2,2020.2.10,Win32,60,,,,,,,,,,,,,,,,0,88,88,27,1,stimuli/objects/wateringcan.jpg,left,old,171,,,,,,,,
,,,,,,,,4,2021-04-13_15h32.22.398,premceCat2_ses-02_part-02_label-phase2,2020.2.10,Win32,60,,,,,right,1.649585,2,0.385405,,,,,,,,0,89,89,55,1,stimuli/objects/fonduefork01.jpg,right,new,199,,,,,,,,
,,,,,,,,4,2021-04-13_15h32.22.398,premceCat2_ses-02_part-02_label-phase2,2020.2.10,Win32,60,,,,,right,1.381635,2,0.452565,,,,,,,,0,90,90,80,1,stimuli/objects/barbecue03.jpg,right,new,224,,,,,,,,
,,,,,,,,4,2021-04-13_15h32.22.398,premceCat2_ses-02_part-02_label-phase2,2020.2.10,Win32,60,,,,,left,1.037145,2,0.475845,left,0.734,0,0,0,0,1,,,,,,,,,,,,,,,,,
,,,,,,,,4,2021-04-13_15h32.22.398,premceCat2_ses-02_part-02_label-phase2,2020.2.10,Win32,60,,,,,,,,,,,,,,,,0,91,91,57,1,stimuli/objects/soccerball.jpg,left,old,201,,,,,,,,
,,,,,,,,4,2021-04-13_15h32.22.398,premceCat2_ses-02_part-02_label-phase2,2020.2.10,Win32,60,,,,,left,1.14723,3,0.64011,left,0.53031,0,0,0,0,1,,,,,,,,,,,,,,,,,
,,,,,,,,4,2021-04-13_15h32.22.398,premceCat2_ses-02_part-02_label-phase2,2020.2.10,Win32,60,,,,,,,,,,,,,,,,0,92,92,20,1,stimuli/objects/fishinghook03.jpg,left,old,164,,,,,,,,
,,,,,,,,4,2021-04-13_15h32.22.398,premceCat2_ses-02_part-02_label-phase2,2020.2.10,Win32,60,,,,,left,0.94288,3,1.345525,left,0.346595,0,0,0,0,1,,,,,,,,,,,,,,,,,
,,,,,,,,4,2021-04-13_15h32.22.398,premceCat2_ses-02_part-02_label-phase2,2020.2.10,Win32,60,,,,,,,,,,,,,,,,0,93,93,119,1,stimuli/objects/cookiecutter.jpg,left,old,263,,,,,,,,
,,,,,,,,4,2021-04-13_15h32.22.398,premceCat2_ses-02_part-02_label-phase2,2020.2.10,Win32,60,,,,,right,1.148025,2,0.678475,,,,,,,,0,94,94,40,1,stimuli/objects/tablesaw.jpg,right,new,184,,,,,,,,
,,,,,,,,4,2021-04-13_15h32.22.398,premceCat2_ses-02_part-02_label-phase2,2020.2.10,Win32,60,,,,,right,1.192705,2,0.39183,,,,,,,,0,95,95,124,1,stimuli/objects/basketball01.jpg,right,new,268,,,,,,,,
,,,,,,,,4,2021-04-13_15h32.22.398,premceCat2_ses-02_part-02_label-phase2,2020.2.10,Win32,60,,,,,right,0.84702,3,0.677765,,,,,,,,0,96,96,86,1,stimuli/objects/trampoline.jpg,right,new,230,,,,,,,,
,,,,,,,,4,2021-04-13_15h32.22.398,premceCat2_ses-02_part-02_label-phase2,2020.2.10,Win32,60,,,,,left,1.057365,1,1.10632,left,0.466565,0,0,0,0,1,,,,,,,,,,,,,,,,,
,,,,,,,,4,2021-04-13_15h32.22.398,premceCat2_ses-02_part-02_label-phase2,2020.2.10,Win32,60,,,,,,,,,,,,,,,,0,97,97,131,1,stimuli/objects/handblender.jpg,right,new,275,,,,,,,,
,,,,,,,,4,2021-04-13_15h32.22.398,premceCat2_ses-02_part-02_label-phase2,2020.2.10,Win32,60,,,,,right,0.848645,2,0.783235,,,,,,,,0,98,98,49,1,stimuli/objects/cakeplatter.jpg,right,new,193,,,,,,,,
,,,,,,,,4,2021-04-13_15h32.22.398,premceCat2_ses-02_part-02_label-phase2,2020.2.10,Win32,60,,,,,right,0.67575,3,0.674265,,,,,,,,0,99,99,82,1,stimuli/objects/shopvac.jpg,right,new,226,,,,,,,,
,,,,,,,,4,2021-04-13_15h32.22.398,premceCat2_ses-02_part-02_label-phase2,2020.2.10,Win32,60,,,,,right,0.81014,3,0.4339,,,,,,,,0,100,100,12,1,stimuli/objects/fanheater.jpg,right,new,156,,,,,,,,
,,,,,,,,4,2021-04-13_15h32.22.398,premceCat2_ses-02_part-02_label-phase2,2020.2.10,Win32,60,,,,,left,1.558685,2,0.51162,left,0.425,0,0,0,0,1,,,,,,,,,,,,,,,,,
,,,,,,,,4,2021-04-13_15h32.22.398,premceCat2_ses-02_part-02_label-phase2,2020.2.10,Win32,60,,,,,,,,,,,,,,,,0,101,101,97,1,stimuli/objects/shotglass.jpg,left,old,241,,,,,,,,
,,,,,,,,4,2021-04-13_15h32.22.398,premceCat2_ses-02_part-02_label-phase2,2020.2.10,Win32,60,,,,,left,0.986425,3,0.57803,right,0.42716,0,0,0,0,1,,,,,,,,,,,,,,,,,
,,,,,,,,4,2021-04-13_15h32.22.398,premceCat2_ses-02_part-02_label-phase2,2020.2.10,Win32,60,,,,,,,,,,,,,,,,0,102,102,1,1,stimuli/objects/expansioncard.jpg,left,old,145,,,,,,,,
,,,,,,,,4,2021-04-13_15h32.22.398,premceCat2_ses-02_part-02_label-phase2,2020.2.10,Win32,60,,,,,right,1.26047,2,0.87311,,,,,,,,0,103,103,87,1,stimuli/objects/wiicontroller.jpg,right,new,231,,,,,,,,
,,,,,,,,4,2021-04-13_15h32.22.398,premceCat2_ses-02_part-02_label-phase2,2020.2.10,Win32,60,,,,,right,2.599465,2,0.62048,,,,,,,,0,104,104,103,1,stimuli/objects/swissarmyknife01a.jpg,right,new,247,,,,,,,,
,,,,,,,,4,2021-04-13_15h32.22.398,premceCat2_ses-02_part-02_label-phase2,2020.2.10,Win32,60,,,,,left,0.93264,3,0.35112,right,0.393875,0,0,0,0,1,,,,,,,,,,,,,,,,,
,,,,,,,,4,2021-04-13_15h32.22.398,premceCat2_ses-02_part-02_label-phase2,2020.2.10,Win32,60,,,,,,,,,,,,,,,,0,105,105,33,1,stimuli/objects/ethernetcable02.jpg,left,old,177,,,,,,,,
,,,,,,,,4,2021-04-13_15h32.22.398,premceCat2_ses-02_part-02_label-phase2,2020.2.10,Win32,60,,,,,right,1.082835,2,0.49726,,,,,,,,0,106,106,81,1,stimuli/objects/grill.jpg,right,new,225,,,,,,,,
,,,,,,,,4,2021-04-13_15h32.22.398,premceCat2_ses-02_part-02_label-phase2,2020.2.10,Win32,60,,,,,right,0.70549,2,0.627115,,,,,,,,0,107,107,26,1,stimuli/objects/flashlight02b.jpg,right,new,170,,,,,,,,
,,,,,,,,4,2021-04-13_15h32.22.398,premceCat2_ses-02_part-02_label-phase2,2020.2.10,Win32,60,,,,,right,0.862805,3,0.956265,,,,,,,,0,108,108,17,1,stimuli/objects/propanetank01.jpg,left,old,161,,,,,,,,
,,,,,,,,4,2021-04-13_15h32.22.398,premceCat2_ses-02_part-02_label-phase2,2020.2.10,Win32,60,,,,,right,0.89289,3,0.994865,,,,,,,,0,109,109,6,1,stimuli/objects/solderingwire.jpg,right,new,150,,,,,,,,
,,,,,,,,4,2021-04-13_15h32.22.398,premceCat2_ses-02_part-02_label-phase2,2020.2.10,Win32,60,,,,,left,1.62853,2,0.341115,right,0.49463,0,0,0,0,1,,,,,,,,,,,,,,,,,
,,,,,,,,4,2021-04-13_15h32.22.398,premceCat2_ses-02_part-02_label-phase2,2020.2.10,Win32,60,,,,,,,,,,,,,,,,0,110,110,96,1,stimuli/objects/knifesharpener.jpg,left,old,240,,,,,,,,
,,,,,,,,4,2021-04-13_15h32.22.398,premceCat2_ses-02_part-02_label-phase2,2020.2.10,Win32,60,,,,,right,1.177555,1,0.81049,,,,,,,,0,111,111,142,1,stimuli/objects/needlenosepliers01.jpg,right,new,286,,,,,,,,
,,,,,,,,4,2021-04-13_15h32.22.398,premceCat2_ses-02_part-02_label-phase2,2020.2.10,Win32,60,,,,,right,0.9147,2,0.826125,,,,,,,,0,112,112,0,1,stimuli/objects/smokedetector02.jpg,right,new,144,,,,,,,,
,,,,,,,,4,2021-04-13_15h32.22.398,premceCat2_ses-02_part-02_label-phase2,2020.2.10,Win32,60,,,,,left,1.268155,3,0.673905,left,0.38577,0,0,0,0,1,,,,,,,,,,,,,,,,,
,,,,,,,,4,2021-04-13_15h32.22.398,premceCat2_ses-02_part-02_label-phase2,2020.2.10,Win32,60,,,,,,,,,,,,,,,,0,113,113,7,1,stimuli/objects/handmixer01d.jpg,left,old,151,,,,,,,,
,,,,,,,,4,2021-04-13_15h32.22.398,premceCat2_ses-02_part-02_label-phase2,2020.2.10,Win32,60,,,,,left,1.043545,3,0.36414,right,1.830495,0,0,0,0,1,,,,,,,,,,,,,,,,,
,,,,,,,,4,2021-04-13_15h32.22.398,premceCat2_ses-02_part-02_label-phase2,2020.2.10,Win32,60,,,,,,,,,,,,,,,,0,114,114,61,1,stimuli/objects/setsquare.jpg,left,old,205,,,,,,,,
,,,,,,,,4,2021-04-13_15h32.22.398,premceCat2_ses-02_part-02_label-phase2,2020.2.10,Win32,60,,,,,right,0.891555,2,0.30981,,,,,,,,0,115,115,111,1,stimuli/objects/diaperbag.jpg,right,new,255,,,,,,,,
,,,,,,,,4,2021-04-13_15h32.22.398,premceCat2_ses-02_part-02_label-phase2,2020.2.10,Win32,60,,,,,right,0.95221,2,0.629285,,,,,,,,0,116,116,71,1,stimuli/objects/anchor.jpg,left,old,215,,,,,,,,
,,,,,,,,4,2021-04-13_15h32.22.398,premceCat2_ses-02_part-02_label-phase2,2020.2.10,Win32,60,,,,,right,1.304475,2,0.52333,,,,,,,,0,117,117,9,1,stimuli/objects/alarmsystem.jpg,right,new,153,,,,,,,,
,,,,,,,,4,2021-04-13_15h32.22.398,premceCat2_ses-02_part-02_label-phase2,2020.2.10,Win32,60,,,,,left,1.09422,3,0.367265,left,0.811865,0,0,0,0,1,,,,,,,,,,,,,,,,,
,,,,,,,,4,2021-04-13_15h32.22.398,premceCat2_ses-02_part-02_label-phase2,2020.2.10,Win32,60,,,,,,,,,,,,,,,,0,118,118,115,1,stimuli/objects/dishrack.jpg,left,old,259,,,,,,,,
,,,,,,,,4,2021-04-13_15h32.22.398,premceCat2_ses-02_part-02_label-phase2,2020.2.10,Win32,60,,,,,left,1.426,2,0.30902,right,0.91548,0,0,0,0,1,,,,,,,,,,,,,,,,,
,,,,,,,,4,2021-04-13_15h32.22.398,premceCat2_ses-02_part-02_label-phase2,2020.2.10,Win32,60,,,,,,,,,,,,,,,,0,119,119,129,1,stimuli/objects/jigsaw.jpg,left,old,273,,,,,,,,
,,,,,,,,4,2021-04-13_15h32.22.398,premceCat2_ses-02_part-02_label-phase2,2020.2.10,Win32,60,,,,,left,0.923485,3,0.56483,right,0.80324,0,0,0,0,1,,,,,,,,,,,,,,,,,
,,,,,,,,4,2021-04-13_15h32.22.398,premceCat2_ses-02_part-02_label-phase2,2020.2.10,Win32,60,,,,,,,,,,,,,,,,0,120,120,29,1,stimuli/objects/ipod.jpg,left,old,173,,,,,,,,
,,,,,,,,4,2021-04-13_15h32.22.398,premceCat2_ses-02_part-02_label-phase2,2020.2.10,Win32,60,,,,,right,2.298955,2,0.41307,,,,,,,,0,121,121,107,1,stimuli/objects/dolly01.jpg,right,new,251,,,,,,,,
,,,,,,,,4,2021-04-13_15h32.22.398,premceCat2_ses-02_part-02_label-phase2,2020.2.10,Win32,60,,,,,right,2.43936,2,0.51726,,,,,,,,0,122,122,125,1,stimuli/objects/saw02b.jpg,left,old,269,,,,,,,,
,,,,,,,,4,2021-04-13_15h32.22.398,premceCat2_ses-02_part-02_label-phase2,2020.2.10,Win32,60,,,,,left,1.376435,3,0.39634,right,1.33173,0,0,0,0,1,,,,,,,,,,,,,,,,,
,,,,,,,,4,2021-04-13_15h32.22.398,premceCat2_ses-02_part-02_label-phase2,2020.2.10,Win32,60,,,,,,,,,,,,,,,,0,123,123,73,1,stimuli/objects/weight01.jpg,left,old,217,,,,,,,,
,,,,,,,,4,2021-04-13_15h32.22.398,premceCat2_ses-02_part-02_label-phase2,2020.2.10,Win32,60,,,,,left,1.335955,2,0.71653,left,0.928485,0,0,0,0,1,,,,,,,,,,,,,,,,,
,,,,,,,,4,2021-04-13_15h32.22.398,premceCat2_ses-02_part-02_label-phase2,2020.2.10,Win32,60,,,,,,,,,,,,,,,,0,124,124,99,1,stimuli/objects/floodlight.jpg,right,new,243,,,,,,,,
,,,,,,,,4,2021-04-13_15h32.22.398,premceCat2_ses-02_part-02_label-phase2,2020.2.10,Win32,60,,,,,right,0.99216,3,0.765035,,,,,,,,0,125,125,2,1,stimuli/objects/wetfloorsign.jpg,right,new,146,,,,,,,,
,,,,,,,,4,2021-04-13_15h32.22.398,premceCat2_ses-02_part-02_label-phase2,2020.2.10,Win32,60,,,,,right,0.926925,3,0.38355,,,,,,,,0,126,126,51,1,stimuli/objects/cheeseknife01.jpg,right,new,195,,,,,,,,
,,,,,,,,4,2021-04-13_15h32.22.398,premceCat2_ses-02_part-02_label-phase2,2020.2.10,Win32,60,,,,,right,0.94149,2,0.818065,,,,,,,,0,127,127,137,1,stimuli/objects/nutcracker01.jpg,right,new,281,,,,,,,,
,,,,,,,,4,2021-04-13_15h32.22.398,premceCat2_ses-02_part-02_label-phase2,2020.2.10,Win32,60,,,,,right,1.041915,3,0.52854,,,,,,,,0,128,128,136,1,stimuli/objects/exercisebike.jpg,left,old,280,,,,,,,,
,,,,,,,,4,2021-04-13_15h32.22.398,premceCat2_ses-02_part-02_label-phase2,2020.2.10,Win32,60,,,,,left,1.83746,2,0.286035,right,0.58666,0,0,0,0,1,,,,,,,,,,,,,,,,,
,,,,,,,,4,2021-04-13_15h32.22.398,premceCat2_ses-02_part-02_label-phase2,2020.2.10,Win32,60,,,,,,,,,,,,,,,,0,129,129,130,1,stimuli/objects/scanner.jpg,left,old,274,,,,,,,,
,,,,,,,,4,2021-04-13_15h32.22.398,premceCat2_ses-02_part-02_label-phase2,2020.2.10,Win32,60,,,,,right,0.74257,2,0.554,,,,,,,,0,130,130,66,1,stimuli/objects/heatpump.jpg,right,new,210,,,,,,,,
,,,,,,,,4,2021-04-13_15h32.22.398,premceCat2_ses-02_part-02_label-phase2,2020.2.10,Win32,60,,,,,right,0.692615,2,0.514845,,,,,,,,0,131,131,37,1,stimuli/objects/papershredder.jpg,left,old,181,,,,,,,,
,,,,,,,,4,2021-04-13_15h32.22.398,premceCat2_ses-02_part-02_label-phase2,2020.2.10,Win32,60,,,,,left,0.901445,4,0.482185,left,0.57366,0,0,0,0,1,,,,,,,,,,,,,,,,,
,,,,,,,,4,2021-04-13_15h32.22.398,premceCat2_ses-02_part-02_label-phase2,2020.2.10,Win32,60,,,,,,,,,,,,,,,,0,132,132,74,1,stimuli/objects/poolnet.jpg,left,old,218,,,,,,,,
,,,,,,,,4,2021-04-13_15h32.22.398,premceCat2_ses-02_part-02_label-phase2,2020.2.10,Win32,60,,,,,right,1.161085,3,0.378045,,,,,,,,0,133,133,44,1,stimuli/objects/toaster01.jpg,right,new,188,,,,,,,,
,,,,,,,,4,2021-04-13_15h32.22.398,premceCat2_ses-02_part-02_label-phase2,2020.2.10,Win32,60,,,,,right,1.031735,2,0.44608,,,,,,,,0,134,134,114,1,stimuli/objects/drinkshaker.jpg,right,new,258,,,,,,,,
,,,,,,,,4,2021-04-13_15h32.22.398,premceCat2_ses-02_part-02_label-phase2,2020.2.10,Win32,60,,,,,right,0.8649,3,0.42421,,,,,,,,0,135,135,25,1,stimuli/objects/gravyboat.jpg,left,old,169,,,,,,,,
,,,,,,,,4,2021-04-13_15h32.22.398,premceCat2_ses-02_part-02_label-phase2,2020.2.10,Win32,60,,,,,right,1.162965,3,0.530025,,,,,,,,0,136,136,132,1,stimuli/objects/wirestripper.jpg,right,new,276,,,,,,,,
,,,,,,,,4,2021-04-13_15h32.22.398,premceCat2_ses-02_part-02_label-phase2,2020.2.10,Win32,60,,,,,left,1.153655,1,0.46158,right,0.420805,0,0,0,0,1,,,,,,,,,,,,,,,,,
,,,,,,,,4,2021-04-13_15h32.22.398,premceCat2_ses-02_part-02_label-phase2,2020.2.10,Win32,60,,,,,,,,,,,,,,,,0,137,137,8,1,stimuli/objects/sledgehammer.jpg,left,old,152,,,,,,,,
,,,,,,,,4,2021-04-13_15h32.22.398,premceCat2_ses-02_part-02_label-phase2,2020.2.10,Win32,60,,,,,left,1.8038,4,1.58557,right,0.376955,0,0,0,0,1,,,,,,,,,,,,,,,,,
,,,,,,,,4,2021-04-13_15h32.22.398,premceCat2_ses-02_part-02_label-phase2,2020.2.10,Win32,60,,,,,,,,,,,,,,,,0,138,138,104,1,stimuli/objects/lectern01.jpg,left,old,248,,,,,,,,
,,,,,,,,4,2021-04-13_15h32.22.398,premceCat2_ses-02_part-02_label-phase2,2020.2.10,Win32,60,,,,,left,1.180315,2,0.76631,left,0.346745,0,0,0,0,1,,,,,,,,,,,,,,,,,
,,,,,,,,4,2021-04-13_15h32.22.398,premceCat2_ses-02_part-02_label-phase2,2020.2.10,Win32,60,,,,,,,,,,,,,,,,0,139,139,122,1,stimuli/objects/hockeystick.jpg,right,new,266,,,,,,,,
,,,,,,,,4,2021-04-13_15h32.22.398,premceCat2_ses-02_part-02_label-phase2,2020.2.10,Win32,60,,,,,left,1.563335,3,0.90832,left,2.0651,0,0,0,0,1,,,,,,,,,,,,,,,,,
,,,,,,,,4,2021-04-13_15h32.22.398,premceCat2_ses-02_part-02_label-phase2,2020.2.10,Win32,60,,,,,,,,,,,,,,,,0,140,140,108,1,stimuli/objects/slidetray.jpg,left,old,252,,,,,,,,
,,,,,,,,4,2021-04-13_15h32.22.398,premceCat2_ses-02_part-02_label-phase2,2020.2.10,Win32,60,,,,,left,1.109605,4,0.50866,left,0.382035,0,0,0,0,1,,,,,,,,,,,,,,,,,
,,,,,,,,4,2021-04-13_15h32.22.398,premceCat2_ses-02_part-02_label-phase2,2020.2.10,Win32,60,,,,,,,,,,,,,,,,0,141,141,117,1,stimuli/objects/iceskate.jpg,left,old,261,,,,,,,,
,,,,,,,,4,2021-04-13_15h32.22.398,premceCat2_ses-02_part-02_label-phase2,2020.2.10,Win32,60,,,,,right,0.964765,2,0.73825,,,,,,,,0,142,142,15,1,stimuli/objects/computermouse06.jpg,right,new,159,,,,,,,,
,,,,,,,,4,2021-04-13_15h32.22.398,premceCat2_ses-02_part-02_label-phase2,2020.2.10,Win32,60,,,,,,,,,,,,,,,,,,,,,,,,,space,2.13472,0,1,1,1,1,condition_files/ImagesforRecog1_2.csv
