instructions_loop.thisRepN,instructions_loop.thisTrialN,instructions_loop.thisN,instructions_loop.thisIndex,instructions_loop.ran,text1,text2,text3,participant,date,expName,psychopyVersion,OS,frameRate,key_resp_2.keys,key_resp_2.rt,key_resp_3.keys,key_resp_3.rt,recog_resp.keys,recog_resp.rt,conf_resp.keys,conf_resp.rt,recog_loop.thisRepN,recog_loop.thisTrialN,recog_loop.thisN,recog_loop.thisIndex,recog_loop.ran,images,corr_ans,type,order,resp_assoc.keys,resp_assoc.rt,assoc_loop.thisRepN,assoc_loop.thisTrialN,assoc_loop.thisN,assoc_loop.thisIndex,assoc_loop.ran,key_resp_break.keys,key_resp_break.rt,list_loop.thisRepN,list_loop.thisTrialN,list_loop.thisN,list_loop.thisIndex,list_loop.ran,recog_list
0,0,0,0,1,Welcome to the last phase of this experiment!,.,Please press the space bar to continue,5,2021-04-13_17h36.00.604,premceCat2_ses-02_part-02_label-phase2,2020.2.10,Win32,60,,,,,,,,,,,,,,,,,,,,,,,,,,,,,,,,
0,1,1,1,1,.,"In this phase, you will see some objects. 

For each object, you should indicate whether you have seen it before during the experiment.

Press LEFT ARROW for YES
Press RIGHT ARROW for NO

",Please press the space bar to continue ,5,2021-04-13_17h36.00.604,premceCat2_ses-02_part-02_label-phase2,2020.2.10,Win32,60,,,,,,,,,,,,,,,,,,,,,,,,,,,,,,,,
0,2,2,2,1,.,"After that, you will be asked how confident you are of your choice.

Please rate the confidence in your choice with the numbers from 1 to 4 of your keyboard. 

The numbers correspond to:

1 = Very unsure
2 = Unsure
3 = Sure
4 = Very Sure",Please press the space bar to continue,5,2021-04-13_17h36.00.604,premceCat2_ses-02_part-02_label-phase2,2020.2.10,Win32,60,,,,,,,,,,,,,,,,,,,,,,,,,,,,,,,,
,,,,,,,,5,2021-04-13_17h36.00.604,premceCat2_ses-02_part-02_label-phase2,2020.2.10,Win32,60,space,10.859375,space,8.963475,right,9.133785,2,5.353,0,0,0,92,1,stimuli/objects/carjack.jpg,right,new,93,,,,,,,,,,,,,,,
,,,,,,,,5,2021-04-13_17h36.00.604,premceCat2_ses-02_part-02_label-phase2,2020.2.10,Win32,60,,,,,left,4.95104,4,1.59771,,,,,,,,,,left,12.063215,0,0,0,0,1,,,,,,,,
,,,,,,,,5,2021-04-13_17h36.00.604,premceCat2_ses-02_part-02_label-phase2,2020.2.10,Win32,60,,,,,,,,,0,1,1,129,1,stimuli/objects/peeler01.jpg,left,old,130,,,,,,,,,,,,,,,
,,,,,,,,5,2021-04-13_17h36.00.604,premceCat2_ses-02_part-02_label-phase2,2020.2.10,Win32,60,,,,,left,6.136155,4,8.3961,,,,,,,,,,left,2.25191,0,0,0,0,1,,,,,,,,
,,,,,,,,5,2021-04-13_17h36.00.604,premceCat2_ses-02_part-02_label-phase2,2020.2.10,Win32,60,,,,,,,,,0,2,2,124,1,stimuli/objects/fishinghook03.jpg,left,old,125,,,,,,,,,,,,,,,
,,,,,,,,5,2021-04-13_17h36.00.604,premceCat2_ses-02_part-02_label-phase2,2020.2.10,Win32,60,,,,,right,6.789085,3,4.9101,0,3,3,139,1,stimuli/objects/frisbee.jpg,right,new,140,,,,,,,,,,,,,,,
,,,,,,,,5,2021-04-13_17h36.00.604,premceCat2_ses-02_part-02_label-phase2,2020.2.10,Win32,60,,,,,left,9.753625,2,1.995055,,,,,,,,,,right,2.448485,0,0,0,0,1,,,,,,,,
,,,,,,,,5,2021-04-13_17h36.00.604,premceCat2_ses-02_part-02_label-phase2,2020.2.10,Win32,60,,,,,,,,,0,4,4,141,1,stimuli/objects/generator.jpg,right,new,142,,,,,,,,,,,,,,,
,,,,,,,,5,2021-04-13_17h36.00.604,premceCat2_ses-02_part-02_label-phase2,2020.2.10,Win32,60,,,,,right,4.813365,3,3.581685,0,5,5,41,1,stimuli/objects/pylon01.jpg,right,new,42,,,,,,,,,,,,,,,
,,,,,,,,5,2021-04-13_17h36.00.604,premceCat2_ses-02_part-02_label-phase2,2020.2.10,Win32,60,,,,,right,15.30064,2,0.944685,0,6,6,21,1,stimuli/objects/paintbrush01.jpg,right,new,22,,,,,,,,,,,,,,,
,,,,,,,,5,2021-04-13_17h36.00.604,premceCat2_ses-02_part-02_label-phase2,2020.2.10,Win32,60,,,,,left,2.443865,4,2.304085,,,,,,,,,,right,4.17084,0,0,0,0,1,,,,,,,,
,,,,,,,,5,2021-04-13_17h36.00.604,premceCat2_ses-02_part-02_label-phase2,2020.2.10,Win32,60,,,,,,,,,0,7,7,115,1,stimuli/objects/saw02b.jpg,left,old,116,,,,,,,,,,,,,,,
,,,,,,,,5,2021-04-13_17h36.00.604,premceCat2_ses-02_part-02_label-phase2,2020.2.10,Win32,60,,,,,left,2.20078,4,2.627085,,,,,,,,,,left,2.26065,0,0,0,0,1,,,,,,,,
,,,,,,,,5,2021-04-13_17h36.00.604,premceCat2_ses-02_part-02_label-phase2,2020.2.10,Win32,60,,,,,,,,,0,8,8,52,1,stimuli/objects/handmixer01d.jpg,left,old,53,,,,,,,,,,,,,,,
,,,,,,,,5,2021-04-13_17h36.00.604,premceCat2_ses-02_part-02_label-phase2,2020.2.10,Win32,60,,,,,left,6.571825,2,0.80118,,,,,,,,,,right,4.445155,0,0,0,0,1,,,,,,,,
,,,,,,,,5,2021-04-13_17h36.00.604,premceCat2_ses-02_part-02_label-phase2,2020.2.10,Win32,60,,,,,,,,,0,9,9,11,1,stimuli/objects/videocamera01a.jpg,left,old,12,,,,,,,,,,,,,,,
,,,,,,,,5,2021-04-13_17h36.00.604,premceCat2_ses-02_part-02_label-phase2,2020.2.10,Win32,60,,,,,left,1.59711,4,1.13999,,,,,,,,,,left,3.23666,0,0,0,0,1,,,,,,,,
,,,,,,,,5,2021-04-13_17h36.00.604,premceCat2_ses-02_part-02_label-phase2,2020.2.10,Win32,60,,,,,,,,,0,10,10,103,1,stimuli/objects/cork02.jpg,left,old,104,,,,,,,,,,,,,,,
,,,,,,,,5,2021-04-13_17h36.00.604,premceCat2_ses-02_part-02_label-phase2,2020.2.10,Win32,60,,,,,left,4.12956,3,0.927305,,,,,,,,,,right,1.84159,0,0,0,0,1,,,,,,,,
,,,,,,,,5,2021-04-13_17h36.00.604,premceCat2_ses-02_part-02_label-phase2,2020.2.10,Win32,60,,,,,,,,,0,11,11,2,1,stimuli/objects/ipod.jpg,left,old,3,,,,,,,,,,,,,,,
,,,,,,,,5,2021-04-13_17h36.00.604,premceCat2_ses-02_part-02_label-phase2,2020.2.10,Win32,60,,,,,left,2.601905,4,1.0377,,,,,,,,,,right,1.132635,0,0,0,0,1,,,,,,,,
,,,,,,,,5,2021-04-13_17h36.00.604,premceCat2_ses-02_part-02_label-phase2,2020.2.10,Win32,60,,,,,,,,,0,12,12,79,1,stimuli/objects/fluorescentlightbulb.jpg,left,old,80,,,,,,,,,,,,,,,
,,,,,,,,5,2021-04-13_17h36.00.604,premceCat2_ses-02_part-02_label-phase2,2020.2.10,Win32,60,,,,,left,5.156485,3,0.884205,,,,,,,,,,left,2.862915,0,0,0,0,1,,,,,,,,
,,,,,,,,5,2021-04-13_17h36.00.604,premceCat2_ses-02_part-02_label-phase2,2020.2.10,Win32,60,,,,,,,,,0,13,13,39,1,stimuli/objects/sippycup.jpg,right,new,40,,,,,,,,,,,,,,,
,,,,,,,,5,2021-04-13_17h36.00.604,premceCat2_ses-02_part-02_label-phase2,2020.2.10,Win32,60,,,,,right,10.79585,2,1.761705,0,14,14,42,1,stimuli/objects/snowshoe.jpg,right,new,43,,,,,,,,,,,,,,,
,,,,,,,,5,2021-04-13_17h36.00.604,premceCat2_ses-02_part-02_label-phase2,2020.2.10,Win32,60,,,,,left,1.614895,4,2.90734,,,,,,,,,,right,3.13346,0,0,0,0,1,,,,,,,,
,,,,,,,,5,2021-04-13_17h36.00.604,premceCat2_ses-02_part-02_label-phase2,2020.2.10,Win32,60,,,,,,,,,0,15,15,91,1,stimuli/objects/metalbrush.jpg,left,old,92,,,,,,,,,,,,,,,
,,,,,,,,5,2021-04-13_17h36.00.604,premceCat2_ses-02_part-02_label-phase2,2020.2.10,Win32,60,,,,,left,3.820645,4,1.332765,,,,,,,,,,right,1.24659,0,0,0,0,1,,,,,,,,
,,,,,,,,5,2021-04-13_17h36.00.604,premceCat2_ses-02_part-02_label-phase2,2020.2.10,Win32,60,,,,,,,,,0,16,16,36,1,stimuli/objects/slidetray.jpg,left,old,37,,,,,,,,,,,,,,,
,,,,,,,,5,2021-04-13_17h36.00.604,premceCat2_ses-02_part-02_label-phase2,2020.2.10,Win32,60,,,,,right,5.862225,3,0.806165,0,17,17,131,1,stimuli/objects/spotlight.jpg,right,new,132,,,,,,,,,,,,,,,
,,,,,,,,5,2021-04-13_17h36.00.604,premceCat2_ses-02_part-02_label-phase2,2020.2.10,Win32,60,,,,,left,2.95837,4,0.814565,,,,,,,,,,left,2.682445,0,0,0,0,1,,,,,,,,
,,,,,,,,5,2021-04-13_17h36.00.604,premceCat2_ses-02_part-02_label-phase2,2020.2.10,Win32,60,,,,,,,,,0,18,18,48,1,stimuli/objects/bottlecap.jpg,left,old,49,,,,,,,,,,,,,,,
,,,,,,,,5,2021-04-13_17h36.00.604,premceCat2_ses-02_part-02_label-phase2,2020.2.10,Win32,60,,,,,right,9.707245,3,1.168455,0,19,19,127,1,stimuli/objects/reflector.jpg,left,old,128,,,,,,,,,,,,,,,
,,,,,,,,5,2021-04-13_17h36.00.604,premceCat2_ses-02_part-02_label-phase2,2020.2.10,Win32,60,,,,,right,4.2773,3,2.69621,0,20,20,53,1,stimuli/objects/binoculars01b.jpg,right,new,54,,,,,,,,,,,,,,,
,,,,,,,,5,2021-04-13_17h36.00.604,premceCat2_ses-02_part-02_label-phase2,2020.2.10,Win32,60,,,,,left,1.127265,4,0.86476,,,,,,,,,,right,2.180855,0,0,0,0,1,,,,,,,,
,,,,,,,,5,2021-04-13_17h36.00.604,premceCat2_ses-02_part-02_label-phase2,2020.2.10,Win32,60,,,,,,,,,0,21,21,14,1,stimuli/objects/puttyknife.jpg,left,old,15,,,,,,,,,,,,,,,
,,,,,,,,5,2021-04-13_17h36.00.604,premceCat2_ses-02_part-02_label-phase2,2020.2.10,Win32,60,,,,,left,2.74451,4,0.9118,,,,,,,,,,right,1.314055,0,0,0,0,1,,,,,,,,
,,,,,,,,5,2021-04-13_17h36.00.604,premceCat2_ses-02_part-02_label-phase2,2020.2.10,Win32,60,,,,,,,,,0,22,22,16,1,stimuli/objects/knifesharpener.jpg,left,old,17,,,,,,,,,,,,,,,
,,,,,,,,5,2021-04-13_17h36.00.604,premceCat2_ses-02_part-02_label-phase2,2020.2.10,Win32,60,,,,,right,4.525405,3,6.707535,0,23,23,46,1,stimuli/objects/walkman.jpg,right,new,47,,,,,,,,,,,,,,,
,,,,,,,,5,2021-04-13_17h36.00.604,premceCat2_ses-02_part-02_label-phase2,2020.2.10,Win32,60,,,,,left,1.840435,4,1.20908,,,,,,,,,,right,4.01575,0,0,0,0,1,,,,,,,,
,,,,,,,,5,2021-04-13_17h36.00.604,premceCat2_ses-02_part-02_label-phase2,2020.2.10,Win32,60,,,,,,,,,0,24,24,104,1,stimuli/objects/lectern01.jpg,left,old,105,,,,,,,,,,,,,,,
,,,,,,,,5,2021-04-13_17h36.00.604,premceCat2_ses-02_part-02_label-phase2,2020.2.10,Win32,60,,,,,left,2.307055,4,3.425555,,,,,,,,,,left,2.09093,0,0,0,0,1,,,,,,,,
,,,,,,,,5,2021-04-13_17h36.00.604,premceCat2_ses-02_part-02_label-phase2,2020.2.10,Win32,60,,,,,,,,,0,25,25,28,1,stimuli/objects/poolnet.jpg,left,old,29,,,,,,,,,,,,,,,
,,,,,,,,5,2021-04-13_17h36.00.604,premceCat2_ses-02_part-02_label-phase2,2020.2.10,Win32,60,,,,,right,9.264765,2,1.099185,0,26,26,60,1,stimuli/objects/glass02a.jpg,right,new,61,,,,,,,,,,,,,,,
,,,,,,,,5,2021-04-13_17h36.00.604,premceCat2_ses-02_part-02_label-phase2,2020.2.10,Win32,60,,,,,right,4.007145,3,8.62819,0,27,27,75,1,stimuli/objects/stepladder.jpg,right,new,76,,,,,,,,,,,,,,,
,,,,,,,,5,2021-04-13_17h36.00.604,premceCat2_ses-02_part-02_label-phase2,2020.2.10,Win32,60,,,,,right,7.48429,2,3.396505,0,28,28,85,1,stimuli/objects/golfball.jpg,right,new,86,,,,,,,,,,,,,,,
,,,,,,,,5,2021-04-13_17h36.00.604,premceCat2_ses-02_part-02_label-phase2,2020.2.10,Win32,60,,,,,right,8.504705,3,1.448385,0,29,29,121,1,stimuli/objects/ceilingspeaker.jpg,right,new,122,,,,,,,,,,,,,,,
,,,,,,,,5,2021-04-13_17h36.00.604,premceCat2_ses-02_part-02_label-phase2,2020.2.10,Win32,60,,,,,left,4.443315,2,7.51404,,,,,,,,,,right,3.33443,0,0,0,0,1,,,,,,,,
,,,,,,,,5,2021-04-13_17h36.00.604,premceCat2_ses-02_part-02_label-phase2,2020.2.10,Win32,60,,,,,,,,,0,30,30,66,1,stimuli/objects/nailgun.jpg,right,new,67,,,,,,,,,,,,,,,
,,,,,,,,5,2021-04-13_17h36.00.604,premceCat2_ses-02_part-02_label-phase2,2020.2.10,Win32,60,,,,,right,4.628255,3,1.56926,0,31,31,73,1,stimuli/objects/clock01a.jpg,right,new,74,,,,,,,,,,,,,,,
,,,,,,,,5,2021-04-13_17h36.00.604,premceCat2_ses-02_part-02_label-phase2,2020.2.10,Win32,60,,,,,left,1.986345,4,0.87942,,,,,,,,,,left,1.048925,0,0,0,0,1,,,,,,,,
,,,,,,,,5,2021-04-13_17h36.00.604,premceCat2_ses-02_part-02_label-phase2,2020.2.10,Win32,60,,,,,,,,,0,32,32,27,1,stimuli/objects/anchor.jpg,left,old,28,,,,,,,,,,,,,,,
,,,,,,,,5,2021-04-13_17h36.00.604,premceCat2_ses-02_part-02_label-phase2,2020.2.10,Win32,60,,,,,left,4.896395,3,0.83728,,,,,,,,,,left,1.49571,0,0,0,0,1,,,,,,,,
,,,,,,,,5,2021-04-13_17h36.00.604,premceCat2_ses-02_part-02_label-phase2,2020.2.10,Win32,60,,,,,,,,,0,33,33,125,1,stimuli/objects/shoulderpad.jpg,right,new,126,,,,,,,,,,,,,,,
,,,,,,,,5,2021-04-13_17h36.00.604,premceCat2_ses-02_part-02_label-phase2,2020.2.10,Win32,60,,,,,left,13.91398,4,1.49267,,,,,,,,,,right,0.814435,0,0,0,0,1,,,,,,,,
,,,,,,,,5,2021-04-13_17h36.00.604,premceCat2_ses-02_part-02_label-phase2,2020.2.10,Win32,60,,,,,,,,,0,34,34,58,1,stimuli/objects/weedwacker.jpg,left,old,59,,,,,,,,,,,,,,,
,,,,,,,,5,2021-04-13_17h36.00.604,premceCat2_ses-02_part-02_label-phase2,2020.2.10,Win32,60,,,,,left,2.043545,4,0.928825,,,,,,,,,,right,1.385545,0,0,0,0,1,,,,,,,,
,,,,,,,,5,2021-04-13_17h36.00.604,premceCat2_ses-02_part-02_label-phase2,2020.2.10,Win32,60,,,,,,,,,0,35,35,77,1,stimuli/objects/satellitedish01.jpg,left,old,78,,,,,,,,,,,,,,,
,,,,,,,,5,2021-04-13_17h36.00.604,premceCat2_ses-02_part-02_label-phase2,2020.2.10,Win32,60,,,,,left,2.613295,3,1.197525,,,,,,,,,,right,0.59664,0,0,0,0,1,,,,,,,,
,,,,,,,,5,2021-04-13_17h36.00.604,premceCat2_ses-02_part-02_label-phase2,2020.2.10,Win32,60,,,,,,,,,0,36,36,100,1,stimuli/objects/remotecontrol04.jpg,right,new,101,,,,,,,,,,,,,,,
,,,,,,,,5,2021-04-13_17h36.00.604,premceCat2_ses-02_part-02_label-phase2,2020.2.10,Win32,60,,,,,left,6.42805,3,0.721935,,,,,,,,,,right,0.4284,0,0,0,0,1,,,,,,,,
,,,,,,,,5,2021-04-13_17h36.00.604,premceCat2_ses-02_part-02_label-phase2,2020.2.10,Win32,60,,,,,,,,,0,37,37,35,1,stimuli/objects/alarmclock01.jpg,left,old,36,,,,,,,,,,,,,,,
,,,,,,,,5,2021-04-13_17h36.00.604,premceCat2_ses-02_part-02_label-phase2,2020.2.10,Win32,60,,,,,left,1.26401,4,0.91646,,,,,,,,,,left,0.40522,0,0,0,0,1,,,,,,,,
,,,,,,,,5,2021-04-13_17h36.00.604,premceCat2_ses-02_part-02_label-phase2,2020.2.10,Win32,60,,,,,,,,,0,38,38,114,1,stimuli/objects/tray.jpg,left,old,115,,,,,,,,,,,,,,,
,,,,,,,,5,2021-04-13_17h36.00.604,premceCat2_ses-02_part-02_label-phase2,2020.2.10,Win32,60,,,,,left,2.928545,4,0.73019,,,,,,,,,,left,0.51634,0,0,0,0,1,,,,,,,,
,,,,,,,,5,2021-04-13_17h36.00.604,premceCat2_ses-02_part-02_label-phase2,2020.2.10,Win32,60,,,,,,,,,0,39,39,78,1,stimuli/objects/butterknife.jpg,left,old,79,,,,,,,,,,,,,,,
,,,,,,,,5,2021-04-13_17h36.00.604,premceCat2_ses-02_part-02_label-phase2,2020.2.10,Win32,60,,,,,left,1.29506,4,0.77838,,,,,,,,,,right,0.39453,0,0,0,0,1,,,,,,,,
,,,,,,,,5,2021-04-13_17h36.00.604,premceCat2_ses-02_part-02_label-phase2,2020.2.10,Win32,60,,,,,,,,,0,40,40,105,1,stimuli/objects/lightbulb01.jpg,left,old,106,,,,,,,,,,,,,,,
,,,,,,,,5,2021-04-13_17h36.00.604,premceCat2_ses-02_part-02_label-phase2,2020.2.10,Win32,60,,,,,left,0.864465,4,1.318205,,,,,,,,,,right,2.34778,0,0,0,0,1,,,,,,,,
,,,,,,,,5,2021-04-13_17h36.00.604,premceCat2_ses-02_part-02_label-phase2,2020.2.10,Win32,60,,,,,,,,,0,41,41,101,1,stimuli/objects/vhstape.jpg,left,old,102,,,,,,,,,,,,,,,
,,,,,,,,5,2021-04-13_17h36.00.604,premceCat2_ses-02_part-02_label-phase2,2020.2.10,Win32,60,,,,,left,13.264295,2,0.69739,,,,,,,,,,left,1.06917,0,0,0,0,1,,,,,,,,
,,,,,,,,5,2021-04-13_17h36.00.604,premceCat2_ses-02_part-02_label-phase2,2020.2.10,Win32,60,,,,,,,,,0,42,42,83,1,stimuli/objects/kitchenscale01a.jpg,right,new,84,,,,,,,,,,,,,,,
,,,,,,,,5,2021-04-13_17h36.00.604,premceCat2_ses-02_part-02_label-phase2,2020.2.10,Win32,60,,,,,left,1.46428,4,0.90097,,,,,,,,,,right,1.337715,0,0,0,0,1,,,,,,,,
,,,,,,,,5,2021-04-13_17h36.00.604,premceCat2_ses-02_part-02_label-phase2,2020.2.10,Win32,60,,,,,,,,,0,43,43,29,1,stimuli/objects/outletadapter.jpg,left,old,30,,,,,,,,,,,,,,,
,,,,,,,,5,2021-04-13_17h36.00.604,premceCat2_ses-02_part-02_label-phase2,2020.2.10,Win32,60,,,,,right,2.191375,3,6.57298,0,44,44,112,1,stimuli/objects/gymnasticring.jpg,right,new,113,,,,,,,,,,,,,,,
,,,,,,,,5,2021-04-13_17h36.00.604,premceCat2_ses-02_part-02_label-phase2,2020.2.10,Win32,60,,,,,left,1.16337,4,0.940915,,,,,,,,,,right,2.540015,0,0,0,0,1,,,,,,,,
,,,,,,,,5,2021-04-13_17h36.00.604,premceCat2_ses-02_part-02_label-phase2,2020.2.10,Win32,60,,,,,,,,,0,45,45,65,1,stimuli/objects/drill01b.jpg,left,old,66,,,,,,,,,,,,,,,
,,,,,,,,5,2021-04-13_17h36.00.604,premceCat2_ses-02_part-02_label-phase2,2020.2.10,Win32,60,,,,,right,1.365815,4,0.917505,0,46,46,80,1,stimuli/objects/snowman.jpg,right,new,81,,,,,,,,,,,,,,,
,,,,,,,,5,2021-04-13_17h36.00.604,premceCat2_ses-02_part-02_label-phase2,2020.2.10,Win32,60,,,,,right,2.55674,3,1.08594,0,47,47,109,1,stimuli/objects/winerack.jpg,right,new,110,,,,,,,,,,,,,,,
,,,,,,,,5,2021-04-13_17h36.00.604,premceCat2_ses-02_part-02_label-phase2,2020.2.10,Win32,60,,,,,left,3.06268,2,1.936065,,,,,,,,,,left,1.270285,0,0,0,0,1,,,,,,,,
,,,,,,,,5,2021-04-13_17h36.00.604,premceCat2_ses-02_part-02_label-phase2,2020.2.10,Win32,60,,,,,,,,,0,48,48,119,1,stimuli/objects/tongs01b.jpg,right,new,120,,,,,,,,,,,,,,,
,,,,,,,,5,2021-04-13_17h36.00.604,premceCat2_ses-02_part-02_label-phase2,2020.2.10,Win32,60,,,,,left,1.0637,4,1.01616,,,,,,,,,,right,2.61737,0,0,0,0,1,,,,,,,,
,,,,,,,,5,2021-04-13_17h36.00.604,premceCat2_ses-02_part-02_label-phase2,2020.2.10,Win32,60,,,,,,,,,0,49,49,64,1,stimuli/objects/drillbit03a.jpg,left,old,65,,,,,,,,,,,,,,,
,,,,,,,,5,2021-04-13_17h36.00.604,premceCat2_ses-02_part-02_label-phase2,2020.2.10,Win32,60,,,,,left,1.288215,4,4.282335,,,,,,,,,,right,0.47116,0,0,0,0,1,,,,,,,,
,,,,,,,,5,2021-04-13_17h36.00.604,premceCat2_ses-02_part-02_label-phase2,2020.2.10,Win32,60,,,,,,,,,0,50,50,87,1,stimuli/objects/fanblades.jpg,left,old,88,,,,,,,,,,,,,,,
,,,,,,,,5,2021-04-13_17h36.00.604,premceCat2_ses-02_part-02_label-phase2,2020.2.10,Win32,60,,,,,left,4.21596,2,2.825615,,,,,,,,,,left,1.061965,0,0,0,0,1,,,,,,,,
,,,,,,,,5,2021-04-13_17h36.00.604,premceCat2_ses-02_part-02_label-phase2,2020.2.10,Win32,60,,,,,,,,,0,51,51,23,1,stimuli/objects/football.jpg,right,new,24,,,,,,,,,,,,,,,
,,,,,,,,5,2021-04-13_17h36.00.604,premceCat2_ses-02_part-02_label-phase2,2020.2.10,Win32,60,,,,,left,1.28349,4,0.997775,,,,,,,,,,right,4.69927,0,0,0,0,1,,,,,,,,
,,,,,,,,5,2021-04-13_17h36.00.604,premceCat2_ses-02_part-02_label-phase2,2020.2.10,Win32,60,,,,,,,,,0,52,52,89,1,stimuli/objects/ducttape.jpg,right,new,90,,,,,,,,,,,,,,,
,,,,,,,,5,2021-04-13_17h36.00.604,premceCat2_ses-02_part-02_label-phase2,2020.2.10,Win32,60,,,,,left,1.7142,4,0.972935,,,,,,,,,,left,0.47702,0,0,0,0,1,,,,,,,,
,,,,,,,,5,2021-04-13_17h36.00.604,premceCat2_ses-02_part-02_label-phase2,2020.2.10,Win32,60,,,,,,,,,0,53,53,6,1,stimuli/objects/pitcher02b.jpg,left,old,7,,,,,,,,,,,,,,,
,,,,,,,,5,2021-04-13_17h36.00.604,premceCat2_ses-02_part-02_label-phase2,2020.2.10,Win32,60,,,,,right,2.077555,3,6.253215,0,54,54,133,1,stimuli/objects/icebucket.jpg,right,new,134,,,,,,,,,,,,,,,
,,,,,,,,5,2021-04-13_17h36.00.604,premceCat2_ses-02_part-02_label-phase2,2020.2.10,Win32,60,,,,,right,1.23238,3,0.812285,0,55,55,116,1,stimuli/objects/radio01.jpg,right,new,117,,,,,,,,,,,,,,,
,,,,,,,,5,2021-04-13_17h36.00.604,premceCat2_ses-02_part-02_label-phase2,2020.2.10,Win32,60,,,,,right,4.028305,2,3.598025,0,56,56,72,1,stimuli/objects/cclamp.jpg,right,new,73,,,,,,,,,,,,,,,
,,,,,,,,5,2021-04-13_17h36.00.604,premceCat2_ses-02_part-02_label-phase2,2020.2.10,Win32,60,,,,,right,2.98349,2,0.63155,0,57,57,18,1,stimuli/objects/cashregister01.jpg,right,new,19,,,,,,,,,,,,,,,
,,,,,,,,5,2021-04-13_17h36.00.604,premceCat2_ses-02_part-02_label-phase2,2020.2.10,Win32,60,,,,,left,2.401515,3,0.7568,,,,,,,,,,left,0.42158,0,0,0,0,1,,,,,,,,
,,,,,,,,5,2021-04-13_17h36.00.604,premceCat2_ses-02_part-02_label-phase2,2020.2.10,Win32,60,,,,,,,,,0,58,58,140,1,stimuli/objects/canoepaddle02.jpg,left,old,141,,,,,,,,,,,,,,,
,,,,,,,,5,2021-04-13_17h36.00.604,premceCat2_ses-02_part-02_label-phase2,2020.2.10,Win32,60,,,,,right,5.41232,3,3.664105,0,59,59,106,1,stimuli/objects/minifridge.jpg,right,new,107,,,,,,,,,,,,,,,
,,,,,,,,5,2021-04-13_17h36.00.604,premceCat2_ses-02_part-02_label-phase2,2020.2.10,Win32,60,,,,,left,1.525225,4,1.08155,,,,,,,,,,left,0.457425,0,0,0,0,1,,,,,,,,
,,,,,,,,5,2021-04-13_17h36.00.604,premceCat2_ses-02_part-02_label-phase2,2020.2.10,Win32,60,,,,,,,,,0,60,60,62,1,stimuli/objects/potatomasher03b.jpg,left,old,63,,,,,,,,,,,,,,,
,,,,,,,,5,2021-04-13_17h36.00.604,premceCat2_ses-02_part-02_label-phase2,2020.2.10,Win32,60,,,,,right,5.38139,3,2.17125,0,61,61,96,1,stimuli/objects/golfbag.jpg,right,new,97,,,,,,,,,,,,,,,
,,,,,,,,5,2021-04-13_17h36.00.604,premceCat2_ses-02_part-02_label-phase2,2020.2.10,Win32,60,,,,,right,5.0243,3,0.570235,0,62,62,110,1,stimuli/objects/lock03a.jpg,right,new,111,,,,,,,,,,,,,,,
,,,,,,,,5,2021-04-13_17h36.00.604,premceCat2_ses-02_part-02_label-phase2,2020.2.10,Win32,60,,,,,right,1.21255,3,0.60114,0,63,63,71,1,stimuli/objects/faxmachine.jpg,right,new,72,,,,,,,,,,,,,,,
,,,,,,,,5,2021-04-13_17h36.00.604,premceCat2_ses-02_part-02_label-phase2,2020.2.10,Win32,60,,,,,right,2.15735,3,0.56238,0,64,64,17,1,stimuli/objects/exercisebench.jpg,right,new,18,,,,,,,,,,,,,,,
,,,,,,,,5,2021-04-13_17h36.00.604,premceCat2_ses-02_part-02_label-phase2,2020.2.10,Win32,60,,,,,right,3.765485,3,0.86229,0,65,65,90,1,stimuli/objects/carlighter02.jpg,right,new,91,,,,,,,,,,,,,,,
,,,,,,,,5,2021-04-13_17h36.00.604,premceCat2_ses-02_part-02_label-phase2,2020.2.10,Win32,60,,,,,left,1.290365,4,0.808945,,,,,,,,,,right,3.350275,0,0,0,0,1,,,,,,,,
,,,,,,,,5,2021-04-13_17h36.00.604,premceCat2_ses-02_part-02_label-phase2,2020.2.10,Win32,60,,,,,,,,,0,66,66,15,1,stimuli/objects/watercooler.jpg,left,old,16,,,,,,,,,,,,,,,
,,,,,,,,5,2021-04-13_17h36.00.604,premceCat2_ses-02_part-02_label-phase2,2020.2.10,Win32,60,,,,,left,3.12368,4,2.94988,,,,,,,,,,right,0.447115,0,0,0,0,1,,,,,,,,
,,,,,,,,5,2021-04-13_17h36.00.604,premceCat2_ses-02_part-02_label-phase2,2020.2.10,Win32,60,,,,,,,,,0,67,67,113,1,stimuli/objects/powercable.jpg,right,new,114,,,,,,,,,,,,,,,
,,,,,,,,5,2021-04-13_17h36.00.604,premceCat2_ses-02_part-02_label-phase2,2020.2.10,Win32,60,,,,,left,1.911605,4,2.1287,,,,,,,,,,left,0.351025,0,0,0,0,1,,,,,,,,
,,,,,,,,5,2021-04-13_17h36.00.604,premceCat2_ses-02_part-02_label-phase2,2020.2.10,Win32,60,,,,,,,,,0,68,68,88,1,stimuli/objects/gravyboat.jpg,left,old,89,,,,,,,,,,,,,,,
,,,,,,,,5,2021-04-13_17h36.00.604,premceCat2_ses-02_part-02_label-phase2,2020.2.10,Win32,60,,,,,left,2.291495,4,1.440395,,,,,,,,,,right,1.062345,0,0,0,0,1,,,,,,,,
,,,,,,,,5,2021-04-13_17h36.00.604,premceCat2_ses-02_part-02_label-phase2,2020.2.10,Win32,60,,,,,,,,,0,69,69,44,1,stimuli/objects/lawnmower.jpg,left,old,45,,,,,,,,,,,,,,,
,,,,,,,,5,2021-04-13_17h36.00.604,premceCat2_ses-02_part-02_label-phase2,2020.2.10,Win32,60,,,,,right,3.261545,2,1.497225,0,70,70,24,1,stimuli/objects/skateboard.jpg,right,new,25,,,,,,,,,,,,,,,
,,,,,,,,5,2021-04-13_17h36.00.604,premceCat2_ses-02_part-02_label-phase2,2020.2.10,Win32,60,,,,,left,2.147145,3,1.613685,,,,,,,,,,right,1.69345,0,0,0,0,1,,,,,,,,
,,,,,,,,5,2021-04-13_17h36.00.604,premceCat2_ses-02_part-02_label-phase2,2020.2.10,Win32,60,,,,,,,,,0,71,71,69,1,stimuli/objects/filmnegative.jpg,left,old,70,,,,,,,,,,,,,,,
,,,,,,,,5,2021-04-13_17h36.00.604,premceCat2_ses-02_part-02_label-phase2,2020.2.10,Win32,60,,,,,right,2.906575,3,12.739405,0,72,72,12,1,stimuli/objects/garlicpress02a.jpg,right,new,13,,,,,,,,,,,,,,,
,,,,,,,,5,2021-04-13_17h36.00.604,premceCat2_ses-02_part-02_label-phase2,2020.2.10,Win32,60,,,,,right,4.080245,2,0.75138,0,73,73,55,1,stimuli/objects/toolbox02.jpg,right,new,56,,,,,,,,,,,,,,,
,,,,,,,,5,2021-04-13_17h36.00.604,premceCat2_ses-02_part-02_label-phase2,2020.2.10,Win32,60,,,,,left,1.206735,4,0.862525,,,,,,,,,,left,0.395955,0,0,0,0,1,,,,,,,,
,,,,,,,,5,2021-04-13_17h36.00.604,premceCat2_ses-02_part-02_label-phase2,2020.2.10,Win32,60,,,,,,,,,0,74,74,56,1,stimuli/objects/funnel.jpg,left,old,57,,,,,,,,,,,,,,,
,,,,,,,,5,2021-04-13_17h36.00.604,premceCat2_ses-02_part-02_label-phase2,2020.2.10,Win32,60,,,,,left,6.96478,2,0.728785,,,,,,,,,,right,0.44494,0,0,0,0,1,,,,,,,,
,,,,,,,,5,2021-04-13_17h36.00.604,premceCat2_ses-02_part-02_label-phase2,2020.2.10,Win32,60,,,,,,,,,0,75,75,37,1,stimuli/objects/pressurewasher.jpg,left,old,38,,,,,,,,,,,,,,,
,,,,,,,,5,2021-04-13_17h36.00.604,premceCat2_ses-02_part-02_label-phase2,2020.2.10,Win32,60,,,,,right,8.48287,2,0.6084,0,76,76,59,1,stimuli/objects/studiolight.jpg,right,new,60,,,,,,,,,,,,,,,
,,,,,,,,5,2021-04-13_17h36.00.604,premceCat2_ses-02_part-02_label-phase2,2020.2.10,Win32,60,,,,,left,1.448995,4,2.72345,,,,,,,,,,right,0.67598,0,0,0,0,1,,,,,,,,
,,,,,,,,5,2021-04-13_17h36.00.604,premceCat2_ses-02_part-02_label-phase2,2020.2.10,Win32,60,,,,,,,,,0,77,77,0,1,stimuli/objects/electricoutlet.jpg,left,old,1,,,,,,,,,,,,,,,
,,,,,,,,5,2021-04-13_17h36.00.604,premceCat2_ses-02_part-02_label-phase2,2020.2.10,Win32,60,,,,,left,0.91462,4,0.900245,,,,,,,,,,left,0.678765,0,0,0,0,1,,,,,,,,
,,,,,,,,5,2021-04-13_17h36.00.604,premceCat2_ses-02_part-02_label-phase2,2020.2.10,Win32,60,,,,,,,,,0,78,78,45,1,stimuli/objects/cookingpot.jpg,left,old,46,,,,,,,,,,,,,,,
,,,,,,,,5,2021-04-13_17h36.00.604,premceCat2_ses-02_part-02_label-phase2,2020.2.10,Win32,60,,,,,left,1.830195,4,1.159685,,,,,,,,,,right,3.731285,0,0,0,0,1,,,,,,,,
,,,,,,,,5,2021-04-13_17h36.00.604,premceCat2_ses-02_part-02_label-phase2,2020.2.10,Win32,60,,,,,,,,,0,79,79,10,1,stimuli/objects/dvdplayer.jpg,left,old,11,,,,,,,,,,,,,,,
,,,,,,,,5,2021-04-13_17h36.00.604,premceCat2_ses-02_part-02_label-phase2,2020.2.10,Win32,60,,,,,left,2.51291,2,1.378565,,,,,,,,,,left,2.634585,0,0,0,0,1,,,,,,,,
,,,,,,,,5,2021-04-13_17h36.00.604,premceCat2_ses-02_part-02_label-phase2,2020.2.10,Win32,60,,,,,,,,,0,80,80,33,1,stimuli/objects/microwave.jpg,right,new,34,,,,,,,,,,,,,,,
,,,,,,,,5,2021-04-13_17h36.00.604,premceCat2_ses-02_part-02_label-phase2,2020.2.10,Win32,60,,,,,right,2.87695,3,1.648125,0,81,81,111,1,stimuli/objects/speaker04.jpg,right,new,112,,,,,,,,,,,,,,,
,,,,,,,,5,2021-04-13_17h36.00.604,premceCat2_ses-02_part-02_label-phase2,2020.2.10,Win32,60,,,,,left,1.43715,4,1.04779,,,,,,,,,,right,0.808055,0,0,0,0,1,,,,,,,,
,,,,,,,,5,2021-04-13_17h36.00.604,premceCat2_ses-02_part-02_label-phase2,2020.2.10,Win32,60,,,,,,,,,0,82,82,40,1,stimuli/objects/level03a.jpg,left,old,41,,,,,,,,,,,,,,,
,,,,,,,,5,2021-04-13_17h36.00.604,premceCat2_ses-02_part-02_label-phase2,2020.2.10,Win32,60,,,,,left,1.232215,4,0.930275,,,,,,,,,,left,0.38902,0,0,0,0,1,,,,,,,,
,,,,,,,,5,2021-04-13_17h36.00.604,premceCat2_ses-02_part-02_label-phase2,2020.2.10,Win32,60,,,,,,,,,0,83,83,98,1,stimuli/objects/baseball01a.jpg,left,old,99,,,,,,,,,,,,,,,
,,,,,,,,5,2021-04-13_17h36.00.604,premceCat2_ses-02_part-02_label-phase2,2020.2.10,Win32,60,,,,,left,1.393,4,0.763955,,,,,,,,,,left,0.390295,0,0,0,0,1,,,,,,,,
,,,,,,,,5,2021-04-13_17h36.00.604,premceCat2_ses-02_part-02_label-phase2,2020.2.10,Win32,60,,,,,,,,,0,84,84,67,1,stimuli/objects/fishingrod.jpg,left,old,68,,,,,,,,,,,,,,,
,,,,,,,,5,2021-04-13_17h36.00.604,premceCat2_ses-02_part-02_label-phase2,2020.2.10,Win32,60,,,,,right,3.354655,2,0.96169,0,85,85,50,1,stimuli/objects/chisel02b.jpg,right,new,51,,,,,,,,,,,,,,,
,,,,,,,,5,2021-04-13_17h36.00.604,premceCat2_ses-02_part-02_label-phase2,2020.2.10,Win32,60,,,,,right,1.51362,4,0.849925,0,86,86,81,1,stimuli/objects/avcable.jpg,right,new,82,,,,,,,,,,,,,,,
,,,,,,,,5,2021-04-13_17h36.00.604,premceCat2_ses-02_part-02_label-phase2,2020.2.10,Win32,60,,,,,right,1.30885,4,1.99257,0,87,87,82,1,stimuli/objects/snowbrush.jpg,right,new,83,,,,,,,,,,,,,,,
,,,,,,,,5,2021-04-13_17h36.00.604,premceCat2_ses-02_part-02_label-phase2,2020.2.10,Win32,60,,,,,left,3.27915,2,3.71826,,,,,,,,,,left,0.86435,0,0,0,0,1,,,,,,,,
,,,,,,,,5,2021-04-13_17h36.00.604,premceCat2_ses-02_part-02_label-phase2,2020.2.10,Win32,60,,,,,,,,,0,88,88,74,1,stimuli/objects/snowboard.jpg,left,old,75,,,,,,,,,,,,,,,
,,,,,,,,5,2021-04-13_17h36.00.604,premceCat2_ses-02_part-02_label-phase2,2020.2.10,Win32,60,,,,,right,2.62168,3,1.37664,0,89,89,68,1,stimuli/objects/leafblower01.jpg,right,new,69,,,,,,,,,,,,,,,
,,,,,,,,5,2021-04-13_17h36.00.604,premceCat2_ses-02_part-02_label-phase2,2020.2.10,Win32,60,,,,,right,1.176795,4,0.6612,0,90,90,22,1,stimuli/objects/umbrella04.jpg,right,new,23,,,,,,,,,,,,,,,
,,,,,,,,5,2021-04-13_17h36.00.604,premceCat2_ses-02_part-02_label-phase2,2020.2.10,Win32,60,,,,,right,2.59357,3,0.715495,0,91,91,30,1,stimuli/objects/printer02.jpg,right,new,31,,,,,,,,,,,,,,,
,,,,,,,,5,2021-04-13_17h36.00.604,premceCat2_ses-02_part-02_label-phase2,2020.2.10,Win32,60,,,,,left,1.88219,4,1.71267,,,,,,,,,,left,0.64395,0,0,0,0,1,,,,,,,,
,,,,,,,,5,2021-04-13_17h36.00.604,premceCat2_ses-02_part-02_label-phase2,2020.2.10,Win32,60,,,,,,,,,0,92,92,120,1,stimuli/objects/oven.jpg,left,old,121,,,,,,,,,,,,,,,
,,,,,,,,5,2021-04-13_17h36.00.604,premceCat2_ses-02_part-02_label-phase2,2020.2.10,Win32,60,,,,,left,1.850915,4,1.88722,,,,,,,,,,left,0.491145,0,0,0,0,1,,,,,,,,
,,,,,,,,5,2021-04-13_17h36.00.604,premceCat2_ses-02_part-02_label-phase2,2020.2.10,Win32,60,,,,,,,,,0,93,93,102,1,stimuli/objects/backpack01a.jpg,left,old,103,,,,,,,,,,,,,,,
,,,,,,,,5,2021-04-13_17h36.00.604,premceCat2_ses-02_part-02_label-phase2,2020.2.10,Win32,60,,,,,left,0.869685,4,0.78332,,,,,,,,,,left,0.76561,0,0,0,0,1,,,,,,,,
,,,,,,,,5,2021-04-13_17h36.00.604,premceCat2_ses-02_part-02_label-phase2,2020.2.10,Win32,60,,,,,,,,,0,94,94,142,1,stimuli/objects/martiniglass01b.jpg,left,old,143,,,,,,,,,,,,,,,
,,,,,,,,5,2021-04-13_17h36.00.604,premceCat2_ses-02_part-02_label-phase2,2020.2.10,Win32,60,,,,,left,4.913815,2,1.58602,,,,,,,,,,right,0.366775,0,0,0,0,1,,,,,,,,
,,,,,,,,5,2021-04-13_17h36.00.604,premceCat2_ses-02_part-02_label-phase2,2020.2.10,Win32,60,,,,,,,,,0,95,95,9,1,stimuli/objects/measuringtape01.jpg,right,new,10,,,,,,,,,,,,,,,
,,,,,,,,5,2021-04-13_17h36.00.604,premceCat2_ses-02_part-02_label-phase2,2020.2.10,Win32,60,,,,,left,0.92974,4,1.04047,,,,,,,,,,left,1.149975,0,0,0,0,1,,,,,,,,
,,,,,,,,5,2021-04-13_17h36.00.604,premceCat2_ses-02_part-02_label-phase2,2020.2.10,Win32,60,,,,,,,,,0,96,96,70,1,stimuli/objects/bowl02a.jpg,left,old,71,,,,,,,,,,,,,,,
,,,,,,,,5,2021-04-13_17h36.00.604,premceCat2_ses-02_part-02_label-phase2,2020.2.10,Win32,60,,,,,right,4.970885,2,7.843365,0,97,97,34,1,stimuli/objects/lifesaver.jpg,left,old,35,,,,,,,,,,,,,,,
,,,,,,,,5,2021-04-13_17h36.00.604,premceCat2_ses-02_part-02_label-phase2,2020.2.10,Win32,60,,,,,right,1.20698,4,1.460005,0,98,98,136,1,stimuli/objects/battery02b.jpg,right,new,137,,,,,,,,,,,,,,,
,,,,,,,,5,2021-04-13_17h36.00.604,premceCat2_ses-02_part-02_label-phase2,2020.2.10,Win32,60,,,,,right,8.037255,2,0.49678,0,99,99,126,1,stimuli/objects/tableknife02.jpg,right,new,127,,,,,,,,,,,,,,,
,,,,,,,,5,2021-04-13_17h36.00.604,premceCat2_ses-02_part-02_label-phase2,2020.2.10,Win32,60,,,,,right,1.15705,3,1.712705,0,100,100,108,1,stimuli/objects/metalscissors.jpg,right,new,109,,,,,,,,,,,,,,,
,,,,,,,,5,2021-04-13_17h36.00.604,premceCat2_ses-02_part-02_label-phase2,2020.2.10,Win32,60,,,,,right,2.04516,2,0.70614,0,101,101,118,1,stimuli/objects/adjustablewrench01b.jpg,left,old,119,,,,,,,,,,,,,,,
,,,,,,,,5,2021-04-13_17h36.00.604,premceCat2_ses-02_part-02_label-phase2,2020.2.10,Win32,60,,,,,left,0.96046,4,0.80372,,,,,,,,,,right,0.90431,0,0,0,0,1,,,,,,,,
,,,,,,,,5,2021-04-13_17h36.00.604,premceCat2_ses-02_part-02_label-phase2,2020.2.10,Win32,60,,,,,,,,,0,102,102,99,1,stimuli/objects/paintroller01.jpg,left,old,100,,,,,,,,,,,,,,,
,,,,,,,,5,2021-04-13_17h36.00.604,premceCat2_ses-02_part-02_label-phase2,2020.2.10,Win32,60,,,,,right,3.379745,3,0.94697,0,103,103,97,1,stimuli/objects/securitycamera.jpg,left,old,98,,,,,,,,,,,,,,,
,,,,,,,,5,2021-04-13_17h36.00.604,premceCat2_ses-02_part-02_label-phase2,2020.2.10,Win32,60,,,,,right,1.51475,3,0.983585,0,104,104,134,1,stimuli/objects/screwdriver04b.jpg,right,new,135,,,,,,,,,,,,,,,
,,,,,,,,5,2021-04-13_17h36.00.604,premceCat2_ses-02_part-02_label-phase2,2020.2.10,Win32,60,,,,,left,2.363145,3,2.3078,,,,,,,,,,left,0.3213,0,0,0,0,1,,,,,,,,
,,,,,,,,5,2021-04-13_17h36.00.604,premceCat2_ses-02_part-02_label-phase2,2020.2.10,Win32,60,,,,,,,,,0,105,105,137,1,stimuli/objects/surfboard.jpg,left,old,138,,,,,,,,,,,,,,,
,,,,,,,,5,2021-04-13_17h36.00.604,premceCat2_ses-02_part-02_label-phase2,2020.2.10,Win32,60,,,,,left,2.17545,3,0.945185,,,,,,,,,,left,1.47839,0,0,0,0,1,,,,,,,,
,,,,,,,,5,2021-04-13_17h36.00.604,premceCat2_ses-02_part-02_label-phase2,2020.2.10,Win32,60,,,,,,,,,0,106,106,84,1,stimuli/objects/sportbag.jpg,left,old,85,,,,,,,,,,,,,,,
,,,,,,,,5,2021-04-13_17h36.00.604,premceCat2_ses-02_part-02_label-phase2,2020.2.10,Win32,60,,,,,right,3.011555,3,3.6845,0,107,107,117,1,stimuli/objects/videotape01b.jpg,right,new,118,,,,,,,,,,,,,,,
,,,,,,,,5,2021-04-13_17h36.00.604,premceCat2_ses-02_part-02_label-phase2,2020.2.10,Win32,60,,,,,right,1.482075,4,0.93025,0,108,108,26,1,stimuli/objects/boogieboard.jpg,right,new,27,,,,,,,,,,,,,,,
,,,,,,,,5,2021-04-13_17h36.00.604,premceCat2_ses-02_part-02_label-phase2,2020.2.10,Win32,60,,,,,left,1.30515,4,2.900915,,,,,,,,,,left,3.77337,0,0,0,0,1,,,,,,,,
,,,,,,,,5,2021-04-13_17h36.00.604,premceCat2_ses-02_part-02_label-phase2,2020.2.10,Win32,60,,,,,,,,,0,109,109,130,1,stimuli/objects/cooler01.jpg,left,old,131,,,,,,,,,,,,,,,
,,,,,,,,5,2021-04-13_17h36.00.604,premceCat2_ses-02_part-02_label-phase2,2020.2.10,Win32,60,,,,,right,2.26036,4,2.258995,0,110,110,43,1,stimuli/objects/punchingball.jpg,right,new,44,,,,,,,,,,,,,,,
,,,,,,,,5,2021-04-13_17h36.00.604,premceCat2_ses-02_part-02_label-phase2,2020.2.10,Win32,60,,,,,right,1.45403,3,2.912735,0,111,111,8,1,stimuli/objects/basketballhoop01.jpg,right,new,9,,,,,,,,,,,,,,,
,,,,,,,,5,2021-04-13_17h36.00.604,premceCat2_ses-02_part-02_label-phase2,2020.2.10,Win32,60,,,,,right,2.728635,2,0.3848,0,112,112,20,1,stimuli/objects/laptop01a.jpg,right,new,21,,,,,,,,,,,,,,,
,,,,,,,,5,2021-04-13_17h36.00.604,premceCat2_ses-02_part-02_label-phase2,2020.2.10,Win32,60,,,,,left,1.19641,3,0.678055,,,,,,,,,,right,0.780445,0,0,0,0,1,,,,,,,,
,,,,,,,,5,2021-04-13_17h36.00.604,premceCat2_ses-02_part-02_label-phase2,2020.2.10,Win32,60,,,,,,,,,0,113,113,95,1,stimuli/objects/floppydisk02a.jpg,left,old,96,,,,,,,,,,,,,,,
,,,,,,,,5,2021-04-13_17h36.00.604,premceCat2_ses-02_part-02_label-phase2,2020.2.10,Win32,60,,,,,right,3.504855,2,1.117025,0,114,114,128,1,stimuli/objects/tripod01.jpg,right,new,129,,,,,,,,,,,,,,,
,,,,,,,,5,2021-04-13_17h36.00.604,premceCat2_ses-02_part-02_label-phase2,2020.2.10,Win32,60,,,,,right,1.008715,3,0.592185,0,115,115,76,1,stimuli/objects/megaphone.jpg,right,new,77,,,,,,,,,,,,,,,
,,,,,,,,5,2021-04-13_17h36.00.604,premceCat2_ses-02_part-02_label-phase2,2020.2.10,Win32,60,,,,,left,1.082905,4,1.33367,,,,,,,,,,right,0.39571,0,0,0,0,1,,,,,,,,
,,,,,,,,5,2021-04-13_17h36.00.604,premceCat2_ses-02_part-02_label-phase2,2020.2.10,Win32,60,,,,,,,,,0,116,116,7,1,stimuli/objects/painttray.jpg,left,old,8,,,,,,,,,,,,,,,
,,,,,,,,5,2021-04-13_17h36.00.604,premceCat2_ses-02_part-02_label-phase2,2020.2.10,Win32,60,,,,,left,1.105215,4,0.700385,,,,,,,,,,right,0.618985,0,0,0,0,1,,,,,,,,
,,,,,,,,5,2021-04-13_17h36.00.604,premceCat2_ses-02_part-02_label-phase2,2020.2.10,Win32,60,,,,,,,,,0,117,117,61,1,stimuli/objects/squeegee01b.jpg,left,old,62,,,,,,,,,,,,,,,
,,,,,,,,5,2021-04-13_17h36.00.604,premceCat2_ses-02_part-02_label-phase2,2020.2.10,Win32,60,,,,,right,3.980145,2,5.598985,0,118,118,122,1,stimuli/objects/desktopcomputer.jpg,left,old,123,,,,,,,,,,,,,,,
,,,,,,,,5,2021-04-13_17h36.00.604,premceCat2_ses-02_part-02_label-phase2,2020.2.10,Win32,60,,,,,right,1.236015,3,0.58877,0,119,119,25,1,stimuli/objects/bowlingball.jpg,right,new,26,,,,,,,,,,,,,,,
,,,,,,,,5,2021-04-13_17h36.00.604,premceCat2_ses-02_part-02_label-phase2,2020.2.10,Win32,60,,,,,left,0.913275,4,2.01337,,,,,,,,,,left,0.815865,0,0,0,0,1,,,,,,,,
,,,,,,,,5,2021-04-13_17h36.00.604,premceCat2_ses-02_part-02_label-phase2,2020.2.10,Win32,60,,,,,,,,,0,120,120,3,1,stimuli/objects/shotglass.jpg,left,old,4,,,,,,,,,,,,,,,
,,,,,,,,5,2021-04-13_17h36.00.604,premceCat2_ses-02_part-02_label-phase2,2020.2.10,Win32,60,,,,,left,3.28936,2,0.97652,,,,,,,,,,right,0.57783,0,0,0,0,1,,,,,,,,
,,,,,,,,5,2021-04-13_17h36.00.604,premceCat2_ses-02_part-02_label-phase2,2020.2.10,Win32,60,,,,,,,,,0,121,121,57,1,stimuli/objects/audiocablesplitter.jpg,right,new,58,,,,,,,,,,,,,,,
,,,,,,,,5,2021-04-13_17h36.00.604,premceCat2_ses-02_part-02_label-phase2,2020.2.10,Win32,60,,,,,right,1.375515,3,2.145285,0,122,122,94,1,stimuli/objects/electricmixer.jpg,right,new,95,,,,,,,,,,,,,,,
,,,,,,,,5,2021-04-13_17h36.00.604,premceCat2_ses-02_part-02_label-phase2,2020.2.10,Win32,60,,,,,right,2.98302,2,0.330385,0,123,123,93,1,stimuli/objects/icepack.jpg,right,new,94,,,,,,,,,,,,,,,
,,,,,,,,5,2021-04-13_17h36.00.604,premceCat2_ses-02_part-02_label-phase2,2020.2.10,Win32,60,,,,,right,1.09675,4,1.5922,0,124,124,86,1,stimuli/objects/toasteroven.jpg,right,new,87,,,,,,,,,,,,,,,
,,,,,,,,5,2021-04-13_17h36.00.604,premceCat2_ses-02_part-02_label-phase2,2020.2.10,Win32,60,,,,,right,1.784655,3,1.90347,0,125,125,54,1,stimuli/objects/pda.jpg,right,new,55,,,,,,,,,,,,,,,
,,,,,,,,5,2021-04-13_17h36.00.604,premceCat2_ses-02_part-02_label-phase2,2020.2.10,Win32,60,,,,,right,3.00881,2,2.18475,0,126,126,138,1,stimuli/objects/taperecorder.jpg,right,new,139,,,,,,,,,,,,,,,
,,,,,,,,5,2021-04-13_17h36.00.604,premceCat2_ses-02_part-02_label-phase2,2020.2.10,Win32,60,,,,,left,1.88037,3,1.09524,,,,,,,,,,right,0.37348,0,0,0,0,1,,,,,,,,
,,,,,,,,5,2021-04-13_17h36.00.604,premceCat2_ses-02_part-02_label-phase2,2020.2.10,Win32,60,,,,,,,,,0,127,127,5,1,stimuli/objects/expansioncard.jpg,left,old,6,,,,,,,,,,,,,,,
,,,,,,,,5,2021-04-13_17h36.00.604,premceCat2_ses-02_part-02_label-phase2,2020.2.10,Win32,60,,,,,right,3.24401,2,0.57415,0,128,128,63,1,stimuli/objects/butterdish.jpg,right,new,64,,,,,,,,,,,,,,,
,,,,,,,,5,2021-04-13_17h36.00.604,premceCat2_ses-02_part-02_label-phase2,2020.2.10,Win32,60,,,,,left,1.05653,4,1.073275,,,,,,,,,,right,0.57309,0,0,0,0,1,,,,,,,,
,,,,,,,,5,2021-04-13_17h36.00.604,premceCat2_ses-02_part-02_label-phase2,2020.2.10,Win32,60,,,,,,,,,0,129,129,31,1,stimuli/objects/gastank.jpg,left,old,32,,,,,,,,,,,,,,,
,,,,,,,,5,2021-04-13_17h36.00.604,premceCat2_ses-02_part-02_label-phase2,2020.2.10,Win32,60,,,,,right,2.921045,3,0.931995,0,130,130,4,1,stimuli/objects/microphone01.jpg,right,new,5,,,,,,,,,,,,,,,
,,,,,,,,5,2021-04-13_17h36.00.604,premceCat2_ses-02_part-02_label-phase2,2020.2.10,Win32,60,,,,,right,2.30841,2,1.11893,0,131,131,19,1,stimuli/objects/peppermill02b.jpg,right,new,20,,,,,,,,,,,,,,,
,,,,,,,,5,2021-04-13_17h36.00.604,premceCat2_ses-02_part-02_label-phase2,2020.2.10,Win32,60,,,,,left,1.258205,4,1.1489,,,,,,,,,,right,0.35428,0,0,0,0,1,,,,,,,,
,,,,,,,,5,2021-04-13_17h36.00.604,premceCat2_ses-02_part-02_label-phase2,2020.2.10,Win32,60,,,,,,,,,0,132,132,47,1,stimuli/objects/caulking.jpg,left,old,48,,,,,,,,,,,,,,,
,,,,,,,,5,2021-04-13_17h36.00.604,premceCat2_ses-02_part-02_label-phase2,2020.2.10,Win32,60,,,,,left,1.06703,4,1.300105,,,,,,,,,,left,0.459025,0,0,0,0,1,,,,,,,,
,,,,,,,,5,2021-04-13_17h36.00.604,premceCat2_ses-02_part-02_label-phase2,2020.2.10,Win32,60,,,,,,,,,0,133,133,107,1,stimuli/objects/aluminiumfoil.jpg,left,old,108,,,,,,,,,,,,,,,
,,,,,,,,5,2021-04-13_17h36.00.604,premceCat2_ses-02_part-02_label-phase2,2020.2.10,Win32,60,,,,,left,1.792585,3,1.031625,,,,,,,,,,left,0.32673,0,0,0,0,1,,,,,,,,
,,,,,,,,5,2021-04-13_17h36.00.604,premceCat2_ses-02_part-02_label-phase2,2020.2.10,Win32,60,,,,,,,,,0,134,134,13,1,stimuli/objects/bastingbrush.jpg,right,new,14,,,,,,,,,,,,,,,
,,,,,,,,5,2021-04-13_17h36.00.604,premceCat2_ses-02_part-02_label-phase2,2020.2.10,Win32,60,,,,,right,1.258235,4,2.263435,0,135,135,51,1,stimuli/objects/webcam.jpg,right,new,52,,,,,,,,,,,,,,,
,,,,,,,,5,2021-04-13_17h36.00.604,premceCat2_ses-02_part-02_label-phase2,2020.2.10,Win32,60,,,,,left,2.21373,2,4.349735,,,,,,,,,,left,1.750025,0,0,0,0,1,,,,,,,,
,,,,,,,,5,2021-04-13_17h36.00.604,premceCat2_ses-02_part-02_label-phase2,2020.2.10,Win32,60,,,,,,,,,0,136,136,123,1,stimuli/objects/thermos.jpg,left,old,124,,,,,,,,,,,,,,,
,,,,,,,,5,2021-04-13_17h36.00.604,premceCat2_ses-02_part-02_label-phase2,2020.2.10,Win32,60,,,,,right,1.371475,3,2.169115,0,137,137,38,1,stimuli/objects/soundmixer.jpg,right,new,39,,,,,,,,,,,,,,,
,,,,,,,,5,2021-04-13_17h36.00.604,premceCat2_ses-02_part-02_label-phase2,2020.2.10,Win32,60,,,,,left,2.192455,2,1.314265,,,,,,,,,,right,0.615095,0,0,0,0,1,,,,,,,,
,,,,,,,,5,2021-04-13_17h36.00.604,premceCat2_ses-02_part-02_label-phase2,2020.2.10,Win32,60,,,,,,,,,0,138,138,32,1,stimuli/objects/mitresaw.jpg,right,new,33,,,,,,,,,,,,,,,
,,,,,,,,5,2021-04-13_17h36.00.604,premceCat2_ses-02_part-02_label-phase2,2020.2.10,Win32,60,,,,,left,1.212515,4,0.92043,,,,,,,,,,right,0.309895,0,0,0,0,1,,,,,,,,
,,,,,,,,5,2021-04-13_17h36.00.604,premceCat2_ses-02_part-02_label-phase2,2020.2.10,Win32,60,,,,,,,,,0,139,139,135,1,stimuli/objects/stubbywrench01a.jpg,left,old,136,,,,,,,,,,,,,,,
,,,,,,,,5,2021-04-13_17h36.00.604,premceCat2_ses-02_part-02_label-phase2,2020.2.10,Win32,60,,,,,right,3.71088,2,0.961635,0,140,140,49,1,stimuli/objects/exercisebike.jpg,left,old,50,,,,,,,,,,,,,,,
,,,,,,,,5,2021-04-13_17h36.00.604,premceCat2_ses-02_part-02_label-phase2,2020.2.10,Win32,60,,,,,left,1.582655,4,0.899155,,,,,,,,,,right,0.779035,0,0,0,0,1,,,,,,,,
,,,,,,,,5,2021-04-13_17h36.00.604,premceCat2_ses-02_part-02_label-phase2,2020.2.10,Win32,60,,,,,,,,,0,141,141,1,1,stimuli/objects/ipad02.jpg,left,old,2,,,,,,,,,,,,,,,
,,,,,,,,5,2021-04-13_17h36.00.604,premceCat2_ses-02_part-02_label-phase2,2020.2.10,Win32,60,,,,,left,1.756955,3,0.73885,,,,,,,,,,right,0.32388,0,0,0,0,1,,,,,,,,
,,,,,,,,5,2021-04-13_17h36.00.604,premceCat2_ses-02_part-02_label-phase2,2020.2.10,Win32,60,,,,,,,,,0,142,142,132,1,stimuli/objects/payphone.jpg,left,old,133,,,,,,,,,,,,,,,
,,,,,,,,5,2021-04-13_17h36.00.604,premceCat2_ses-02_part-02_label-phase2,2020.2.10,Win32,60,,,,,,,,,,,,,,,,,,,,,,,,,space,16.57184,0,0,0,0,1,condition_files/ImagesforRecog2_1.csv
,,,,,,,,5,2021-04-13_17h36.00.604,premceCat2_ses-02_part-02_label-phase2,2020.2.10,Win32,60,,,,,left,3.228995,4,3.81333,,,,,,,,,,left,1.37364,0,0,0,0,1,,,,,,,,
,,,,,,,,5,2021-04-13_17h36.00.604,premceCat2_ses-02_part-02_label-phase2,2020.2.10,Win32,60,,,,,,,,,0,0,0,74,1,stimuli/objects/shinpad.jpg,left,old,218,,,,,,,,,,,,,,,
,,,,,,,,5,2021-04-13_17h36.00.604,premceCat2_ses-02_part-02_label-phase2,2020.2.10,Win32,60,,,,,right,2.557515,2,1.13181,0,1,1,116,1,stimuli/objects/lockingplier.jpg,right,new,260,,,,,,,,,,,,,,,
,,,,,,,,5,2021-04-13_17h36.00.604,premceCat2_ses-02_part-02_label-phase2,2020.2.10,Win32,60,,,,,left,1.545855,4,0.90228,,,,,,,,,,right,1.76515,0,0,0,0,1,,,,,,,,
,,,,,,,,5,2021-04-13_17h36.00.604,premceCat2_ses-02_part-02_label-phase2,2020.2.10,Win32,60,,,,,,,,,0,2,2,37,1,stimuli/objects/carantenna.jpg,left,old,181,,,,,,,,,,,,,,,
,,,,,,,,5,2021-04-13_17h36.00.604,premceCat2_ses-02_part-02_label-phase2,2020.2.10,Win32,60,,,,,left,2.407515,2,0.74288,,,,,,,,,,left,1.141635,0,0,0,0,1,,,,,,,,
,,,,,,,,5,2021-04-13_17h36.00.604,premceCat2_ses-02_part-02_label-phase2,2020.2.10,Win32,60,,,,,,,,,0,3,3,110,1,stimuli/objects/hockeygoaliepad.jpg,left,old,254,,,,,,,,,,,,,,,
,,,,,,,,5,2021-04-13_17h36.00.604,premceCat2_ses-02_part-02_label-phase2,2020.2.10,Win32,60,,,,,left,5.229385,3,1.093615,,,,,,,,,,right,1.21673,0,0,0,0,1,,,,,,,,
,,,,,,,,5,2021-04-13_17h36.00.604,premceCat2_ses-02_part-02_label-phase2,2020.2.10,Win32,60,,,,,,,,,0,4,4,61,1,stimuli/objects/wateringcan.jpg,left,old,205,,,,,,,,,,,,,,,
,,,,,,,,5,2021-04-13_17h36.00.604,premceCat2_ses-02_part-02_label-phase2,2020.2.10,Win32,60,,,,,right,3.77152,3,0.934235,0,5,5,68,1,stimuli/objects/ladle02a.jpg,right,new,212,,,,,,,,,,,,,,,
,,,,,,,,5,2021-04-13_17h36.00.604,premceCat2_ses-02_part-02_label-phase2,2020.2.10,Win32,60,,,,,left,1.491735,3,0.700445,,,,,,,,,,left,0.29833,0,0,0,0,1,,,,,,,,
,,,,,,,,5,2021-04-13_17h36.00.604,premceCat2_ses-02_part-02_label-phase2,2020.2.10,Win32,60,,,,,,,,,0,6,6,109,1,stimuli/objects/waterbottle03.jpg,left,old,253,,,,,,,,,,,,,,,
,,,,,,,,5,2021-04-13_17h36.00.604,premceCat2_ses-02_part-02_label-phase2,2020.2.10,Win32,60,,,,,left,0.882025,4,0.92151,,,,,,,,,,left,0.34444,0,0,0,0,1,,,,,,,,
,,,,,,,,5,2021-04-13_17h36.00.604,premceCat2_ses-02_part-02_label-phase2,2020.2.10,Win32,60,,,,,,,,,0,7,7,7,1,stimuli/objects/dishrack.jpg,left,old,151,,,,,,,,,,,,,,,
,,,,,,,,5,2021-04-13_17h36.00.604,premceCat2_ses-02_part-02_label-phase2,2020.2.10,Win32,60,,,,,right,3.071025,4,0.57296,0,8,8,82,1,stimuli/objects/shopvac.jpg,right,new,226,,,,,,,,,,,,,,,
,,,,,,,,5,2021-04-13_17h36.00.604,premceCat2_ses-02_part-02_label-phase2,2020.2.10,Win32,60,,,,,right,1.28653,4,0.66941,0,9,9,98,1,stimuli/objects/cameracase01a.jpg,right,new,242,,,,,,,,,,,,,,,
,,,,,,,,5,2021-04-13_17h36.00.604,premceCat2_ses-02_part-02_label-phase2,2020.2.10,Win32,60,,,,,left,0.962885,4,0.906655,,,,,,,,,,left,0.58218,0,0,0,0,1,,,,,,,,
,,,,,,,,5,2021-04-13_17h36.00.604,premceCat2_ses-02_part-02_label-phase2,2020.2.10,Win32,60,,,,,,,,,0,10,10,28,1,stimuli/objects/spoon01.jpg,left,old,172,,,,,,,,,,,,,,,
,,,,,,,,5,2021-04-13_17h36.00.604,premceCat2_ses-02_part-02_label-phase2,2020.2.10,Win32,60,,,,,right,1.61133,4,0.39856,0,11,11,40,1,stimuli/objects/tablesaw.jpg,right,new,184,,,,,,,,,,,,,,,
,,,,,,,,5,2021-04-13_17h36.00.604,premceCat2_ses-02_part-02_label-phase2,2020.2.10,Win32,60,,,,,right,1.951005,2,1.11413,0,12,12,26,1,stimuli/objects/flashlight02b.jpg,right,new,170,,,,,,,,,,,,,,,
,,,,,,,,5,2021-04-13_17h36.00.604,premceCat2_ses-02_part-02_label-phase2,2020.2.10,Win32,60,,,,,left,1.742445,4,0.56283,,,,,,,,,,right,1.892755,0,0,0,0,1,,,,,,,,
,,,,,,,,5,2021-04-13_17h36.00.604,premceCat2_ses-02_part-02_label-phase2,2020.2.10,Win32,60,,,,,,,,,0,13,13,65,1,stimuli/objects/jigsaw.jpg,left,old,209,,,,,,,,,,,,,,,
,,,,,,,,5,2021-04-13_17h36.00.604,premceCat2_ses-02_part-02_label-phase2,2020.2.10,Win32,60,,,,,right,5.06489,2,0.30378,0,14,14,4,1,stimuli/objects/cassettetape01a.jpg,right,new,148,,,,,,,,,,,,,,,
,,,,,,,,5,2021-04-13_17h36.00.604,premceCat2_ses-02_part-02_label-phase2,2020.2.10,Win32,60,,,,,right,2.515085,3,3.413985,0,15,15,59,1,stimuli/objects/speedball.jpg,right,new,203,,,,,,,,,,,,,,,
,,,,,,,,5,2021-04-13_17h36.00.604,premceCat2_ses-02_part-02_label-phase2,2020.2.10,Win32,60,,,,,left,0.95358,4,0.700955,,,,,,,,,,right,1.46585,0,0,0,0,1,,,,,,,,
,,,,,,,,5,2021-04-13_17h36.00.604,premceCat2_ses-02_part-02_label-phase2,2020.2.10,Win32,60,,,,,,,,,0,16,16,93,1,stimuli/objects/rope03.jpg,left,old,237,,,,,,,,,,,,,,,
,,,,,,,,5,2021-04-13_17h36.00.604,premceCat2_ses-02_part-02_label-phase2,2020.2.10,Win32,60,,,,,left,1.39507,4,1.211195,,,,,,,,,,right,0.38324,0,0,0,0,1,,,,,,,,
,,,,,,,,5,2021-04-13_17h36.00.604,premceCat2_ses-02_part-02_label-phase2,2020.2.10,Win32,60,,,,,,,,,0,17,17,29,1,stimuli/objects/coffeemachine.jpg,left,old,173,,,,,,,,,,,,,,,
,,,,,,,,5,2021-04-13_17h36.00.604,premceCat2_ses-02_part-02_label-phase2,2020.2.10,Win32,60,,,,,left,4.20173,2,0.631055,,,,,,,,,,left,3.34557,0,0,0,0,1,,,,,,,,
,,,,,,,,5,2021-04-13_17h36.00.604,premceCat2_ses-02_part-02_label-phase2,2020.2.10,Win32,60,,,,,,,,,0,18,18,11,1,stimuli/objects/fuse.jpg,left,old,155,,,,,,,,,,,,,,,
,,,,,,,,5,2021-04-13_17h36.00.604,premceCat2_ses-02_part-02_label-phase2,2020.2.10,Win32,60,,,,,left,2.90297,4,2.43726,,,,,,,,,,right,0.33325,0,0,0,0,1,,,,,,,,
,,,,,,,,5,2021-04-13_17h36.00.604,premceCat2_ses-02_part-02_label-phase2,2020.2.10,Win32,60,,,,,,,,,0,19,19,67,1,stimuli/objects/filmroll.jpg,left,old,211,,,,,,,,,,,,,,,
,,,,,,,,5,2021-04-13_17h36.00.604,premceCat2_ses-02_part-02_label-phase2,2020.2.10,Win32,60,,,,,right,2.862535,2,2.140195,0,20,20,6,1,stimuli/objects/solderingwire.jpg,right,new,150,,,,,,,,,,,,,,,
,,,,,,,,5,2021-04-13_17h36.00.604,premceCat2_ses-02_part-02_label-phase2,2020.2.10,Win32,60,,,,,right,1.2678,2,0.47679,0,21,21,104,1,stimuli/objects/lamp04a.jpg,left,old,248,,,,,,,,,,,,,,,
,,,,,,,,5,2021-04-13_17h36.00.604,premceCat2_ses-02_part-02_label-phase2,2020.2.10,Win32,60,,,,,right,2.160885,4,1.732515,0,22,22,137,1,stimuli/objects/nutcracker01.jpg,right,new,281,,,,,,,,,,,,,,,
,,,,,,,,5,2021-04-13_17h36.00.604,premceCat2_ses-02_part-02_label-phase2,2020.2.10,Win32,60,,,,,left,1.01137,4,0.60229,,,,,,,,,,right,0.710595,0,0,0,0,1,,,,,,,,
,,,,,,,,5,2021-04-13_17h36.00.604,premceCat2_ses-02_part-02_label-phase2,2020.2.10,Win32,60,,,,,,,,,0,23,23,106,1,stimuli/objects/nintendods.jpg,left,old,250,,,,,,,,,,,,,,,
,,,,,,,,5,2021-04-13_17h36.00.604,premceCat2_ses-02_part-02_label-phase2,2020.2.10,Win32,60,,,,,left,5.49393,2,1.70054,,,,,,,,,,left,1.18299,0,0,0,0,1,,,,,,,,
,,,,,,,,5,2021-04-13_17h36.00.604,premceCat2_ses-02_part-02_label-phase2,2020.2.10,Win32,60,,,,,,,,,0,24,24,58,1,stimuli/objects/swimgoggles.jpg,left,old,202,,,,,,,,,,,,,,,
,,,,,,,,5,2021-04-13_17h36.00.604,premceCat2_ses-02_part-02_label-phase2,2020.2.10,Win32,60,,,,,right,0.935885,4,1.58601,0,25,25,25,1,stimuli/objects/jar02.jpg,left,old,169,,,,,,,,,,,,,,,
,,,,,,,,5,2021-04-13_17h36.00.604,premceCat2_ses-02_part-02_label-phase2,2020.2.10,Win32,60,,,,,left,4.566815,2,1.061835,,,,,,,,,,right,2.903365,0,0,0,0,1,,,,,,,,
,,,,,,,,5,2021-04-13_17h36.00.604,premceCat2_ses-02_part-02_label-phase2,2020.2.10,Win32,60,,,,,,,,,0,26,26,33,1,stimuli/objects/gps.jpg,left,old,177,,,,,,,,,,,,,,,
,,,,,,,,5,2021-04-13_17h36.00.604,premceCat2_ses-02_part-02_label-phase2,2020.2.10,Win32,60,,,,,left,2.727815,4,2.199675,,,,,,,,,,right,0.41256,0,0,0,0,1,,,,,,,,
,,,,,,,,5,2021-04-13_17h36.00.604,premceCat2_ses-02_part-02_label-phase2,2020.2.10,Win32,60,,,,,,,,,0,27,27,96,1,stimuli/objects/mallet01b.jpg,left,old,240,,,,,,,,,,,,,,,
,,,,,,,,5,2021-04-13_17h36.00.604,premceCat2_ses-02_part-02_label-phase2,2020.2.10,Win32,60,,,,,left,3.99846,2,0.938055,,,,,,,,,,left,0.42627,0,0,0,0,1,,,,,,,,
,,,,,,,,5,2021-04-13_17h36.00.604,premceCat2_ses-02_part-02_label-phase2,2020.2.10,Win32,60,,,,,,,,,0,28,28,47,1,stimuli/objects/plate01b.jpg,right,new,191,,,,,,,,,,,,,,,
,,,,,,,,5,2021-04-13_17h36.00.604,premceCat2_ses-02_part-02_label-phase2,2020.2.10,Win32,60,,,,,left,3.12699,2,5.69804,,,,,,,,,,left,0.67575,0,0,0,0,1,,,,,,,,
,,,,,,,,5,2021-04-13_17h36.00.604,premceCat2_ses-02_part-02_label-phase2,2020.2.10,Win32,60,,,,,,,,,0,29,29,42,1,stimuli/objects/tennisracket.jpg,right,new,186,,,,,,,,,,,,,,,
,,,,,,,,5,2021-04-13_17h36.00.604,premceCat2_ses-02_part-02_label-phase2,2020.2.10,Win32,60,,,,,left,1.17806,4,2.02511,,,,,,,,,,right,0.38216,0,0,0,0,1,,,,,,,,
,,,,,,,,5,2021-04-13_17h36.00.604,premceCat2_ses-02_part-02_label-phase2,2020.2.10,Win32,60,,,,,,,,,0,30,30,23,1,stimuli/objects/hockeypuck.jpg,left,old,167,,,,,,,,,,,,,,,
,,,,,,,,5,2021-04-13_17h36.00.604,premceCat2_ses-02_part-02_label-phase2,2020.2.10,Win32,60,,,,,right,1.204545,4,0.582815,0,31,31,35,1,stimuli/objects/stroller.jpg,right,new,179,,,,,,,,,,,,,,,
,,,,,,,,5,2021-04-13_17h36.00.604,premceCat2_ses-02_part-02_label-phase2,2020.2.10,Win32,60,,,,,right,2.055175,4,2.19578,0,32,32,5,1,stimuli/objects/pickaxe02.jpg,right,new,149,,,,,,,,,,,,,,,
,,,,,,,,5,2021-04-13_17h36.00.604,premceCat2_ses-02_part-02_label-phase2,2020.2.10,Win32,60,,,,,left,2.880005,2,0.488705,,,,,,,,,,right,0.41202,0,0,0,0,1,,,,,,,,
,,,,,,,,5,2021-04-13_17h36.00.604,premceCat2_ses-02_part-02_label-phase2,2020.2.10,Win32,60,,,,,,,,,0,33,33,75,1,stimuli/objects/hammer01.jpg,left,old,219,,,,,,,,,,,,,,,
,,,,,,,,5,2021-04-13_17h36.00.604,premceCat2_ses-02_part-02_label-phase2,2020.2.10,Win32,60,,,,,left,3.033725,2,0.404265,,,,,,,,,,left,6.354825,0,0,0,0,1,,,,,,,,
,,,,,,,,5,2021-04-13_17h36.00.604,premceCat2_ses-02_part-02_label-phase2,2020.2.10,Win32,60,,,,,,,,,0,34,34,84,1,stimuli/objects/patioumbrella.jpg,left,old,228,,,,,,,,,,,,,,,
,,,,,,,,5,2021-04-13_17h36.00.604,premceCat2_ses-02_part-02_label-phase2,2020.2.10,Win32,60,,,,,left,14.01745,2,2.898935,,,,,,,,,,left,0.441885,0,0,0,0,1,,,,,,,,
,,,,,,,,5,2021-04-13_17h36.00.604,premceCat2_ses-02_part-02_label-phase2,2020.2.10,Win32,60,,,,,,,,,0,35,35,57,1,stimuli/objects/soccerball.jpg,left,old,201,,,,,,,,,,,,,,,
,,,,,,,,5,2021-04-13_17h36.00.604,premceCat2_ses-02_part-02_label-phase2,2020.2.10,Win32,60,,,,,right,2.395265,3,1.26497,0,36,36,135,1,stimuli/objects/mortarandpestle.jpg,right,new,279,,,,,,,,,,,,,,,
,,,,,,,,5,2021-04-13_17h36.00.604,premceCat2_ses-02_part-02_label-phase2,2020.2.10,Win32,60,,,,,right,1.249025,3,1.682445,0,37,37,138,1,stimuli/objects/beermug01a.jpg,right,new,282,,,,,,,,,,,,,,,
,,,,,,,,5,2021-04-13_17h36.00.604,premceCat2_ses-02_part-02_label-phase2,2020.2.10,Win32,60,,,,,left,1.23754,4,1.6825,,,,,,,,,,left,1.06732,0,0,0,0,1,,,,,,,,
,,,,,,,,5,2021-04-13_17h36.00.604,premceCat2_ses-02_part-02_label-phase2,2020.2.10,Win32,60,,,,,,,,,0,38,38,77,1,stimuli/objects/corkscrew03a.jpg,left,old,221,,,,,,,,,,,,,,,
,,,,,,,,5,2021-04-13_17h36.00.604,premceCat2_ses-02_part-02_label-phase2,2020.2.10,Win32,60,,,,,left,1.573965,4,1.020335,,,,,,,,,,right,0.489845,0,0,0,0,1,,,,,,,,
,,,,,,,,5,2021-04-13_17h36.00.604,premceCat2_ses-02_part-02_label-phase2,2020.2.10,Win32,60,,,,,,,,,0,39,39,92,1,stimuli/objects/leafrake.jpg,left,old,236,,,,,,,,,,,,,,,
,,,,,,,,5,2021-04-13_17h36.00.604,premceCat2_ses-02_part-02_label-phase2,2020.2.10,Win32,60,,,,,left,1.11956,4,1.02368,,,,,,,,,,right,1.173075,0,0,0,0,1,,,,,,,,
,,,,,,,,5,2021-04-13_17h36.00.604,premceCat2_ses-02_part-02_label-phase2,2020.2.10,Win32,60,,,,,,,,,0,40,40,53,1,stimuli/objects/tape02a.jpg,left,old,197,,,,,,,,,,,,,,,
,,,,,,,,5,2021-04-13_17h36.00.604,premceCat2_ses-02_part-02_label-phase2,2020.2.10,Win32,60,,,,,left,4.667155,3,0.832225,,,,,,,,,,right,0.582425,0,0,0,0,1,,,,,,,,
,,,,,,,,5,2021-04-13_17h36.00.604,premceCat2_ses-02_part-02_label-phase2,2020.2.10,Win32,60,,,,,,,,,0,41,41,8,1,stimuli/objects/wheel01.jpg,left,old,152,,,,,,,,,,,,,,,
,,,,,,,,5,2021-04-13_17h36.00.604,premceCat2_ses-02_part-02_label-phase2,2020.2.10,Win32,60,,,,,right,1.39131,3,1.256965,0,42,42,30,1,stimuli/objects/halogenlightbulb.jpg,right,new,174,,,,,,,,,,,,,,,
,,,,,,,,5,2021-04-13_17h36.00.604,premceCat2_ses-02_part-02_label-phase2,2020.2.10,Win32,60,,,,,right,1.275495,3,0.71456,0,43,43,87,1,stimuli/objects/wiicontroller.jpg,right,new,231,,,,,,,,,,,,,,,
,,,,,,,,5,2021-04-13_17h36.00.604,premceCat2_ses-02_part-02_label-phase2,2020.2.10,Win32,60,,,,,left,1.407915,3,2.090885,,,,,,,,,,right,0.829375,0,0,0,0,1,,,,,,,,
,,,,,,,,5,2021-04-13_17h36.00.604,premceCat2_ses-02_part-02_label-phase2,2020.2.10,Win32,60,,,,,,,,,0,44,44,113,1,stimuli/objects/gluetube.jpg,left,old,257,,,,,,,,,,,,,,,
,,,,,,,,5,2021-04-13_17h36.00.604,premceCat2_ses-02_part-02_label-phase2,2020.2.10,Win32,60,,,,,left,1.138935,4,0.67826,,,,,,,,,,right,1.69507,0,0,0,0,1,,,,,,,,
,,,,,,,,5,2021-04-13_17h36.00.604,premceCat2_ses-02_part-02_label-phase2,2020.2.10,Win32,60,,,,,,,,,0,45,45,71,1,stimuli/objects/handgripper.jpg,left,old,215,,,,,,,,,,,,,,,
,,,,,,,,5,2021-04-13_17h36.00.604,premceCat2_ses-02_part-02_label-phase2,2020.2.10,Win32,60,,,,,right,2.09661,3,1.212155,0,46,46,99,1,stimuli/objects/floodlight.jpg,right,new,243,,,,,,,,,,,,,,,
,,,,,,,,5,2021-04-13_17h36.00.604,premceCat2_ses-02_part-02_label-phase2,2020.2.10,Win32,60,,,,,right,1.014305,4,0.379275,0,47,47,102,1,stimuli/objects/beachumbrella01.jpg,right,new,246,,,,,,,,,,,,,,,
,,,,,,,,5,2021-04-13_17h36.00.604,premceCat2_ses-02_part-02_label-phase2,2020.2.10,Win32,60,,,,,right,1.38264,3,0.74178,0,48,48,0,1,stimuli/objects/smokedetector02.jpg,right,new,144,,,,,,,,,,,,,,,
,,,,,,,,5,2021-04-13_17h36.00.604,premceCat2_ses-02_part-02_label-phase2,2020.2.10,Win32,60,,,,,left,2.82563,2,0.270465,,,,,,,,,,right,0.885525,0,0,0,0,1,,,,,,,,
,,,,,,,,5,2021-04-13_17h36.00.604,premceCat2_ses-02_part-02_label-phase2,2020.2.10,Win32,60,,,,,,,,,0,49,49,134,1,stimuli/objects/chandelier.jpg,left,old,278,,,,,,,,,,,,,,,
,,,,,,,,5,2021-04-13_17h36.00.604,premceCat2_ses-02_part-02_label-phase2,2020.2.10,Win32,60,,,,,left,1.38528,4,1.285825,,,,,,,,,,right,0.661725,0,0,0,0,1,,,,,,,,
,,,,,,,,5,2021-04-13_17h36.00.604,premceCat2_ses-02_part-02_label-phase2,2020.2.10,Win32,60,,,,,,,,,0,50,50,72,1,stimuli/objects/axe01.jpg,left,old,216,,,,,,,,,,,,,,,
,,,,,,,,5,2021-04-13_17h36.00.604,premceCat2_ses-02_part-02_label-phase2,2020.2.10,Win32,60,,,,,left,1.01521,4,0.731545,,,,,,,,,,left,6.72094,0,0,0,0,1,,,,,,,,
,,,,,,,,5,2021-04-13_17h36.00.604,premceCat2_ses-02_part-02_label-phase2,2020.2.10,Win32,60,,,,,,,,,0,51,51,45,1,stimuli/objects/ellipticalmachine.jpg,left,old,189,,,,,,,,,,,,,,,
,,,,,,,,5,2021-04-13_17h36.00.604,premceCat2_ses-02_part-02_label-phase2,2020.2.10,Win32,60,,,,,right,4.94181,3,1.276725,0,52,52,46,1,stimuli/objects/waterbottleholder.jpg,right,new,190,,,,,,,,,,,,,,,
,,,,,,,,5,2021-04-13_17h36.00.604,premceCat2_ses-02_part-02_label-phase2,2020.2.10,Win32,60,,,,,right,1.18691,3,0.642315,0,53,53,94,1,stimuli/objects/file.jpg,right,new,238,,,,,,,,,,,,,,,
,,,,,,,,5,2021-04-13_17h36.00.604,premceCat2_ses-02_part-02_label-phase2,2020.2.10,Win32,60,,,,,left,3.58246,3,1.23698,,,,,,,,,,left,1.68052,0,0,0,0,1,,,,,,,,
,,,,,,,,5,2021-04-13_17h36.00.604,premceCat2_ses-02_part-02_label-phase2,2020.2.10,Win32,60,,,,,,,,,0,54,54,14,1,stimuli/objects/boatmotor.jpg,left,old,158,,,,,,,,,,,,,,,
,,,,,,,,5,2021-04-13_17h36.00.604,premceCat2_ses-02_part-02_label-phase2,2020.2.10,Win32,60,,,,,right,2.46429,3,1.463855,0,55,55,120,1,stimuli/objects/tent.jpg,right,new,264,,,,,,,,,,,,,,,
,,,,,,,,5,2021-04-13_17h36.00.604,premceCat2_ses-02_part-02_label-phase2,2020.2.10,Win32,60,,,,,right,1.26238,3,0.46607,0,56,56,81,1,stimuli/objects/grill.jpg,right,new,225,,,,,,,,,,,,,,,
,,,,,,,,5,2021-04-13_17h36.00.604,premceCat2_ses-02_part-02_label-phase2,2020.2.10,Win32,60,,,,,right,2.09689,2,0.400335,0,57,57,80,1,stimuli/objects/barbecue03.jpg,right,new,224,,,,,,,,,,,,,,,
,,,,,,,,5,2021-04-13_17h36.00.604,premceCat2_ses-02_part-02_label-phase2,2020.2.10,Win32,60,,,,,left,1.518605,3,0.941095,,,,,,,,,,right,1.046805,0,0,0,0,1,,,,,,,,
,,,,,,,,5,2021-04-13_17h36.00.604,premceCat2_ses-02_part-02_label-phase2,2020.2.10,Win32,60,,,,,,,,,0,58,58,118,1,stimuli/objects/gardenshears01a.jpg,left,old,262,,,,,,,,,,,,,,,
,,,,,,,,5,2021-04-13_17h36.00.604,premceCat2_ses-02_part-02_label-phase2,2020.2.10,Win32,60,,,,,right,1.04223,2,0.570605,0,59,59,79,1,stimuli/objects/bikewheel.jpg,left,old,223,,,,,,,,,,,,,,,
,,,,,,,,5,2021-04-13_17h36.00.604,premceCat2_ses-02_part-02_label-phase2,2020.2.10,Win32,60,,,,,right,1.03383,3,1.667135,0,60,60,133,1,stimuli/objects/birdie.jpg,right,new,277,,,,,,,,,,,,,,,
,,,,,,,,5,2021-04-13_17h36.00.604,premceCat2_ses-02_part-02_label-phase2,2020.2.10,Win32,60,,,,,right,1.887395,2,6.864415,0,61,61,31,1,stimuli/objects/hockeygoaliemask.jpg,left,old,175,,,,,,,,,,,,,,,
,,,,,,,,5,2021-04-13_17h36.00.604,premceCat2_ses-02_part-02_label-phase2,2020.2.10,Win32,60,,,,,right,1.66696,4,0.979255,0,62,62,2,1,stimuli/objects/wetfloorsign.jpg,right,new,146,,,,,,,,,,,,,,,
,,,,,,,,5,2021-04-13_17h36.00.604,premceCat2_ses-02_part-02_label-phase2,2020.2.10,Win32,60,,,,,right,5.0929,2,1.799815,0,63,63,107,1,stimuli/objects/dolly01.jpg,right,new,251,,,,,,,,,,,,,,,
,,,,,,,,5,2021-04-13_17h36.00.604,premceCat2_ses-02_part-02_label-phase2,2020.2.10,Win32,60,,,,,right,2.735045,2,0.428615,0,64,64,9,1,stimuli/objects/alarmsystem.jpg,right,new,153,,,,,,,,,,,,,,,
,,,,,,,,5,2021-04-13_17h36.00.604,premceCat2_ses-02_part-02_label-phase2,2020.2.10,Win32,60,,,,,left,1.201575,4,1.21709,,,,,,,,,,right,2.38587,0,0,0,0,1,,,,,,,,
,,,,,,,,5,2021-04-13_17h36.00.604,premceCat2_ses-02_part-02_label-phase2,2020.2.10,Win32,60,,,,,,,,,0,65,65,130,1,stimuli/objects/fan.jpg,left,old,274,,,,,,,,,,,,,,,
,,,,,,,,5,2021-04-13_17h36.00.604,premceCat2_ses-02_part-02_label-phase2,2020.2.10,Win32,60,,,,,right,5.38644,2,0.556505,0,66,66,91,1,stimuli/objects/cuttingpliers02.jpg,right,new,235,,,,,,,,,,,,,,,
,,,,,,,,5,2021-04-13_17h36.00.604,premceCat2_ses-02_part-02_label-phase2,2020.2.10,Win32,60,,,,,right,2.255405,4,0.46477,0,67,67,16,1,stimuli/objects/bottleopener01.jpg,right,new,160,,,,,,,,,,,,,,,
,,,,,,,,5,2021-04-13_17h36.00.604,premceCat2_ses-02_part-02_label-phase2,2020.2.10,Win32,60,,,,,right,2.214015,2,0.23818,0,68,68,70,1,stimuli/objects/shovel01.jpg,right,new,214,,,,,,,,,,,,,,,
,,,,,,,,5,2021-04-13_17h36.00.604,premceCat2_ses-02_part-02_label-phase2,2020.2.10,Win32,60,,,,,left,1.41048,4,0.977895,,,,,,,,,,right,0.384795,0,0,0,0,1,,,,,,,,
,,,,,,,,5,2021-04-13_17h36.00.604,premceCat2_ses-02_part-02_label-phase2,2020.2.10,Win32,60,,,,,,,,,0,69,69,1,1,stimuli/objects/photocopier.jpg,left,old,145,,,,,,,,,,,,,,,
,,,,,,,,5,2021-04-13_17h36.00.604,premceCat2_ses-02_part-02_label-phase2,2020.2.10,Win32,60,,,,,left,1.06269,4,0.69893,,,,,,,,,,left,0.53911,0,0,0,0,1,,,,,,,,
,,,,,,,,5,2021-04-13_17h36.00.604,premceCat2_ses-02_part-02_label-phase2,2020.2.10,Win32,60,,,,,,,,,0,70,70,90,1,stimuli/objects/toyhockeystick01.jpg,left,old,234,,,,,,,,,,,,,,,
,,,,,,,,5,2021-04-13_17h36.00.604,premceCat2_ses-02_part-02_label-phase2,2020.2.10,Win32,60,,,,,right,1.300845,3,1.07894,0,71,71,127,1,stimuli/objects/skigoggles01.jpg,right,new,271,,,,,,,,,,,,,,,
,,,,,,,,5,2021-04-13_17h36.00.604,premceCat2_ses-02_part-02_label-phase2,2020.2.10,Win32,60,,,,,left,1.731185,2,0.296925,,,,,,,,,,right,0.94638,0,0,0,0,1,,,,,,,,
,,,,,,,,5,2021-04-13_17h36.00.604,premceCat2_ses-02_part-02_label-phase2,2020.2.10,Win32,60,,,,,,,,,0,72,72,21,1,stimuli/objects/boltcutter.jpg,left,old,165,,,,,,,,,,,,,,,
,,,,,,,,5,2021-04-13_17h36.00.604,premceCat2_ses-02_part-02_label-phase2,2020.2.10,Win32,60,,,,,left,1.20134,4,0.7309,,,,,,,,,,right,0.520255,0,0,0,0,1,,,,,,,,
,,,,,,,,5,2021-04-13_17h36.00.604,premceCat2_ses-02_part-02_label-phase2,2020.2.10,Win32,60,,,,,,,,,0,73,73,139,1,stimuli/objects/toothpick02.jpg,left,old,283,,,,,,,,,,,,,,,
,,,,,,,,5,2021-04-13_17h36.00.604,premceCat2_ses-02_part-02_label-phase2,2020.2.10,Win32,60,,,,,left,2.85054,3,0.91341,,,,,,,,,,left,0.324075,0,0,0,0,1,,,,,,,,
,,,,,,,,5,2021-04-13_17h36.00.604,premceCat2_ses-02_part-02_label-phase2,2020.2.10,Win32,60,,,,,,,,,0,74,74,95,1,stimuli/objects/tennisball01b.jpg,right,new,239,,,,,,,,,,,,,,,
,,,,,,,,5,2021-04-13_17h36.00.604,premceCat2_ses-02_part-02_label-phase2,2020.2.10,Win32,60,,,,,left,1.61545,2,3.140195,,,,,,,,,,right,1.370265,0,0,0,0,1,,,,,,,,
,,,,,,,,5,2021-04-13_17h36.00.604,premceCat2_ses-02_part-02_label-phase2,2020.2.10,Win32,60,,,,,,,,,0,75,75,12,1,stimuli/objects/fanheater.jpg,right,new,156,,,,,,,,,,,,,,,
,,,,,,,,5,2021-04-13_17h36.00.604,premceCat2_ses-02_part-02_label-phase2,2020.2.10,Win32,60,,,,,right,1.00089,2,2.19968,0,76,76,44,1,stimuli/objects/toaster01.jpg,right,new,188,,,,,,,,,,,,,,,
,,,,,,,,5,2021-04-13_17h36.00.604,premceCat2_ses-02_part-02_label-phase2,2020.2.10,Win32,60,,,,,right,0.98861,4,0.81198,0,77,77,111,1,stimuli/objects/diaperbag.jpg,right,new,255,,,,,,,,,,,,,,,
,,,,,,,,5,2021-04-13_17h36.00.604,premceCat2_ses-02_part-02_label-phase2,2020.2.10,Win32,60,,,,,right,2.375055,4,0.404935,0,78,78,123,1,stimuli/objects/jackhammer.jpg,right,new,267,,,,,,,,,,,,,,,
,,,,,,,,5,2021-04-13_17h36.00.604,premceCat2_ses-02_part-02_label-phase2,2020.2.10,Win32,60,,,,,left,1.393875,3,0.745255,,,,,,,,,,right,0.35727,0,0,0,0,1,,,,,,,,
,,,,,,,,5,2021-04-13_17h36.00.604,premceCat2_ses-02_part-02_label-phase2,2020.2.10,Win32,60,,,,,,,,,0,79,79,76,1,stimuli/objects/extensioncord.jpg,left,old,220,,,,,,,,,,,,,,,
,,,,,,,,5,2021-04-13_17h36.00.604,premceCat2_ses-02_part-02_label-phase2,2020.2.10,Win32,60,,,,,right,1.409805,4,0.58833,0,80,80,34,1,stimuli/objects/kneepad01c.jpg,right,new,178,,,,,,,,,,,,,,,
,,,,,,,,5,2021-04-13_17h36.00.604,premceCat2_ses-02_part-02_label-phase2,2020.2.10,Win32,60,,,,,left,0.897915,4,0.3635,,,,,,,,,,left,0.301795,0,0,0,0,1,,,,,,,,
,,,,,,,,5,2021-04-13_17h36.00.604,premceCat2_ses-02_part-02_label-phase2,2020.2.10,Win32,60,,,,,,,,,0,81,81,141,1,stimuli/objects/spatula04.jpg,left,old,285,,,,,,,,,,,,,,,
,,,,,,,,5,2021-04-13_17h36.00.604,premceCat2_ses-02_part-02_label-phase2,2020.2.10,Win32,60,,,,,right,3.296845,2,0.45051,0,82,82,122,1,stimuli/objects/hockeystick.jpg,right,new,266,,,,,,,,,,,,,,,
,,,,,,,,5,2021-04-13_17h36.00.604,premceCat2_ses-02_part-02_label-phase2,2020.2.10,Win32,60,,,,,right,1.74103,2,1.04517,0,83,83,112,1,stimuli/objects/telephone01b.jpg,left,old,256,,,,,,,,,,,,,,,
,,,,,,,,5,2021-04-13_17h36.00.604,premceCat2_ses-02_part-02_label-phase2,2020.2.10,Win32,60,,,,,right,1.23952,4,2.543685,0,84,84,101,1,stimuli/objects/lifejacket.jpg,right,new,245,,,,,,,,,,,,,,,
,,,,,,,,5,2021-04-13_17h36.00.604,premceCat2_ses-02_part-02_label-phase2,2020.2.10,Win32,60,,,,,left,4.58638,2,0.549365,,,,,,,,,,right,1.51533,0,0,0,0,1,,,,,,,,
,,,,,,,,5,2021-04-13_17h36.00.604,premceCat2_ses-02_part-02_label-phase2,2020.2.10,Win32,60,,,,,,,,,0,85,85,100,1,stimuli/objects/wheelbarrow01.jpg,left,old,244,,,,,,,,,,,,,,,
,,,,,,,,5,2021-04-13_17h36.00.604,premceCat2_ses-02_part-02_label-phase2,2020.2.10,Win32,60,,,,,left,2.90244,2,0.34986,,,,,,,,,,left,0.291105,0,0,0,0,1,,,,,,,,
,,,,,,,,5,2021-04-13_17h36.00.604,premceCat2_ses-02_part-02_label-phase2,2020.2.10,Win32,60,,,,,,,,,0,86,86,49,1,stimuli/objects/cakeplatter.jpg,right,new,193,,,,,,,,,,,,,,,
,,,,,,,,5,2021-04-13_17h36.00.604,premceCat2_ses-02_part-02_label-phase2,2020.2.10,Win32,60,,,,,right,1.34896,3,0.326705,0,87,87,124,1,stimuli/objects/basketball01.jpg,right,new,268,,,,,,,,,,,,,,,
,,,,,,,,5,2021-04-13_17h36.00.604,premceCat2_ses-02_part-02_label-phase2,2020.2.10,Win32,60,,,,,left,3.62936,2,0.405115,,,,,,,,,,left,0.90918,0,0,0,0,1,,,,,,,,
,,,,,,,,5,2021-04-13_17h36.00.604,premceCat2_ses-02_part-02_label-phase2,2020.2.10,Win32,60,,,,,,,,,0,88,88,131,1,stimuli/objects/handblender.jpg,right,new,275,,,,,,,,,,,,,,,
,,,,,,,,5,2021-04-13_17h36.00.604,premceCat2_ses-02_part-02_label-phase2,2020.2.10,Win32,60,,,,,right,1.203605,4,0.60407,0,89,89,39,1,stimuli/objects/wafflemaker.jpg,right,new,183,,,,,,,,,,,,,,,
,,,,,,,,5,2021-04-13_17h36.00.604,premceCat2_ses-02_part-02_label-phase2,2020.2.10,Win32,60,,,,,right,2.058125,2,0.299505,0,90,90,19,1,stimuli/objects/mug01.jpg,right,new,163,,,,,,,,,,,,,,,
,,,,,,,,5,2021-04-13_17h36.00.604,premceCat2_ses-02_part-02_label-phase2,2020.2.10,Win32,60,,,,,left,1.06515,3,0.378895,,,,,,,,,,left,1.79098,0,0,0,0,1,,,,,,,,
,,,,,,,,5,2021-04-13_17h36.00.604,premceCat2_ses-02_part-02_label-phase2,2020.2.10,Win32,60,,,,,,,,,0,91,91,20,1,stimuli/objects/bikehelmet.jpg,left,old,164,,,,,,,,,,,,,,,
,,,,,,,,5,2021-04-13_17h36.00.604,premceCat2_ses-02_part-02_label-phase2,2020.2.10,Win32,60,,,,,left,3.15286,2,0.52608,,,,,,,,,,right,0.312365,0,0,0,0,1,,,,,,,,
,,,,,,,,5,2021-04-13_17h36.00.604,premceCat2_ses-02_part-02_label-phase2,2020.2.10,Win32,60,,,,,,,,,0,92,92,85,1,stimuli/objects/usbcable01a.jpg,left,old,229,,,,,,,,,,,,,,,
,,,,,,,,5,2021-04-13_17h36.00.604,premceCat2_ses-02_part-02_label-phase2,2020.2.10,Win32,60,,,,,right,2.441015,2,2.023935,0,93,93,69,1,stimuli/objects/straw.jpg,right,new,213,,,,,,,,,,,,,,,
,,,,,,,,5,2021-04-13_17h36.00.604,premceCat2_ses-02_part-02_label-phase2,2020.2.10,Win32,60,,,,,left,2.39431,4,0.39096,,,,,,,,,,right,0.880625,0,0,0,0,1,,,,,,,,
,,,,,,,,5,2021-04-13_17h36.00.604,premceCat2_ses-02_part-02_label-phase2,2020.2.10,Win32,60,,,,,,,,,0,94,94,13,1,stimuli/objects/jumpercables.jpg,left,old,157,,,,,,,,,,,,,,,
,,,,,,,,5,2021-04-13_17h36.00.604,premceCat2_ses-02_part-02_label-phase2,2020.2.10,Win32,60,,,,,right,3.4977,3,0.95002,0,95,95,114,1,stimuli/objects/drinkshaker.jpg,right,new,258,,,,,,,,,,,,,,,
,,,,,,,,5,2021-04-13_17h36.00.604,premceCat2_ses-02_part-02_label-phase2,2020.2.10,Win32,60,,,,,left,1.39422,3,0.91558,,,,,,,,,,left,0.5057,0,0,0,0,1,,,,,,,,
,,,,,,,,5,2021-04-13_17h36.00.604,premceCat2_ses-02_part-02_label-phase2,2020.2.10,Win32,60,,,,,,,,,0,96,96,140,1,stimuli/objects/wineglass01.jpg,right,new,284,,,,,,,,,,,,,,,
,,,,,,,,5,2021-04-13_17h36.00.604,premceCat2_ses-02_part-02_label-phase2,2020.2.10,Win32,60,,,,,left,2.19337,3,0.72904,,,,,,,,,,left,0.384365,0,0,0,0,1,,,,,,,,
,,,,,,,,5,2021-04-13_17h36.00.604,premceCat2_ses-02_part-02_label-phase2,2020.2.10,Win32,60,,,,,,,,,0,97,97,119,1,stimuli/objects/cleaver01.jpg,left,old,263,,,,,,,,,,,,,,,
,,,,,,,,5,2021-04-13_17h36.00.604,premceCat2_ses-02_part-02_label-phase2,2020.2.10,Win32,60,,,,,right,1.96242,3,1.03865,0,98,98,83,1,stimuli/objects/icecubetray01a.jpg,right,new,227,,,,,,,,,,,,,,,
,,,,,,,,5,2021-04-13_17h36.00.604,premceCat2_ses-02_part-02_label-phase2,2020.2.10,Win32,60,,,,,left,0.87678,4,0.58676,,,,,,,,,,left,0.367905,0,0,0,0,1,,,,,,,,
,,,,,,,,5,2021-04-13_17h36.00.604,premceCat2_ses-02_part-02_label-phase2,2020.2.10,Win32,60,,,,,,,,,0,99,99,63,1,stimuli/objects/woodenspoon.jpg,left,old,207,,,,,,,,,,,,,,,
,,,,,,,,5,2021-04-13_17h36.00.604,premceCat2_ses-02_part-02_label-phase2,2020.2.10,Win32,60,,,,,left,2.184265,2,0.60402,,,,,,,,,,right,1.147885,0,0,0,0,1,,,,,,,,
,,,,,,,,5,2021-04-13_17h36.00.604,premceCat2_ses-02_part-02_label-phase2,2020.2.10,Win32,60,,,,,,,,,0,100,100,125,1,stimuli/objects/pliers02b.jpg,left,old,269,,,,,,,,,,,,,,,
,,,,,,,,5,2021-04-13_17h36.00.604,premceCat2_ses-02_part-02_label-phase2,2020.2.10,Win32,60,,,,,left,2.62869,4,0.63157,,,,,,,,,,right,0.299715,0,0,0,0,1,,,,,,,,
,,,,,,,,5,2021-04-13_17h36.00.604,premceCat2_ses-02_part-02_label-phase2,2020.2.10,Win32,60,,,,,,,,,0,101,101,22,1,stimuli/objects/hoe.jpg,left,old,166,,,,,,,,,,,,,,,
,,,,,,,,5,2021-04-13_17h36.00.604,premceCat2_ses-02_part-02_label-phase2,2020.2.10,Win32,60,,,,,left,1.264875,3,0.31116,,,,,,,,,,right,0.346765,0,0,0,0,1,,,,,,,,
,,,,,,,,5,2021-04-13_17h36.00.604,premceCat2_ses-02_part-02_label-phase2,2020.2.10,Win32,60,,,,,,,,,0,102,102,43,1,stimuli/objects/bowrake.jpg,right,new,187,,,,,,,,,,,,,,,
,,,,,,,,5,2021-04-13_17h36.00.604,premceCat2_ses-02_part-02_label-phase2,2020.2.10,Win32,60,,,,,right,0.81344,4,0.31746,0,103,103,64,1,stimuli/objects/volleyball.jpg,left,old,208,,,,,,,,,,,,,,,
,,,,,,,,5,2021-04-13_17h36.00.604,premceCat2_ses-02_part-02_label-phase2,2020.2.10,Win32,60,,,,,left,0.99391,4,0.26474,,,,,,,,,,left,0.38418,0,0,0,0,1,,,,,,,,
,,,,,,,,5,2021-04-13_17h36.00.604,premceCat2_ses-02_part-02_label-phase2,2020.2.10,Win32,60,,,,,,,,,0,104,104,32,1,stimuli/objects/pastaspoon.jpg,left,old,176,,,,,,,,,,,,,,,
,,,,,,,,5,2021-04-13_17h36.00.604,premceCat2_ses-02_part-02_label-phase2,2020.2.10,Win32,60,,,,,right,1.07542,3,0.48004,0,105,105,89,1,stimuli/objects/saladspinner.jpg,left,old,233,,,,,,,,,,,,,,,
,,,,,,,,5,2021-04-13_17h36.00.604,premceCat2_ses-02_part-02_label-phase2,2020.2.10,Win32,60,,,,,right,0.979535,3,0.344745,0,106,106,3,1,stimuli/objects/boxingglove01.jpg,right,new,147,,,,,,,,,,,,,,,
,,,,,,,,5,2021-04-13_17h36.00.604,premceCat2_ses-02_part-02_label-phase2,2020.2.10,Win32,60,,,,,left,0.911455,4,0.39982,,,,,,,,,,left,0.287715,0,0,0,0,1,,,,,,,,
,,,,,,,,5,2021-04-13_17h36.00.604,premceCat2_ses-02_part-02_label-phase2,2020.2.10,Win32,60,,,,,,,,,0,107,107,128,1,stimuli/objects/pot01.jpg,left,old,272,,,,,,,,,,,,,,,
,,,,,,,,5,2021-04-13_17h36.00.604,premceCat2_ses-02_part-02_label-phase2,2020.2.10,Win32,60,,,,,right,0.866095,4,0.30045,0,108,108,60,1,stimuli/objects/kite.jpg,right,new,204,,,,,,,,,,,,,,,
,,,,,,,,5,2021-04-13_17h36.00.604,premceCat2_ses-02_part-02_label-phase2,2020.2.10,Win32,60,,,,,right,2.94098,3,0.905085,0,109,109,86,1,stimuli/objects/trampoline.jpg,right,new,230,,,,,,,,,,,,,,,
,,,,,,,,5,2021-04-13_17h36.00.604,premceCat2_ses-02_part-02_label-phase2,2020.2.10,Win32,60,,,,,right,1.50884,4,0.299,0,110,110,103,1,stimuli/objects/swissarmyknife01a.jpg,right,new,247,,,,,,,,,,,,,,,
,,,,,,,,5,2021-04-13_17h36.00.604,premceCat2_ses-02_part-02_label-phase2,2020.2.10,Win32,60,,,,,left,0.84196,4,0.391775,,,,,,,,,,left,0.42808,0,0,0,0,1,,,,,,,,
,,,,,,,,5,2021-04-13_17h36.00.604,premceCat2_ses-02_part-02_label-phase2,2020.2.10,Win32,60,,,,,,,,,0,111,111,115,1,stimuli/objects/towel01.jpg,left,old,259,,,,,,,,,,,,,,,
,,,,,,,,5,2021-04-13_17h36.00.604,premceCat2_ses-02_part-02_label-phase2,2020.2.10,Win32,60,,,,,left,1.511165,2,1.29634,,,,,,,,,,left,0.51725,0,0,0,0,1,,,,,,,,
,,,,,,,,5,2021-04-13_17h36.00.604,premceCat2_ses-02_part-02_label-phase2,2020.2.10,Win32,60,,,,,,,,,0,112,112,56,1,stimuli/objects/tupperware03a.jpg,left,old,200,,,,,,,,,,,,,,,
,,,,,,,,5,2021-04-13_17h36.00.604,premceCat2_ses-02_part-02_label-phase2,2020.2.10,Win32,60,,,,,left,1.484415,4,3.33065,,,,,,,,,,right,0.92948,0,0,0,0,1,,,,,,,,
,,,,,,,,5,2021-04-13_17h36.00.604,premceCat2_ses-02_part-02_label-phase2,2020.2.10,Win32,60,,,,,,,,,0,113,113,73,1,stimuli/objects/propanetank01.jpg,left,old,217,,,,,,,,,,,,,,,
,,,,,,,,5,2021-04-13_17h36.00.604,premceCat2_ses-02_part-02_label-phase2,2020.2.10,Win32,60,,,,,right,1.621215,4,0.339875,0,114,114,66,1,stimuli/objects/heatpump.jpg,right,new,210,,,,,,,,,,,,,,,
,,,,,,,,5,2021-04-13_17h36.00.604,premceCat2_ses-02_part-02_label-phase2,2020.2.10,Win32,60,,,,,left,3.471065,2,0.08601,,,,,,,,,,right,1.266565,0,0,0,0,1,,,,,,,,
,,,,,,,,5,2021-04-13_17h36.00.604,premceCat2_ses-02_part-02_label-phase2,2020.2.10,Win32,60,,,,,,,,,0,115,115,17,1,stimuli/objects/bikelock.jpg,left,old,161,,,,,,,,,,,,,,,
,,,,,,,,5,2021-04-13_17h36.00.604,premceCat2_ses-02_part-02_label-phase2,2020.2.10,Win32,60,,,,,left,2.2653,4,0.3045,,,,,,,,,,left,0.349585,0,0,0,0,1,,,,,,,,
,,,,,,,,5,2021-04-13_17h36.00.604,premceCat2_ses-02_part-02_label-phase2,2020.2.10,Win32,60,,,,,,,,,0,116,116,62,1,stimuli/objects/hourglass.jpg,left,old,206,,,,,,,,,,,,,,,
,,,,,,,,5,2021-04-13_17h36.00.604,premceCat2_ses-02_part-02_label-phase2,2020.2.10,Win32,60,,,,,right,2.02152,4,0.41371,0,117,117,51,1,stimuli/objects/cheeseknife01.jpg,right,new,195,,,,,,,,,,,,,,,
,,,,,,,,5,2021-04-13_17h36.00.604,premceCat2_ses-02_part-02_label-phase2,2020.2.10,Win32,60,,,,,left,0.84488,4,0.32104,,,,,,,,,,left,0.31033,0,0,0,0,1,,,,,,,,
,,,,,,,,5,2021-04-13_17h36.00.604,premceCat2_ses-02_part-02_label-phase2,2020.2.10,Win32,60,,,,,,,,,0,118,118,50,1,stimuli/objects/iceskate.jpg,left,old,194,,,,,,,,,,,,,,,
,,,,,,,,5,2021-04-13_17h36.00.604,premceCat2_ses-02_part-02_label-phase2,2020.2.10,Win32,60,,,,,right,3.382575,3,0.748045,0,119,119,24,1,stimuli/objects/monitor.jpg,right,new,168,,,,,,,,,,,,,,,
,,,,,,,,5,2021-04-13_17h36.00.604,premceCat2_ses-02_part-02_label-phase2,2020.2.10,Win32,60,,,,,right,2.050675,3,1.666455,0,120,120,88,1,stimuli/objects/kiddiepool.jpg,left,old,232,,,,,,,,,,,,,,,
,,,,,,,,5,2021-04-13_17h36.00.604,premceCat2_ses-02_part-02_label-phase2,2020.2.10,Win32,60,,,,,right,1.201785,2,0.68688,0,121,121,27,1,stimuli/objects/hedgeshears.jpg,left,old,171,,,,,,,,,,,,,,,
,,,,,,,,5,2021-04-13_17h36.00.604,premceCat2_ses-02_part-02_label-phase2,2020.2.10,Win32,60,,,,,left,2.597975,2,0.499825,,,,,,,,,,right,0.596745,0,0,0,0,1,,,,,,,,
,,,,,,,,5,2021-04-13_17h36.00.604,premceCat2_ses-02_part-02_label-phase2,2020.2.10,Win32,60,,,,,,,,,0,122,122,36,1,stimuli/objects/loppingshears.jpg,right,new,180,,,,,,,,,,,,,,,
,,,,,,,,5,2021-04-13_17h36.00.604,premceCat2_ses-02_part-02_label-phase2,2020.2.10,Win32,60,,,,,left,1.06783,3,1.729365,,,,,,,,,,left,0.52373,0,0,0,0,1,,,,,,,,
,,,,,,,,5,2021-04-13_17h36.00.604,premceCat2_ses-02_part-02_label-phase2,2020.2.10,Win32,60,,,,,,,,,0,123,123,97,1,stimuli/objects/coffeepot03a.jpg,left,old,241,,,,,,,,,,,,,,,
,,,,,,,,5,2021-04-13_17h36.00.604,premceCat2_ses-02_part-02_label-phase2,2020.2.10,Win32,60,,,,,left,3.16841,2,0.394,,,,,,,,,,left,0.29594,0,0,0,0,1,,,,,,,,
,,,,,,,,5,2021-04-13_17h36.00.604,premceCat2_ses-02_part-02_label-phase2,2020.2.10,Win32,60,,,,,,,,,0,124,124,10,1,stimuli/objects/skihelmet01.jpg,left,old,154,,,,,,,,,,,,,,,
,,,,,,,,5,2021-04-13_17h36.00.604,premceCat2_ses-02_part-02_label-phase2,2020.2.10,Win32,60,,,,,left,1.683025,2,3.13093,,,,,,,,,,left,0.582455,0,0,0,0,1,,,,,,,,
,,,,,,,,5,2021-04-13_17h36.00.604,premceCat2_ses-02_part-02_label-phase2,2020.2.10,Win32,60,,,,,,,,,0,125,125,136,1,stimuli/objects/bikepump01.jpg,left,old,280,,,,,,,,,,,,,,,
,,,,,,,,5,2021-04-13_17h36.00.604,premceCat2_ses-02_part-02_label-phase2,2020.2.10,Win32,60,,,,,left,1.350515,4,0.78815,,,,,,,,,,left,0.716215,0,0,0,0,1,,,,,,,,
,,,,,,,,5,2021-04-13_17h36.00.604,premceCat2_ses-02_part-02_label-phase2,2020.2.10,Win32,60,,,,,,,,,0,126,126,117,1,stimuli/objects/podium.jpg,left,old,261,,,,,,,,,,,,,,,
,,,,,,,,5,2021-04-13_17h36.00.604,premceCat2_ses-02_part-02_label-phase2,2020.2.10,Win32,60,,,,,right,1.592185,2,0.534695,0,127,127,15,1,stimuli/objects/computermouse06.jpg,right,new,159,,,,,,,,,,,,,,,
,,,,,,,,5,2021-04-13_17h36.00.604,premceCat2_ses-02_part-02_label-phase2,2020.2.10,Win32,60,,,,,right,1.23318,3,1.87695,0,128,128,142,1,stimuli/objects/needlenosepliers01.jpg,right,new,286,,,,,,,,,,,,,,,
,,,,,,,,5,2021-04-13_17h36.00.604,premceCat2_ses-02_part-02_label-phase2,2020.2.10,Win32,60,,,,,right,2.72747,3,1.805785,0,129,129,41,1,stimuli/objects/flask.jpg,right,new,185,,,,,,,,,,,,,,,
,,,,,,,,5,2021-04-13_17h36.00.604,premceCat2_ses-02_part-02_label-phase2,2020.2.10,Win32,60,,,,,right,1.12714,4,0.91326,0,130,130,48,1,stimuli/objects/eggslicer.jpg,right,new,192,,,,,,,,,,,,,,,
,,,,,,,,5,2021-04-13_17h36.00.604,premceCat2_ses-02_part-02_label-phase2,2020.2.10,Win32,60,,,,,right,3.376795,2,0.598175,0,131,131,55,1,stimuli/objects/fonduefork01.jpg,right,new,199,,,,,,,,,,,,,,,
,,,,,,,,5,2021-04-13_17h36.00.604,premceCat2_ses-02_part-02_label-phase2,2020.2.10,Win32,60,,,,,right,1.23072,3,1.633775,0,132,132,132,1,stimuli/objects/wirestripper.jpg,right,new,276,,,,,,,,,,,,,,,
,,,,,,,,5,2021-04-13_17h36.00.604,premceCat2_ses-02_part-02_label-phase2,2020.2.10,Win32,60,,,,,left,3.3191,3,1.44636,,,,,,,,,,right,0.34503,0,0,0,0,1,,,,,,,,
,,,,,,,,5,2021-04-13_17h36.00.604,premceCat2_ses-02_part-02_label-phase2,2020.2.10,Win32,60,,,,,,,,,0,133,133,54,1,stimuli/objects/toyhardhat.jpg,left,old,198,,,,,,,,,,,,,,,
,,,,,,,,5,2021-04-13_17h36.00.604,premceCat2_ses-02_part-02_label-phase2,2020.2.10,Win32,60,,,,,left,2.518165,2,0.396155,,,,,,,,,,right,0.79078,0,0,0,0,1,,,,,,,,
,,,,,,,,5,2021-04-13_17h36.00.604,premceCat2_ses-02_part-02_label-phase2,2020.2.10,Win32,60,,,,,,,,,0,134,134,18,1,stimuli/objects/cellphone.jpg,left,old,162,,,,,,,,,,,,,,,
,,,,,,,,5,2021-04-13_17h36.00.604,premceCat2_ses-02_part-02_label-phase2,2020.2.10,Win32,60,,,,,right,1.42824,4,0.75055,0,135,135,121,1,stimuli/objects/parachute.jpg,right,new,265,,,,,,,,,,,,,,,
,,,,,,,,5,2021-04-13_17h36.00.604,premceCat2_ses-02_part-02_label-phase2,2020.2.10,Win32,60,,,,,left,1.085125,3,0.81602,,,,,,,,,,left,0.51281,0,0,0,0,1,,,,,,,,
,,,,,,,,5,2021-04-13_17h36.00.604,premceCat2_ses-02_part-02_label-phase2,2020.2.10,Win32,60,,,,,,,,,0,136,136,126,1,stimuli/objects/badmintonracket.jpg,left,old,270,,,,,,,,,,,,,,,
,,,,,,,,5,2021-04-13_17h36.00.604,premceCat2_ses-02_part-02_label-phase2,2020.2.10,Win32,60,,,,,right,1.1011,3,0.707055,0,137,137,78,1,stimuli/objects/lightswitch01.jpg,right,new,222,,,,,,,,,,,,,,,
,,,,,,,,5,2021-04-13_17h36.00.604,premceCat2_ses-02_part-02_label-phase2,2020.2.10,Win32,60,,,,,right,1.578205,2,0.774705,0,138,138,108,1,stimuli/objects/crocodileclips.jpg,left,old,252,,,,,,,,,,,,,,,
,,,,,,,,5,2021-04-13_17h36.00.604,premceCat2_ses-02_part-02_label-phase2,2020.2.10,Win32,60,,,,,left,1.27351,4,0.53223,,,,,,,,,,right,1.34653,0,0,0,0,1,,,,,,,,
,,,,,,,,5,2021-04-13_17h36.00.604,premceCat2_ses-02_part-02_label-phase2,2020.2.10,Win32,60,,,,,,,,,0,139,139,129,1,stimuli/objects/snowblower.jpg,left,old,273,,,,,,,,,,,,,,,
,,,,,,,,5,2021-04-13_17h36.00.604,premceCat2_ses-02_part-02_label-phase2,2020.2.10,Win32,60,,,,,right,1.853995,2,0.383345,0,140,140,52,1,stimuli/objects/antenna.jpg,left,old,196,,,,,,,,,,,,,,,
,,,,,,,,5,2021-04-13_17h36.00.604,premceCat2_ses-02_part-02_label-phase2,2020.2.10,Win32,60,,,,,right,1.54213,3,0.40112,0,141,141,38,1,stimuli/objects/espressomachine.jpg,left,old,182,,,,,,,,,,,,,,,
,,,,,,,,5,2021-04-13_17h36.00.604,premceCat2_ses-02_part-02_label-phase2,2020.2.10,Win32,60,,,,,left,1.814965,2,0.430065,,,,,,,,,,left,2.46542,0,0,0,0,1,,,,,,,,
,,,,,,,,5,2021-04-13_17h36.00.604,premceCat2_ses-02_part-02_label-phase2,2020.2.10,Win32,60,,,,,,,,,0,142,142,105,1,stimuli/objects/gasburner.jpg,left,old,249,,,,,,,,,,,,,,,
,,,,,,,,5,2021-04-13_17h36.00.604,premceCat2_ses-02_part-02_label-phase2,2020.2.10,Win32,60,,,,,,,,,,,,,,,,,,,,,,,,,space,5.019165,0,1,1,1,1,condition_files/ImagesforRecog2_2.csv
