myownaccuracy,respcorrs,minNrPractice,considerNrTrials,Instr_resp.keys,Instr_resp.rt,key_resp_2.keys,key_resp_2.rt,Instruction_loop.thisRepN,Instruction_loop.thisTrialN,Instruction_loop.thisN,Instruction_loop.thisIndex,Instruction_loop.ran,slides,participant,date,expName,psychopyVersion,OS,frameRate,key_resp_3.keys,key_resp_3.rt,taskGoresp.keys,taskGoresp.rt,pract_resp.keys,pract_resp.corr,pract_resp.rt,myownaccuracyCORR,pract_loop.thisRepN,pract_loop.thisTrialN,pract_loop.thisN,pract_loop.thisIndex,pract_loop.ran,first_character,second_character,Cue,left_categ,centleft_categ,centright_categ,right_categ,corr_ans,trial_cond,switch_cond,cuedCharacter,corrCat,image,rep_resp.keys,rep_resp.rt,repeat_pract.thisRepN,repeat_pract.thisTrialN,repeat_pract.thisN,repeat_pract.thisIndex,repeat_pract.ran,task_resp.keys,task_resp.corr,task_loop.thisRepN,task_loop.thisTrialN,task_loop.thisN,task_loop.thisIndex,task_loop.ran,obj_category,task_resp.rt,rep_resp_2.keys,rep_resp_2.rt,repeat_task2.thisRepN,repeat_task2.thisTrialN,repeat_task2.thisN,repeat_task2.thisIndex,repeat_task2.ran
[],[],10,10,space,8.037,space,16.335,0,0,0,0,1,stimuli/slide1.png,6,2021-04-12_17h16.34.728,premceCat2_ses-01_part-01_label-phase1,2020.2.9,MacIntel,60,,,,,,,,,,,,,,,,,,,,,,,,,,,,,,,,,,,,,,,,,,,,,,,,,
,,,,,,space,23.4,0,1,1,1,1,stimuli/slide2.png,6,2021-04-12_17h16.34.728,premceCat2_ses-01_part-01_label-phase1,2020.2.9,MacIntel,60,,,,,,,,,,,,,,,,,,,,,,,,,,,,,,,,,,,,,,,,,,,,,,,,,
,,,,,,space,18.264,0,2,2,2,1,stimuli/slide3.png,6,2021-04-12_17h16.34.728,premceCat2_ses-01_part-01_label-phase1,2020.2.9,MacIntel,60,,,,,,,,,,,,,,,,,,,,,,,,,,,,,,,,,,,,,,,,,,,,,,,,,
,,,,,,space,13.166,0,3,3,3,1,stimuli/slide4.png,6,2021-04-12_17h16.34.728,premceCat2_ses-01_part-01_label-phase1,2020.2.9,MacIntel,60,,,,,,,,,,,,,,,,,,,,,,,,,,,,,,,,,,,,,,,,,,,,,,,,,
,,,,,,space,7.8,0,4,4,4,1,stimuli/slide5.png,6,2021-04-12_17h16.34.728,premceCat2_ses-01_part-01_label-phase1,2020.2.9,MacIntel,60,,,,,,,,,,,,,,,,,,,,,,,,,,,,,,,,,,,,,,,,,,,,,,,,,
,,,,,,space,7.767,0,5,5,5,1,stimuli/slide6.png,6,2021-04-12_17h16.34.728,premceCat2_ses-01_part-01_label-phase1,2020.2.9,MacIntel,60,,,,,,,,,,,,,,,,,,,,,,,,,,,,,,,,,,,,,,,,,,,,,,,,,
0,[],,,,,,,,,,,,,6,2021-04-12_17h16.34.728,premceCat2_ses-01_part-01_label-phase1,2020.2.9,MacIntel,60,space,6.996,space,12.988,3,0,2.562,0,0,0,0,0,1,stimuli/m1.jpg,stimuli/m4.jpg,2,stimuli/Stationary & school supply.png,stimuli/Vehicle.png,stimuli/Gamestoy & entertainment.png,stimuli/Clothing.png,4,1,0,stimuli/m4.jpg,Clothing,stimuli/objects/sneaker03b.jpg,,,,,,,,,,,,,,,,,,,,,,,
0,[0],,,,,,,,,,,,,6,2021-04-12_17h16.34.728,premceCat2_ses-01_part-01_label-phase1,2020.2.9,MacIntel,60,,,,,3,0,3.627,0,0,1,1,1,1,stimuli/m1.jpg,stimuli/m4.jpg,2,stimuli/Stationary & school supply.png,stimuli/Clothing.png,stimuli/Vehicle.png,stimuli/Gamestoy & entertainment.png,1,0,0,stimuli/m4.jpg,Stationary & school supply,stimuli/objects/paperclip01b.jpg,,,,,,,,,,,,,,,,,,,,,,,
0,[0],,,,,,,,,,,,,6,2021-04-12_17h16.34.728,premceCat2_ses-01_part-01_label-phase1,2020.2.9,MacIntel,60,,,,,1,0,1.445,0,0,2,2,2,1,stimuli/m1.jpg,stimuli/m4.jpg,1,stimuli/Vehicle.png,stimuli/Stationary & school supply.png,stimuli/Clothing.png,stimuli/Gamestoy & entertainment.png,2,1,0,stimuli/m1.jpg,Stationary & school supply,stimuli/objects/protractor.jpg,,,,,,,,,,,,,,,,,,,,,,,
0,"[0,0]",,,,,,,,,,,,,6,2021-04-12_17h16.34.728,premceCat2_ses-01_part-01_label-phase1,2020.2.9,MacIntel,60,,,,,1,0,2.358,0,0,3,3,3,1,stimuli/m4.jpg,stimuli/m1.jpg,1,stimuli/Stationary & school supply.png,stimuli/Vehicle.png,stimuli/Gamestoy & entertainment.png,stimuli/Clothing.png,4,1,0,stimuli/m4.jpg,Clothing,stimuli/objects/hikingshoe01.jpg,,,,,,,,,,,,,,,,,,,,,,,
0,"[0,0,0]",,,,,,,,,,,,,6,2021-04-12_17h16.34.728,premceCat2_ses-01_part-01_label-phase1,2020.2.9,MacIntel,60,,,,,4,0,2.106,0,0,4,4,4,1,stimuli/m1.jpg,stimuli/m4.jpg,1,stimuli/Clothing.png,stimuli/Stationary & school supply.png,stimuli/Vehicle.png,stimuli/Gamestoy & entertainment.png,2,1,0,stimuli/m1.jpg,Stationary & school supply,stimuli/objects/book01b.jpg,,,,,,,,,,,,,,,,,,,,,,,
1,"[0,0,0,0]",,,,,,,,,,,,,6,2021-04-12_17h16.34.728,premceCat2_ses-01_part-01_label-phase1,2020.2.9,MacIntel,60,,,,,4,1,2.225,1,0,5,5,5,1,stimuli/m4.jpg,stimuli/m1.jpg,1,stimuli/Stationary & school supply.png,stimuli/Gamestoy & entertainment.png,stimuli/Vehicle.png,stimuli/Clothing.png,4,1,0,stimuli/m4.jpg,Clothing,stimuli/objects/shoelace.jpg,,,,,,,,,,,,,,,,,,,,,,,
1,"[0,0,0,0,1]",,,,,,,,,,,,,6,2021-04-12_17h16.34.728,premceCat2_ses-01_part-01_label-phase1,2020.2.9,MacIntel,60,,,,,1,1,1.361,1,0,6,6,6,1,stimuli/m1.jpg,stimuli/m4.jpg,2,stimuli/Clothing.png,stimuli/Stationary & school supply.png,stimuli/Vehicle.png,stimuli/Gamestoy & entertainment.png,1,1,0,stimuli/m4.jpg,Clothing,stimuli/objects/moccasin.jpg,,,,,,,,,,,,,,,,,,,,,,,
0,"[0,0,0,0,1,1]",,,,,,,,,,,,,6,2021-04-12_17h16.34.728,premceCat2_ses-01_part-01_label-phase1,2020.2.9,MacIntel,60,,,,,3,0,3.332,0,0,7,7,7,1,stimuli/m1.jpg,stimuli/m4.jpg,2,stimuli/Gamestoy & entertainment.png,stimuli/Clothing.png,stimuli/Stationary & school supply.png,stimuli/Vehicle.png,2,1,0,stimuli/m4.jpg,Clothing,stimuli/objects/waders.jpg,,,,,,,,,,,,,,,,,,,,,,,
0,"[0,0,0,0,1,1,0]",,,,,,,,,,,,,6,2021-04-12_17h16.34.728,premceCat2_ses-01_part-01_label-phase1,2020.2.9,MacIntel,60,,,,,1,0,1.66,0,0,8,8,8,1,stimuli/m4.jpg,stimuli/m1.jpg,2,stimuli/Vehicle.png,stimuli/Gamestoy & entertainment.png,stimuli/Stationary & school supply.png,stimuli/Clothing.png,3,1,0,stimuli/m1.jpg,Stationary & school supply,stimuli/objects/eraser.jpg,,,,,,,,,,,,,,,,,,,,,,,
1,"[0,0,0,0,1,1,0,0]",,,,,,,,,,,,,6,2021-04-12_17h16.34.728,premceCat2_ses-01_part-01_label-phase1,2020.2.9,MacIntel,60,,,,,1,1,1.776,1,0,9,9,9,1,stimuli/m4.jpg,stimuli/m1.jpg,2,stimuli/Stationary & school supply.png,stimuli/Vehicle.png,stimuli/Clothing.png,stimuli/Gamestoy & entertainment.png,1,1,0,stimuli/m1.jpg,Stationary & school supply,stimuli/objects/fountainpen.jpg,,,,,,,,,,,,,,,,,,,,,,,
0,"[0,0,0,0,1,1,0,0,1]",,,,,,,,,,,,,6,2021-04-12_17h16.34.728,premceCat2_ses-01_part-01_label-phase1,2020.2.9,MacIntel,60,,,,,3,0,1.216,0,0,10,10,10,1,stimuli/m4.jpg,stimuli/m1.jpg,1,stimuli/Vehicle.png,stimuli/Clothing.png,stimuli/Stationary & school supply.png,stimuli/Gamestoy & entertainment.png,2,1,0,stimuli/m4.jpg,Clothing,stimuli/objects/visor.jpg,,,,,,,,,,,,,,,,,,,,,,,
0,"[0,0,0,0,1,1,0,0,1,0]",,,,,,,,,,,,,6,2021-04-12_17h16.34.728,premceCat2_ses-01_part-01_label-phase1,2020.2.9,MacIntel,60,,,,,3,0,1.812,0,0,11,11,11,1,stimuli/m4.jpg,stimuli/m1.jpg,1,stimuli/Stationary & school supply.png,stimuli/Clothing.png,stimuli/Vehicle.png,stimuli/Gamestoy & entertainment.png,2,1,0,stimuli/m4.jpg,Clothing,stimuli/objects/mitten04.jpg,,,,,,,,,,,,,,,,,,,,,,,
0,"[0,0,0,0,1,1,0,0,1,0,0]",,,,,,,,,,,,,6,2021-04-12_17h16.34.728,premceCat2_ses-01_part-01_label-phase1,2020.2.9,MacIntel,60,,,,,3,0,2.546,0,0,12,12,12,1,stimuli/m4.jpg,stimuli/m1.jpg,2,stimuli/Clothing.png,stimuli/Stationary & school supply.png,stimuli/Vehicle.png,stimuli/Gamestoy & entertainment.png,2,1,0,stimuli/m1.jpg,Stationary & school supply,stimuli/objects/notebook03a.jpg,,,,,,,,,,,,,,,,,,,,,,,
1,"[0,0,0,0,1,1,0,0,1,0,0,0]",,,,,,,,,,,,,6,2021-04-12_17h16.34.728,premceCat2_ses-01_part-01_label-phase1,2020.2.9,MacIntel,60,,,,,1,1,1.899,0,0,13,13,13,1,stimuli/m4.jpg,stimuli/m1.jpg,1,stimuli/Vehicle.png,stimuli/Clothing.png,stimuli/Gamestoy & entertainment.png,stimuli/Stationary & school supply.png,1,0,0,stimuli/m4.jpg,Vehicle,stimuli/objects/locomotive.jpg,,,,,,,,,,,,,,,,,,,,,,,
0,"[0,0,0,0,1,1,0,0,1,0,0,0]",,,,,,,,,,,,,6,2021-04-12_17h16.34.728,premceCat2_ses-01_part-01_label-phase1,2020.2.9,MacIntel,60,,,,,1,0,1.572,0,0,14,14,14,1,stimuli/m4.jpg,stimuli/m1.jpg,2,stimuli/Gamestoy & entertainment.png,stimuli/Stationary & school supply.png,stimuli/Vehicle.png,stimuli/Clothing.png,2,1,0,stimuli/m1.jpg,Stationary & school supply,stimuli/objects/mechanicalpencil02.jpg,,,,,,,,,,,,,,,,,,,,,,,
0,"[0,0,0,0,1,1,0,0,1,0,0,0,0]",,,,,,,,,,,,,6,2021-04-12_17h16.34.728,premceCat2_ses-01_part-01_label-phase1,2020.2.9,MacIntel,60,,,,,3,0,1.911,0,0,15,15,15,1,stimuli/m4.jpg,stimuli/m1.jpg,1,stimuli/Gamestoy & entertainment.png,stimuli/Clothing.png,stimuli/Stationary & school supply.png,stimuli/Vehicle.png,1,0,0,stimuli/m4.jpg,Gamestoy & entertainment,stimuli/objects/rattle.jpg,,,,,,,,,,,,,,,,,,,,,,,
1,"[0,0,0,0,1,1,0,0,1,0,0,0,0]",,,,,,,,,,,,,6,2021-04-12_17h16.34.728,premceCat2_ses-01_part-01_label-phase1,2020.2.9,MacIntel,60,,,,,4,1,2.975,1,0,16,16,16,1,stimuli/m4.jpg,stimuli/m1.jpg,1,stimuli/Gamestoy & entertainment.png,stimuli/Vehicle.png,stimuli/Stationary & school supply.png,stimuli/Clothing.png,4,1,0,stimuli/m4.jpg,Clothing,stimuli/objects/sheriffhat.jpg,,,,,,,,,,,,,,,,,,,,,,,
0,"[0,0,0,0,1,1,0,0,1,0,0,0,0,1]",,,,,,,,,,,,,6,2021-04-12_17h16.34.728,premceCat2_ses-01_part-01_label-phase1,2020.2.9,MacIntel,60,,,,,1,0,1.808,0,0,17,17,17,1,stimuli/m4.jpg,stimuli/m1.jpg,1,stimuli/Gamestoy & entertainment.png,stimuli/Clothing.png,stimuli/Vehicle.png,stimuli/Stationary & school supply.png,2,1,0,stimuli/m4.jpg,Clothing,stimuli/objects/jeans01.jpg,,,,,,,,,,,,,,,,,,,,,,,
1,"[0,0,0,0,1,1,0,0,1,0,0,0,0,1,0]",,,,,,,,,,,,,6,2021-04-12_17h16.34.728,premceCat2_ses-01_part-01_label-phase1,2020.2.9,MacIntel,60,,,,,4,1,1.861,1,0,18,18,18,1,stimuli/m1.jpg,stimuli/m4.jpg,2,stimuli/Stationary & school supply.png,stimuli/Gamestoy & entertainment.png,stimuli/Vehicle.png,stimuli/Clothing.png,4,1,0,stimuli/m4.jpg,Clothing,stimuli/objects/bowtie.jpg,,,,,,,,,,,,,,,,,,,,,,,
1,"[0,0,0,0,1,1,0,0,1,0,0,0,0,1,0,1]",,,,,,,,,,,,,6,2021-04-12_17h16.34.728,premceCat2_ses-01_part-01_label-phase1,2020.2.9,MacIntel,60,,,,,3,1,1.694,1,0,19,19,19,1,stimuli/m1.jpg,stimuli/m4.jpg,1,stimuli/Stationary & school supply.png,stimuli/Clothing.png,stimuli/Vehicle.png,stimuli/Gamestoy & entertainment.png,3,0,0,stimuli/m1.jpg,Vehicle,stimuli/objects/porsche.jpg,,,,,,,,,,,,,,,,,,,,,,,
0,"[0,0,0,0,1,1,0,0,1,0,0,0,0,1,0,1]",,,,,,,,,,,,,6,2021-04-12_17h16.34.728,premceCat2_ses-01_part-01_label-phase1,2020.2.9,MacIntel,60,,,,,1,0,1.142,1,0,20,20,20,1,stimuli/m1.jpg,stimuli/m4.jpg,1,stimuli/Vehicle.png,stimuli/Gamestoy & entertainment.png,stimuli/Clothing.png,stimuli/Stationary & school supply.png,3,0,0,stimuli/m1.jpg,Clothing,stimuli/objects/sandal.jpg,,,,,,,,,,,,,,,,,,,,,,,
0,"[0,0,0,0,1,1,0,0,1,0,0,0,0,1,0,1]",,,,,,,,,,,,,6,2021-04-12_17h16.34.728,premceCat2_ses-01_part-01_label-phase1,2020.2.9,MacIntel,60,,,,,3,0,1.43,0,0,21,21,21,1,stimuli/m4.jpg,stimuli/m1.jpg,2,stimuli/Vehicle.png,stimuli/Clothing.png,stimuli/Gamestoy & entertainment.png,stimuli/Stationary & school supply.png,4,1,0,stimuli/m1.jpg,Stationary & school supply,stimuli/objects/chalkboard01.jpg,,,,,,,,,,,,,,,,,,,,,,,
0,"[0,0,0,0,1,1,0,0,1,0,0,0,0,1,0,1,0]",,,,,,,,,,,,,6,2021-04-12_17h16.34.728,premceCat2_ses-01_part-01_label-phase1,2020.2.9,MacIntel,60,,,,,2,0,1.377,0,0,22,22,22,1,stimuli/m4.jpg,stimuli/m1.jpg,1,stimuli/Gamestoy & entertainment.png,stimuli/Stationary & school supply.png,stimuli/Clothing.png,stimuli/Vehicle.png,3,1,0,stimuli/m4.jpg,Clothing,stimuli/objects/tie02.jpg,,,,,,,,,,,,,,,,,,,,,,,
0,"[0,0,0,0,1,1,0,0,1,0,0,0,0,1,0,1,0,0]",,,,,,,,,,,,,6,2021-04-12_17h16.34.728,premceCat2_ses-01_part-01_label-phase1,2020.2.9,MacIntel,60,,,,,2,0,0.461,0,0,23,23,23,1,stimuli/m4.jpg,stimuli/m1.jpg,2,stimuli/Vehicle.png,stimuli/Gamestoy & entertainment.png,stimuli/Clothing.png,stimuli/Stationary & school supply.png,4,1,0,stimuli/m1.jpg,Stationary & school supply,stimuli/objects/papertray.jpg,,,,,,,,,,,,,,,,,,,,,,,
0,"[0,0,0,0,1,1,0,0,1,0,0,0,0,1,0,1,0,0,0]",,,,,,,,,,,,,6,2021-04-12_17h16.34.728,premceCat2_ses-01_part-01_label-phase1,2020.2.9,MacIntel,60,,,,,2,0,1.498,0,0,24,24,24,1,stimuli/m4.jpg,stimuli/m1.jpg,1,stimuli/Clothing.png,stimuli/Gamestoy & entertainment.png,stimuli/Vehicle.png,stimuli/Stationary & school supply.png,1,1,0,stimuli/m4.jpg,Clothing,stimuli/objects/shirt02.jpg,,,,,,,,,,,,,,,,,,,,,,,
0,"[0,0,0,0,1,1,0,0,1,0,0,0,0,1,0,1,0,0,0,0]",,,,,,,,,,,,,6,2021-04-12_17h16.34.728,premceCat2_ses-01_part-01_label-phase1,2020.2.9,MacIntel,60,,,,,1,0,2.326,0,0,25,25,25,1,stimuli/m4.jpg,stimuli/m1.jpg,2,stimuli/Vehicle.png,stimuli/Stationary & school supply.png,stimuli/Gamestoy & entertainment.png,stimuli/Clothing.png,2,1,0,stimuli/m1.jpg,Stationary & school supply,stimuli/objects/pen04b.jpg,,,,,,,,,,,,,,,,,,,,,,,
0,"[0,0,0,0,1,1,0,0,1,0,0,0,0,1,0,1,0,0,0,0,0]",,,,,,,,,,,,,6,2021-04-12_17h16.34.728,premceCat2_ses-01_part-01_label-phase1,2020.2.9,MacIntel,60,,,,,1,0,2.205,0,0,26,26,26,1,stimuli/m4.jpg,stimuli/m1.jpg,2,stimuli/Clothing.png,stimuli/Gamestoy & entertainment.png,stimuli/Vehicle.png,stimuli/Stationary & school supply.png,4,1,0,stimuli/m1.jpg,Stationary & school supply,stimuli/objects/divider02.jpg,,,,,,,,,,,,,,,,,,,,,,,
0,"[0,0,0,0,1,1,0,0,1,0,0,0,0,1,0,1,0,0,0,0,0,0]",,,,,,,,,,,,,6,2021-04-12_17h16.34.728,premceCat2_ses-01_part-01_label-phase1,2020.2.9,MacIntel,60,,,,,1,0,2.306,0,0,27,27,27,1,stimuli/m4.jpg,stimuli/m1.jpg,1,stimuli/Vehicle.png,stimuli/Gamestoy & entertainment.png,stimuli/Clothing.png,stimuli/Stationary & school supply.png,4,0,0,stimuli/m4.jpg,Stationary & school supply,stimuli/objects/expandablefolder03a.jpg,,,,,,,,,,,,,,,,,,,,,,,
1,"[0,0,0,0,1,1,0,0,1,0,0,0,0,1,0,1,0,0,0,0,0,0]",,,,,,,,,,,,,6,2021-04-12_17h16.34.728,premceCat2_ses-01_part-01_label-phase1,2020.2.9,MacIntel,60,,,,,3,1,3.247,1,0,28,28,28,1,stimuli/m1.jpg,stimuli/m4.jpg,2,stimuli/Vehicle.png,stimuli/Stationary & school supply.png,stimuli/Clothing.png,stimuli/Gamestoy & entertainment.png,3,1,0,stimuli/m4.jpg,Clothing,stimuli/objects/sock01a.jpg,,,,,,,,,,,,,,,,,,,,,,,
1,"[0,0,0,0,1,1,0,0,1,0,0,0,0,1,0,1,0,0,0,0,0,0,1]",,,,,,,,,,,,,6,2021-04-12_17h16.34.728,premceCat2_ses-01_part-01_label-phase1,2020.2.9,MacIntel,60,,,,,4,1,1.514,1,0,29,29,29,1,stimuli/m1.jpg,stimuli/m4.jpg,1,stimuli/Gamestoy & entertainment.png,stimuli/Vehicle.png,stimuli/Clothing.png,stimuli/Stationary & school supply.png,4,1,0,stimuli/m1.jpg,Stationary & school supply,stimuli/objects/pencilsharpener02a.jpg,,,,,,,,,,,,,,,,,,,,,,,
0,"[0,0,0,0,1,1,0,0,1,0,0,0,0,1,0,1,0,0,0,0,0,0,1,1]",,,,,,,,,,,,,6,2021-04-12_17h16.34.728,premceCat2_ses-01_part-01_label-phase1,2020.2.9,MacIntel,60,,,,,4,0,1.193,1,0,30,30,30,1,stimuli/m4.jpg,stimuli/m1.jpg,2,stimuli/Clothing.png,stimuli/Vehicle.png,stimuli/Gamestoy & entertainment.png,stimuli/Stationary & school supply.png,3,0,0,stimuli/m1.jpg,Gamestoy & entertainment,stimuli/objects/interlockingbuildingblock03b.jpg,,,,,,,,,,,,,,,,,,,,,,,
1,"[0,0,0,0,1,1,0,0,1,0,0,0,0,1,0,1,0,0,0,0,0,0,1,1]",,,,,,,,,,,,,6,2021-04-12_17h16.34.728,premceCat2_ses-01_part-01_label-phase1,2020.2.9,MacIntel,60,,,,,3,1,1.658,1,0,31,31,31,1,stimuli/m4.jpg,stimuli/m1.jpg,2,stimuli/Clothing.png,stimuli/Gamestoy & entertainment.png,stimuli/Stationary & school supply.png,stimuli/Vehicle.png,3,1,0,stimuli/m1.jpg,Stationary & school supply,stimuli/objects/scotchtape.jpg,,,,,,,,,,,,,,,,,,,,,,,
0,"[0,0,0,0,1,1,0,0,1,0,0,0,0,1,0,1,0,0,0,0,0,0,1,1,1]",,,,,,,,,,,,,6,2021-04-12_17h16.34.728,premceCat2_ses-01_part-01_label-phase1,2020.2.9,MacIntel,60,,,,,1,0,1.723,1,0,32,32,32,1,stimuli/m4.jpg,stimuli/m1.jpg,2,stimuli/Stationary & school supply.png,stimuli/Vehicle.png,stimuli/Gamestoy & entertainment.png,stimuli/Clothing.png,2,0,0,stimuli/m1.jpg,Vehicle,stimuli/objects/mailtruck.jpg,,,,,,,,,,,,,,,,,,,,,,,
1,"[0,0,0,0,1,1,0,0,1,0,0,0,0,1,0,1,0,0,0,0,0,0,1,1,1]",,,,,,,,,,,,,6,2021-04-12_17h16.34.728,premceCat2_ses-01_part-01_label-phase1,2020.2.9,MacIntel,60,,,,,3,1,2.109,1,0,33,33,33,1,stimuli/m1.jpg,stimuli/m4.jpg,2,stimuli/Stationary & school supply.png,stimuli/Vehicle.png,stimuli/Clothing.png,stimuli/Gamestoy & entertainment.png,3,1,0,stimuli/m4.jpg,Clothing,stimuli/objects/flipflop01b.jpg,,,,,,,,,,,,,,,,,,,,,,,
1,"[0,0,0,0,1,1,0,0,1,0,0,0,0,1,0,1,0,0,0,0,0,0,1,1,1,1]",,,,,,,,,,,,,6,2021-04-12_17h16.34.728,premceCat2_ses-01_part-01_label-phase1,2020.2.9,MacIntel,60,,,,,2,1,1.274,1,0,34,34,34,1,stimuli/m1.jpg,stimuli/m4.jpg,2,stimuli/Vehicle.png,stimuli/Clothing.png,stimuli/Stationary & school supply.png,stimuli/Gamestoy & entertainment.png,2,1,0,stimuli/m4.jpg,Clothing,stimuli/objects/witchhat.jpg,,,,,,,,,,,,,,,,,,,,,,,
1,"[0,0,0,0,1,1,0,0,1,0,0,0,0,1,0,1,0,0,0,0,0,0,1,1,1,1,1]",,,,,,,,,,,,,6,2021-04-12_17h16.34.728,premceCat2_ses-01_part-01_label-phase1,2020.2.9,MacIntel,60,,,,,4,1,1.838,1,0,35,35,35,1,stimuli/m1.jpg,stimuli/m4.jpg,1,stimuli/Clothing.png,stimuli/Vehicle.png,stimuli/Gamestoy & entertainment.png,stimuli/Stationary & school supply.png,4,1,0,stimuli/m1.jpg,Stationary & school supply,stimuli/objects/chalk.jpg,,,,,,,,,,,,,,,,,,,,,,,
1,"[0,0,0,0,1,1,0,0,1,0,0,0,0,1,0,1,0,0,0,0,0,0,1,1,1,1,1,1]",,,,,,,,,,,,,6,2021-04-12_17h16.34.728,premceCat2_ses-01_part-01_label-phase1,2020.2.9,MacIntel,60,,,,,4,1,1.363,1,0,36,36,36,1,stimuli/m4.jpg,stimuli/m1.jpg,2,stimuli/Gamestoy & entertainment.png,stimuli/Vehicle.png,stimuli/Clothing.png,stimuli/Stationary & school supply.png,4,1,0,stimuli/m1.jpg,Stationary & school supply,stimuli/objects/stapleremover.jpg,,,,,,,,,,,,,,,,,,,,,,,
1,"[0,0,0,0,1,1,0,0,1,0,0,0,0,1,0,1,0,0,0,0,0,0,1,1,1,1,1,1,1]",,,,,,,,,,,,,6,2021-04-12_17h16.34.728,premceCat2_ses-01_part-01_label-phase1,2020.2.9,MacIntel,60,,,,,2,1,1.691,1,0,37,37,37,1,stimuli/m4.jpg,stimuli/m1.jpg,2,stimuli/Clothing.png,stimuli/Stationary & school supply.png,stimuli/Gamestoy & entertainment.png,stimuli/Vehicle.png,2,1,0,stimuli/m1.jpg,Stationary & school supply,stimuli/objects/highlighter02b.jpg,,,,,,,,,,,,,,,,,,,,,,,
,,,,,,,,,,,,,,6,2021-04-12_17h16.34.728,premceCat2_ses-01_part-01_label-phase1,2020.2.9,MacIntel,60,,,,,,,,,,,,,,,,,,,,,,,,,,,n,9.802,0,0,0,0,1,,,,,,,,,,,,,,,,
0,"[0,0,0,0,1,1,0,0,1,0,0,0,0,1,0,1,0,0,0,0,0,0,1,1,1,1,1,1,1,1]",,,,,,,,,,,,,6,2021-04-12_17h16.34.728,premceCat2_ses-01_part-01_label-phase1,2020.2.9,MacIntel,60,,,,,,,,0,,,,,,stimuli/m2.jpg,stimuli/m5.jpg,2,stimuli/Outdoor activity & sport item.png,stimuli/Hand labour tool & accessory.png,stimuli/Electronic device & accessory.png,stimuli/Kitchen & utensil.png,2,1,1,stimuli/m5.jpg,,stimuli/objects/jumpingjack.jpg,,,,,,,,,0,0,0,0,0,1,Hand labour tool & accessory,,,,,,,,
0,"[0,0,0,0,1,1,0,0,1,0,0,0,0,1,0,1,0,0,0,0,0,0,1,1,1,1,1,1,1,1,0]",,,,,,,,,,,,,6,2021-04-12_17h16.34.728,premceCat2_ses-01_part-01_label-phase1,2020.2.9,MacIntel,60,,,,,,,,0,,,,,,stimuli/m2.jpg,stimuli/m5.jpg,2,stimuli/Hand labour tool & accessory.png,stimuli/Outdoor activity & sport item.png,stimuli/Electronic device & accessory.png,stimuli/Kitchen & utensil.png,1,1,1,stimuli/m5.jpg,,stimuli/objects/boxcutter03a.jpg,,,,,,,,3,0,0,1,1,1,1,Hand labour tool & accessory,1.194,,,,,,,
0,"[0,0,0,0,1,1,0,0,1,0,0,0,0,1,0,1,0,0,0,0,0,0,1,1,1,1,1,1,1,1,0,0]",,,,,,,,,,,,,6,2021-04-12_17h16.34.728,premceCat2_ses-01_part-01_label-phase1,2020.2.9,MacIntel,60,,,,,,,,0,,,,,,stimuli/m2.jpg,stimuli/m5.jpg,1,stimuli/Hand labour tool & accessory.png,stimuli/Kitchen & utensil.png,stimuli/Electronic device & accessory.png,stimuli/Outdoor activity & sport item.png,2,0,1,stimuli/m2.jpg,,stimuli/objects/huntingknife.jpg,,,,,,,,1,0,0,2,2,2,1,Kitchen & utensil,1.126,,,,,,,
0,"[0,0,0,0,1,1,0,0,1,0,0,0,0,1,0,1,0,0,0,0,0,0,1,1,1,1,1,1,1,1,0,0]",,,,,,,,,,,,,6,2021-04-12_17h16.34.728,premceCat2_ses-01_part-01_label-phase1,2020.2.9,MacIntel,60,,,,,,,,0,,,,,,stimuli/m5.jpg,stimuli/m2.jpg,2,stimuli/Kitchen & utensil.png,stimuli/Electronic device & accessory.png,stimuli/Hand labour tool & accessory.png,stimuli/Outdoor activity & sport item.png,4,1,1,stimuli/m2.jpg,,stimuli/objects/footballhelmet.jpg,,,,,,,,1,0,0,3,3,3,1,Outdoor activity & sport item,1.457,,,,,,,
0,"[0,0,0,0,1,1,0,0,1,0,0,0,0,1,0,1,0,0,0,0,0,0,1,1,1,1,1,1,1,1,0,0,0]",,,,,,,,,,,,,6,2021-04-12_17h16.34.728,premceCat2_ses-01_part-01_label-phase1,2020.2.9,MacIntel,60,,,,,,,,0,,,,,,stimuli/m5.jpg,stimuli/m2.jpg,1,stimuli/Outdoor activity & sport item.png,stimuli/Hand labour tool & accessory.png,stimuli/Kitchen & utensil.png,stimuli/Electronic device & accessory.png,2,1,1,stimuli/m5.jpg,,stimuli/objects/handrake01a.jpg,,,,,,,,4,0,0,4,4,4,1,Hand labour tool & accessory,1.745,,,,,,,
0,"[0,0,0,0,1,1,0,0,1,0,0,0,0,1,0,1,0,0,0,0,0,0,1,1,1,1,1,1,1,1,0,0,0,0]",,,,,,,,,,,,,6,2021-04-12_17h16.34.728,premceCat2_ses-01_part-01_label-phase1,2020.2.9,MacIntel,60,,,,,,,,0,,,,,,stimuli/m2.jpg,stimuli/m5.jpg,1,stimuli/Outdoor activity & sport item.png,stimuli/Electronic device & accessory.png,stimuli/Hand labour tool & accessory.png,stimuli/Kitchen & utensil.png,1,1,1,stimuli/m2.jpg,,stimuli/objects/crosscountryski.jpg,,,,,,,,4,0,0,5,5,5,1,Outdoor activity & sport item,2.347,,,,,,,
0,"[0,0,0,0,1,1,0,0,1,0,0,0,0,1,0,1,0,0,0,0,0,0,1,1,1,1,1,1,1,1,0,0,0,0,0]",,,,,,,,,,,,,6,2021-04-12_17h16.34.728,premceCat2_ses-01_part-01_label-phase1,2020.2.9,MacIntel,60,,,,,,,,0,,,,,,stimuli/m5.jpg,stimuli/m2.jpg,2,stimuli/Hand labour tool & accessory.png,stimuli/Electronic device & accessory.png,stimuli/Outdoor activity & sport item.png,stimuli/Kitchen & utensil.png,2,0,1,stimuli/m2.jpg,,stimuli/objects/television.jpg,,,,,,,,3,0,0,6,6,6,1,Electronic device & accessory,1.598,,,,,,,
0,"[0,0,0,0,1,1,0,0,1,0,0,0,0,1,0,1,0,0,0,0,0,0,1,1,1,1,1,1,1,1,0,0,0,0,0]",,,,,,,,,,,,,6,2021-04-12_17h16.34.728,premceCat2_ses-01_part-01_label-phase1,2020.2.9,MacIntel,60,,,,,,,,0,,,,,,stimuli/m5.jpg,stimuli/m2.jpg,2,stimuli/Kitchen & utensil.png,stimuli/Outdoor activity & sport item.png,stimuli/Hand labour tool & accessory.png,stimuli/Electronic device & accessory.png,2,1,1,stimuli/m2.jpg,,stimuli/objects/hose.jpg,,,,,,,,4,0,0,7,7,7,1,Outdoor activity & sport item,2.594,,,,,,,
0,"[0,0,0,0,1,1,0,0,1,0,0,0,0,1,0,1,0,0,0,0,0,0,1,1,1,1,1,1,1,1,0,0,0,0,0,0]",,,,,,,,,,,,,6,2021-04-12_17h16.34.728,premceCat2_ses-01_part-01_label-phase1,2020.2.9,MacIntel,60,,,,,,,,0,,,,,,stimuli/m2.jpg,stimuli/m5.jpg,2,stimuli/Hand labour tool & accessory.png,stimuli/Electronic device & accessory.png,stimuli/Kitchen & utensil.png,stimuli/Outdoor activity & sport item.png,1,1,1,stimuli/m5.jpg,,stimuli/objects/solderingiron.jpg,,,,,,,,2,0,0,8,8,8,1,Hand labour tool & accessory,1.623,,,,,,,
0,"[0,0,0,0,1,1,0,0,1,0,0,0,0,1,0,1,0,0,0,0,0,0,1,1,1,1,1,1,1,1,0,0,0,0,0,0,0]",,,,,,,,,,,,,6,2021-04-12_17h16.34.728,premceCat2_ses-01_part-01_label-phase1,2020.2.9,MacIntel,60,,,,,,,,0,,,,,,stimuli/m2.jpg,stimuli/m5.jpg,2,stimuli/Electronic device & accessory.png,stimuli/Kitchen & utensil.png,stimuli/Hand labour tool & accessory.png,stimuli/Outdoor activity & sport item.png,3,1,1,stimuli/m5.jpg,,stimuli/objects/gavel.jpg,,,,,,,,1,0,0,9,9,9,1,Hand labour tool & accessory,2.127,,,,,,,
1,"[0,0,0,0,1,1,0,0,1,0,0,0,0,1,0,1,0,0,0,0,0,0,1,1,1,1,1,1,1,1,0,0,0,0,0,0,0,0]",,,,,,,,,,,,,6,2021-04-12_17h16.34.728,premceCat2_ses-01_part-01_label-phase1,2020.2.9,MacIntel,60,,,,,,,,1,,,,,,stimuli/m5.jpg,stimuli/m2.jpg,1,stimuli/Kitchen & utensil.png,stimuli/Electronic device & accessory.png,stimuli/Outdoor activity & sport item.png,stimuli/Hand labour tool & accessory.png,4,1,1,stimuli/m5.jpg,,stimuli/objects/boxcutter03a.jpg,,,,,,,,4,1,0,10,10,10,1,Hand labour tool & accessory,2.325,,,,,,,
0,"[0,0,0,0,1,1,0,0,1,0,0,0,0,1,0,1,0,0,0,0,0,0,1,1,1,1,1,1,1,1,0,0,0,0,0,0,0,0,1]",,,,,,,,,,,,,6,2021-04-12_17h16.34.728,premceCat2_ses-01_part-01_label-phase1,2020.2.9,MacIntel,60,,,,,,,,1,,,,,,stimuli/m2.jpg,stimuli/m5.jpg,2,stimuli/Electronic device & accessory.png,stimuli/Hand labour tool & accessory.png,stimuli/Outdoor activity & sport item.png,stimuli/Kitchen & utensil.png,1,0,1,stimuli/m5.jpg,,stimuli/objects/walkietalkie.jpg,,,,,,,,2,0,0,11,11,11,1,Electronic device & accessory,1.657,,,,,,,
1,"[0,0,0,0,1,1,0,0,1,0,0,0,0,1,0,1,0,0,0,0,0,0,1,1,1,1,1,1,1,1,0,0,0,0,0,0,0,0,1]",,,,,,,,,,,,,6,2021-04-12_17h16.34.728,premceCat2_ses-01_part-01_label-phase1,2020.2.9,MacIntel,60,,,,,,,,1,,,,,,stimuli/m2.jpg,stimuli/m5.jpg,1,stimuli/Kitchen & utensil.png,stimuli/Electronic device & accessory.png,stimuli/Hand labour tool & accessory.png,stimuli/Outdoor activity & sport item.png,1,0,1,stimuli/m2.jpg,,stimuli/objects/coffeemaker.jpg,,,,,,,,1,1,0,12,12,12,1,Kitchen & utensil,1.29,,,,,,,
0,"[0,0,0,0,1,1,0,0,1,0,0,0,0,1,0,1,0,0,0,0,0,0,1,1,1,1,1,1,1,1,0,0,0,0,0,0,0,0,1]",,,,,,,,,,,,,6,2021-04-12_17h16.34.728,premceCat2_ses-01_part-01_label-phase1,2020.2.9,MacIntel,60,,,,,,,,0,,,,,,stimuli/m5.jpg,stimuli/m2.jpg,2,stimuli/Outdoor activity & sport item.png,stimuli/Electronic device & accessory.png,stimuli/Kitchen & utensil.png,stimuli/Hand labour tool & accessory.png,1,1,1,stimuli/m2.jpg,,stimuli/objects/bicycle.jpg,,,,,,,,3,0,0,13,13,13,1,Outdoor activity & sport item,1.706,,,,,,,
1,"[0,0,0,0,1,1,0,0,1,0,0,0,0,1,0,1,0,0,0,0,0,0,1,1,1,1,1,1,1,1,0,0,0,0,0,0,0,0,1,0]",,,,,,,,,,,,,6,2021-04-12_17h16.34.728,premceCat2_ses-01_part-01_label-phase1,2020.2.9,MacIntel,60,,,,,,,,1,,,,,,stimuli/m2.jpg,stimuli/m5.jpg,1,stimuli/Kitchen & utensil.png,stimuli/Outdoor activity & sport item.png,stimuli/Electronic device & accessory.png,stimuli/Hand labour tool & accessory.png,2,1,1,stimuli/m2.jpg,,stimuli/objects/punchingbag.jpg,,,,,,,,2,1,0,14,14,14,1,Outdoor activity & sport item,1.678,,,,,,,
0,"[0,0,0,0,1,1,0,0,1,0,0,0,0,1,0,1,0,0,0,0,0,0,1,1,1,1,1,1,1,1,0,0,0,0,0,0,0,0,1,0,1]",,,,,,,,,,,,,6,2021-04-12_17h16.34.728,premceCat2_ses-01_part-01_label-phase1,2020.2.9,MacIntel,60,,,,,,,,1,,,,,,stimuli/m5.jpg,stimuli/m2.jpg,1,stimuli/Electronic device & accessory.png,stimuli/Outdoor activity & sport item.png,stimuli/Hand labour tool & accessory.png,stimuli/Kitchen & utensil.png,2,0,1,stimuli/m5.jpg,,stimuli/objects/footballhelmet.jpg,,,,,,,,3,0,0,15,15,15,1,Outdoor activity & sport item,1.875,,,,,,,
1,"[0,0,0,0,1,1,0,0,1,0,0,0,0,1,0,1,0,0,0,0,0,0,1,1,1,1,1,1,1,1,0,0,0,0,0,0,0,0,1,0,1]",,,,,,,,,,,,,6,2021-04-12_17h16.34.728,premceCat2_ses-01_part-01_label-phase1,2020.2.9,MacIntel,60,,,,,,,,1,,,,,,stimuli/m5.jpg,stimuli/m2.jpg,1,stimuli/Kitchen & utensil.png,stimuli/Hand labour tool & accessory.png,stimuli/Electronic device & accessory.png,stimuli/Outdoor activity & sport item.png,4,0,1,stimuli/m5.jpg,,stimuli/objects/swing.jpg,,,,,,,,4,1,0,16,16,16,1,Outdoor activity & sport item,2.145,,,,,,,
0,"[0,0,0,0,1,1,0,0,1,0,0,0,0,1,0,1,0,0,0,0,0,0,1,1,1,1,1,1,1,1,0,0,0,0,0,0,0,0,1,0,1]",,,,,,,,,,,,,6,2021-04-12_17h16.34.728,premceCat2_ses-01_part-01_label-phase1,2020.2.9,MacIntel,60,,,,,,,,0,,,,,,stimuli/m2.jpg,stimuli/m5.jpg,2,stimuli/Hand labour tool & accessory.png,stimuli/Electronic device & accessory.png,stimuli/Outdoor activity & sport item.png,stimuli/Kitchen & utensil.png,1,1,1,stimuli/m5.jpg,,stimuli/objects/pitchfork.jpg,,,,,,,,3,0,0,17,17,17,1,Hand labour tool & accessory,1.598,,,,,,,
0,"[0,0,0,0,1,1,0,0,1,0,0,0,0,1,0,1,0,0,0,0,0,0,1,1,1,1,1,1,1,1,0,0,0,0,0,0,0,0,1,0,1,0]",,,,,,,,,,,,,6,2021-04-12_17h16.34.728,premceCat2_ses-01_part-01_label-phase1,2020.2.9,MacIntel,60,,,,,,,,0,,,,,,stimuli/m5.jpg,stimuli/m2.jpg,2,stimuli/Hand labour tool & accessory.png,stimuli/Outdoor activity & sport item.png,stimuli/Electronic device & accessory.png,stimuli/Kitchen & utensil.png,2,1,1,stimuli/m2.jpg,,stimuli/objects/bicycle.jpg,,,,,,,,4,0,0,18,18,18,1,Outdoor activity & sport item,1.931,,,,,,,
0,"[0,0,0,0,1,1,0,0,1,0,0,0,0,1,0,1,0,0,0,0,0,0,1,1,1,1,1,1,1,1,0,0,0,0,0,0,0,0,1,0,1,0,0]",,,,,,,,,,,,,6,2021-04-12_17h16.34.728,premceCat2_ses-01_part-01_label-phase1,2020.2.9,MacIntel,60,,,,,,,,0,,,,,,stimuli/m5.jpg,stimuli/m2.jpg,1,stimuli/Hand labour tool & accessory.png,stimuli/Outdoor activity & sport item.png,stimuli/Kitchen & utensil.png,stimuli/Electronic device & accessory.png,3,0,1,stimuli/m5.jpg,,stimuli/objects/freezer02.jpg,,,,,,,,2,0,0,19,19,19,1,Kitchen & utensil,1.566,,,,,,,
0,"[0,0,0,0,1,1,0,0,1,0,0,0,0,1,0,1,0,0,0,0,0,0,1,1,1,1,1,1,1,1,0,0,0,0,0,0,0,0,1,0,1,0,0]",,,,,,,,,,,,,6,2021-04-12_17h16.34.728,premceCat2_ses-01_part-01_label-phase1,2020.2.9,MacIntel,60,,,,,,,,0,,,,,,stimuli/m2.jpg,stimuli/m5.jpg,1,stimuli/Kitchen & utensil.png,stimuli/Hand labour tool & accessory.png,stimuli/Electronic device & accessory.png,stimuli/Outdoor activity & sport item.png,2,0,1,stimuli/m2.jpg,,stimuli/objects/handrake01a.jpg,,,,,,,,1,0,0,20,20,20,1,Hand labour tool & accessory,1.714,,,,,,,
0,"[0,0,0,0,1,1,0,0,1,0,0,0,0,1,0,1,0,0,0,0,0,0,1,1,1,1,1,1,1,1,0,0,0,0,0,0,0,0,1,0,1,0,0]",,,,,,,,,,,,,6,2021-04-12_17h16.34.728,premceCat2_ses-01_part-01_label-phase1,2020.2.9,MacIntel,60,,,,,,,,0,,,,,,stimuli/m5.jpg,stimuli/m2.jpg,1,stimuli/Outdoor activity & sport item.png,stimuli/Electronic device & accessory.png,stimuli/Hand labour tool & accessory.png,stimuli/Kitchen & utensil.png,3,1,1,stimuli/m5.jpg,,stimuli/objects/jumpingjack.jpg,,,,,,,,1,0,0,21,21,21,1,Hand labour tool & accessory,1.591,,,,,,,
0,"[0,0,0,0,1,1,0,0,1,0,0,0,0,1,0,1,0,0,0,0,0,0,1,1,1,1,1,1,1,1,0,0,0,0,0,0,0,0,1,0,1,0,0,0]",,,,,,,,,,,,,6,2021-04-12_17h16.34.728,premceCat2_ses-01_part-01_label-phase1,2020.2.9,MacIntel,60,,,,,,,,0,,,,,,stimuli/m5.jpg,stimuli/m2.jpg,2,stimuli/Electronic device & accessory.png,stimuli/Kitchen & utensil.png,stimuli/Hand labour tool & accessory.png,stimuli/Outdoor activity & sport item.png,4,1,1,stimuli/m2.jpg,,stimuli/objects/bicycle.jpg,,,,,,,,2,0,0,22,22,22,1,Outdoor activity & sport item,1.095,,,,,,,
0,"[0,0,0,0,1,1,0,0,1,0,0,0,0,1,0,1,0,0,0,0,0,0,1,1,1,1,1,1,1,1,0,0,0,0,0,0,0,0,1,0,1,0,0,0,0]",,,,,,,,,,,,,6,2021-04-12_17h16.34.728,premceCat2_ses-01_part-01_label-phase1,2020.2.9,MacIntel,60,,,,,,,,0,,,,,,stimuli/m5.jpg,stimuli/m2.jpg,1,stimuli/Hand labour tool & accessory.png,stimuli/Outdoor activity & sport item.png,stimuli/Electronic device & accessory.png,stimuli/Kitchen & utensil.png,1,1,1,stimuli/m5.jpg,,stimuli/objects/jumpingjack.jpg,,,,,,,,3,0,0,23,23,23,1,Hand labour tool & accessory,1.874,,,,,,,
0,"[0,0,0,0,1,1,0,0,1,0,0,0,0,1,0,1,0,0,0,0,0,0,1,1,1,1,1,1,1,1,0,0,0,0,0,0,0,0,1,0,1,0,0,0,0,0]",,,,,,,,,,,,,6,2021-04-12_17h16.34.728,premceCat2_ses-01_part-01_label-phase1,2020.2.9,MacIntel,60,,,,,,,,0,,,,,,stimuli/m2.jpg,stimuli/m5.jpg,2,stimuli/Outdoor activity & sport item.png,stimuli/Electronic device & accessory.png,stimuli/Hand labour tool & accessory.png,stimuli/Kitchen & utensil.png,4,0,1,stimuli/m5.jpg,,stimuli/objects/jug.jpg,,,,,,,,2,0,0,24,24,24,1,Kitchen & utensil,1.246,,,,,,,
1,"[0,0,0,0,1,1,0,0,1,0,0,0,0,1,0,1,0,0,0,0,0,0,1,1,1,1,1,1,1,1,0,0,0,0,0,0,0,0,1,0,1,0,0,0,0,0]",,,,,,,,,,,,,6,2021-04-12_17h16.34.728,premceCat2_ses-01_part-01_label-phase1,2020.2.9,MacIntel,60,,,,,,,,1,,,,,,stimuli/m2.jpg,stimuli/m5.jpg,1,stimuli/Electronic device & accessory.png,stimuli/Hand labour tool & accessory.png,stimuli/Kitchen & utensil.png,stimuli/Outdoor activity & sport item.png,4,1,1,stimuli/m2.jpg,,stimuli/objects/racquetballracket.jpg,,,,,,,,4,1,0,25,25,25,1,Outdoor activity & sport item,2.361,,,,,,,
0,"[0,0,0,0,1,1,0,0,1,0,0,0,0,1,0,1,0,0,0,0,0,0,1,1,1,1,1,1,1,1,0,0,0,0,0,0,0,0,1,0,1,0,0,0,0,0,1]",,,,,,,,,,,,,6,2021-04-12_17h16.34.728,premceCat2_ses-01_part-01_label-phase1,2020.2.9,MacIntel,60,,,,,,,,0,,,,,,stimuli/m2.jpg,stimuli/m5.jpg,2,stimuli/Kitchen & utensil.png,stimuli/Outdoor activity & sport item.png,stimuli/Electronic device & accessory.png,stimuli/Hand labour tool & accessory.png,4,1,1,stimuli/m5.jpg,,stimuli/objects/jumpingjack.jpg,,,,,,,,3,0,0,26,26,26,1,Hand labour tool & accessory,1.912,,,,,,,
0,"[0,0,0,0,1,1,0,0,1,0,0,0,0,1,0,1,0,0,0,0,0,0,1,1,1,1,1,1,1,1,0,0,0,0,0,0,0,0,1,0,1,0,0,0,0,0,1,0]",,,,,,,,,,,,,6,2021-04-12_17h16.34.728,premceCat2_ses-01_part-01_label-phase1,2020.2.9,MacIntel,60,,,,,,,,0,,,,,,stimuli/m2.jpg,stimuli/m5.jpg,2,stimuli/Hand labour tool & accessory.png,stimuli/Kitchen & utensil.png,stimuli/Electronic device & accessory.png,stimuli/Outdoor activity & sport item.png,1,1,1,stimuli/m5.jpg,,stimuli/objects/hedgetrimmer.jpg,,,,,,,,3,0,0,27,27,27,1,Hand labour tool & accessory,0.93,,,,,,,
0,"[0,0,0,0,1,1,0,0,1,0,0,0,0,1,0,1,0,0,0,0,0,0,1,1,1,1,1,1,1,1,0,0,0,0,0,0,0,0,1,0,1,0,0,0,0,0,1,0,0]",,,,,,,,,,,,,6,2021-04-12_17h16.34.728,premceCat2_ses-01_part-01_label-phase1,2020.2.9,MacIntel,60,,,,,,,,0,,,,,,stimuli/m5.jpg,stimuli/m2.jpg,1,stimuli/Kitchen & utensil.png,stimuli/Outdoor activity & sport item.png,stimuli/Electronic device & accessory.png,stimuli/Hand labour tool & accessory.png,4,1,1,stimuli/m5.jpg,,stimuli/objects/gavel.jpg,,,,,,,,3,0,0,28,28,28,1,Hand labour tool & accessory,1.081,,,,,,,
0,"[0,0,0,0,1,1,0,0,1,0,0,0,0,1,0,1,0,0,0,0,0,0,1,1,1,1,1,1,1,1,0,0,0,0,0,0,0,0,1,0,1,0,0,0,0,0,1,0,0,0]",,,,,,,,,,,,,6,2021-04-12_17h16.34.728,premceCat2_ses-01_part-01_label-phase1,2020.2.9,MacIntel,60,,,,,,,,0,,,,,,stimuli/m2.jpg,stimuli/m5.jpg,2,stimuli/Electronic device & accessory.png,stimuli/Hand labour tool & accessory.png,stimuli/Kitchen & utensil.png,stimuli/Outdoor activity & sport item.png,2,1,1,stimuli/m5.jpg,,stimuli/objects/gavel.jpg,,,,,,,,1,0,0,29,29,29,1,Hand labour tool & accessory,2.691,,,,,,,
0,"[0,0,0,0,1,1,0,0,1,0,0,0,0,1,0,1,0,0,0,0,0,0,1,1,1,1,1,1,1,1,0,0,0,0,0,0,0,0,1,0,1,0,0,0,0,0,1,0,0,0,0]",,,,,,,,,,,,,6,2021-04-12_17h16.34.728,premceCat2_ses-01_part-01_label-phase1,2020.2.9,MacIntel,60,,,,,,,,0,,,,,,stimuli/m2.jpg,stimuli/m5.jpg,1,stimuli/Kitchen & utensil.png,stimuli/Hand labour tool & accessory.png,stimuli/Outdoor activity & sport item.png,stimuli/Electronic device & accessory.png,3,1,1,stimuli/m2.jpg,,stimuli/objects/racquetballracket.jpg,,,,,,,,1,0,0,30,30,30,1,Outdoor activity & sport item,1.058,,,,,,,
1,"[0,0,0,0,1,1,0,0,1,0,0,0,0,1,0,1,0,0,0,0,0,0,1,1,1,1,1,1,1,1,0,0,0,0,0,0,0,0,1,0,1,0,0,0,0,0,1,0,0,0,0,0]",,,,,,,,,,,,,6,2021-04-12_17h16.34.728,premceCat2_ses-01_part-01_label-phase1,2020.2.9,MacIntel,60,,,,,,,,1,,,,,,stimuli/m5.jpg,stimuli/m2.jpg,2,stimuli/Kitchen & utensil.png,stimuli/Electronic device & accessory.png,stimuli/Outdoor activity & sport item.png,stimuli/Hand labour tool & accessory.png,3,1,1,stimuli/m2.jpg,,stimuli/objects/punchingbag.jpg,,,,,,,,3,1,0,31,31,31,1,Outdoor activity & sport item,0.976,,,,,,,
1,"[0,0,0,0,1,1,0,0,1,0,0,0,0,1,0,1,0,0,0,0,0,0,1,1,1,1,1,1,1,1,0,0,0,0,0,0,0,0,1,0,1,0,0,0,0,0,1,0,0,0,0,0,1]",,,,,,,,,,,,,6,2021-04-12_17h16.34.728,premceCat2_ses-01_part-01_label-phase1,2020.2.9,MacIntel,60,,,,,,,,1,,,,,,stimuli/m2.jpg,stimuli/m5.jpg,2,stimuli/Outdoor activity & sport item.png,stimuli/Hand labour tool & accessory.png,stimuli/Kitchen & utensil.png,stimuli/Electronic device & accessory.png,4,0,1,stimuli/m5.jpg,,stimuli/objects/camera01a.jpg,,,,,,,,4,1,0,32,32,32,1,Electronic device & accessory,2.59,,,,,,,
0,"[0,0,0,0,1,1,0,0,1,0,0,0,0,1,0,1,0,0,0,0,0,0,1,1,1,1,1,1,1,1,0,0,0,0,0,0,0,0,1,0,1,0,0,0,0,0,1,0,0,0,0,0,1]",,,,,,,,,,,,,6,2021-04-12_17h16.34.728,premceCat2_ses-01_part-01_label-phase1,2020.2.9,MacIntel,60,,,,,,,,0,,,,,,stimuli/m2.jpg,stimuli/m5.jpg,2,stimuli/Outdoor activity & sport item.png,stimuli/Electronic device & accessory.png,stimuli/Kitchen & utensil.png,stimuli/Hand labour tool & accessory.png,4,1,1,stimuli/m5.jpg,,stimuli/objects/jumpingjack.jpg,,,,,,,,2,0,0,33,33,33,1,Hand labour tool & accessory,1.831,,,,,,,
1,"[0,0,0,0,1,1,0,0,1,0,0,0,0,1,0,1,0,0,0,0,0,0,1,1,1,1,1,1,1,1,0,0,0,0,0,0,0,0,1,0,1,0,0,0,0,0,1,0,0,0,0,0,1,0]",,,,,,,,,,,,,6,2021-04-12_17h16.34.728,premceCat2_ses-01_part-01_label-phase1,2020.2.9,MacIntel,60,,,,,,,,1,,,,,,stimuli/m2.jpg,stimuli/m5.jpg,1,stimuli/Electronic device & accessory.png,stimuli/Kitchen & utensil.png,stimuli/Outdoor activity & sport item.png,stimuli/Hand labour tool & accessory.png,3,1,1,stimuli/m2.jpg,,stimuli/objects/swing.jpg,,,,,,,,3,1,0,34,34,34,1,Outdoor activity & sport item,1.473,,,,,,,
0,"[0,0,0,0,1,1,0,0,1,0,0,0,0,1,0,1,0,0,0,0,0,0,1,1,1,1,1,1,1,1,0,0,0,0,0,0,0,0,1,0,1,0,0,0,0,0,1,0,0,0,0,0,1,0,1]",,,,,,,,,,,,,6,2021-04-12_17h16.34.728,premceCat2_ses-01_part-01_label-phase1,2020.2.9,MacIntel,60,,,,,,,,0,,,,,,stimuli/m5.jpg,stimuli/m2.jpg,1,stimuli/Hand labour tool & accessory.png,stimuli/Kitchen & utensil.png,stimuli/Outdoor activity & sport item.png,stimuli/Electronic device & accessory.png,1,1,1,stimuli/m5.jpg,,stimuli/objects/pitchfork.jpg,,,,,,,,4,0,0,35,35,35,1,Hand labour tool & accessory,1.812,,,,,,,
1,"[0,0,0,0,1,1,0,0,1,0,0,0,0,1,0,1,0,0,0,0,0,0,1,1,1,1,1,1,1,1,0,0,0,0,0,0,0,0,1,0,1,0,0,0,0,0,1,0,0,0,0,0,1,0,1,0]",,,,,,,,,,,,,6,2021-04-12_17h16.34.728,premceCat2_ses-01_part-01_label-phase1,2020.2.9,MacIntel,60,,,,,,,,1,,,,,,stimuli/m2.jpg,stimuli/m5.jpg,1,stimuli/Electronic device & accessory.png,stimuli/Outdoor activity & sport item.png,stimuli/Hand labour tool & accessory.png,stimuli/Kitchen & utensil.png,2,1,1,stimuli/m2.jpg,,stimuli/objects/racquetballracket.jpg,,,,,,,,2,1,0,36,36,36,1,Outdoor activity & sport item,3.756,,,,,,,
1,"[0,0,0,0,1,1,0,0,1,0,0,0,0,1,0,1,0,0,0,0,0,0,1,1,1,1,1,1,1,1,0,0,0,0,0,0,0,0,1,0,1,0,0,0,0,0,1,0,0,0,0,0,1,0,1,0,1]",,,,,,,,,,,,,6,2021-04-12_17h16.34.728,premceCat2_ses-01_part-01_label-phase1,2020.2.9,MacIntel,60,,,,,,,,1,,,,,,stimuli/m2.jpg,stimuli/m5.jpg,1,stimuli/Outdoor activity & sport item.png,stimuli/Hand labour tool & accessory.png,stimuli/Electronic device & accessory.png,stimuli/Kitchen & utensil.png,1,1,1,stimuli/m2.jpg,,stimuli/objects/telescope.jpg,,,,,,,,1,1,0,37,37,37,1,Outdoor activity & sport item,1.821,,,,,,,
1,"[0,0,0,0,1,1,0,0,1,0,0,0,0,1,0,1,0,0,0,0,0,0,1,1,1,1,1,1,1,1,0,0,0,0,0,0,0,0,1,0,1,0,0,0,0,0,1,0,0,0,0,0,1,0,1,0,1,1]",,,,,,,,,,,,,6,2021-04-12_17h16.34.728,premceCat2_ses-01_part-01_label-phase1,2020.2.9,MacIntel,60,,,,,,,,1,,,,,,stimuli/m5.jpg,stimuli/m2.jpg,2,stimuli/Hand labour tool & accessory.png,stimuli/Kitchen & utensil.png,stimuli/Electronic device & accessory.png,stimuli/Outdoor activity & sport item.png,4,1,1,stimuli/m2.jpg,,stimuli/objects/footballhelmet.jpg,,,,,,,,4,1,0,38,38,38,1,Outdoor activity & sport item,3.21,,,,,,,
0,"[0,0,0,0,1,1,0,0,1,0,0,0,0,1,0,1,0,0,0,0,0,0,1,1,1,1,1,1,1,1,0,0,0,0,0,0,0,0,1,0,1,0,0,0,0,0,1,0,0,0,0,0,1,0,1,0,1,1,1]",,,,,,,,,,,,,6,2021-04-12_17h16.34.728,premceCat2_ses-01_part-01_label-phase1,2020.2.9,MacIntel,60,,,,,,,,0,,,,,,stimuli/m5.jpg,stimuli/m2.jpg,2,stimuli/Kitchen & utensil.png,stimuli/Hand labour tool & accessory.png,stimuli/Outdoor activity & sport item.png,stimuli/Electronic device & accessory.png,3,1,1,stimuli/m2.jpg,,stimuli/objects/swing.jpg,,,,,,,,2,0,0,39,39,39,1,Outdoor activity & sport item,2.046,,,,,,,
0,"[0,0,0,0,1,1,0,0,1,0,0,0,0,1,0,1,0,0,0,0,0,0,1,1,1,1,1,1,1,1,0,0,0,0,0,0,0,0,1,0,1,0,0,0,0,0,1,0,0,0,0,0,1,0,1,0,1,1,1,0]",,,,,,,,,,,,,6,2021-04-12_17h16.34.728,premceCat2_ses-01_part-01_label-phase1,2020.2.9,MacIntel,60,,,,,,,,0,,,,,,stimuli/m5.jpg,stimuli/m2.jpg,1,stimuli/Outdoor activity & sport item.png,stimuli/Hand labour tool & accessory.png,stimuli/Electronic device & accessory.png,stimuli/Kitchen & utensil.png,2,1,1,stimuli/m5.jpg,,stimuli/objects/pitchfork.jpg,,,,,,,,3,0,0,40,40,40,1,Hand labour tool & accessory,2.178,,,,,,,
1,"[0,0,0,0,1,1,0,0,1,0,0,0,0,1,0,1,0,0,0,0,0,0,1,1,1,1,1,1,1,1,0,0,0,0,0,0,0,0,1,0,1,0,0,0,0,0,1,0,0,0,0,0,1,0,1,0,1,1,1,0,0]",,,,,,,,,,,,,6,2021-04-12_17h16.34.728,premceCat2_ses-01_part-01_label-phase1,2020.2.9,MacIntel,60,,,,,,,,1,,,,,,stimuli/m2.jpg,stimuli/m5.jpg,1,stimuli/Hand labour tool & accessory.png,stimuli/Outdoor activity & sport item.png,stimuli/Electronic device & accessory.png,stimuli/Kitchen & utensil.png,2,1,1,stimuli/m2.jpg,,stimuli/objects/footballhelmet.jpg,,,,,,,,2,1,0,41,41,41,1,Outdoor activity & sport item,1.116,,,,,,,
0,"[0,0,0,0,1,1,0,0,1,0,0,0,0,1,0,1,0,0,0,0,0,0,1,1,1,1,1,1,1,1,0,0,0,0,0,0,0,0,1,0,1,0,0,0,0,0,1,0,0,0,0,0,1,0,1,0,1,1,1,0,0,1]",,,,,,,,,,,,,6,2021-04-12_17h16.34.728,premceCat2_ses-01_part-01_label-phase1,2020.2.9,MacIntel,60,,,,,,,,0,,,,,,stimuli/m5.jpg,stimuli/m2.jpg,2,stimuli/Hand labour tool & accessory.png,stimuli/Outdoor activity & sport item.png,stimuli/Kitchen & utensil.png,stimuli/Electronic device & accessory.png,2,1,1,stimuli/m2.jpg,,stimuli/objects/rollerblade.jpg,,,,,,,,4,0,0,42,42,42,1,Outdoor activity & sport item,2.093,,,,,,,
1,"[0,0,0,0,1,1,0,0,1,0,0,0,0,1,0,1,0,0,0,0,0,0,1,1,1,1,1,1,1,1,0,0,0,0,0,0,0,0,1,0,1,0,0,0,0,0,1,0,0,0,0,0,1,0,1,0,1,1,1,0,0,1,0]",,,,,,,,,,,,,6,2021-04-12_17h16.34.728,premceCat2_ses-01_part-01_label-phase1,2020.2.9,MacIntel,60,,,,,,,,1,,,,,,stimuli/m2.jpg,stimuli/m5.jpg,1,stimuli/Outdoor activity & sport item.png,stimuli/Kitchen & utensil.png,stimuli/Hand labour tool & accessory.png,stimuli/Electronic device & accessory.png,1,1,1,stimuli/m2.jpg,,stimuli/objects/crosscountryski.jpg,,,,,,,,1,1,0,43,43,43,1,Outdoor activity & sport item,1.422,,,,,,,
0,"[0,0,0,0,1,1,0,0,1,0,0,0,0,1,0,1,0,0,0,0,0,0,1,1,1,1,1,1,1,1,0,0,0,0,0,0,0,0,1,0,1,0,0,0,0,0,1,0,0,0,0,0,1,0,1,0,1,1,1,0,0,1,0,1]",,,,,,,,,,,,,6,2021-04-12_17h16.34.728,premceCat2_ses-01_part-01_label-phase1,2020.2.9,MacIntel,60,,,,,,,,0,,,,,,stimuli/m5.jpg,stimuli/m2.jpg,1,stimuli/Kitchen & utensil.png,stimuli/Outdoor activity & sport item.png,stimuli/Hand labour tool & accessory.png,stimuli/Electronic device & accessory.png,3,1,1,stimuli/m5.jpg,,stimuli/objects/solderingiron.jpg,,,,,,,,4,0,0,44,44,44,1,Hand labour tool & accessory,2.659,,,,,,,
0,"[0,0,0,0,1,1,0,0,1,0,0,0,0,1,0,1,0,0,0,0,0,0,1,1,1,1,1,1,1,1,0,0,0,0,0,0,0,0,1,0,1,0,0,0,0,0,1,0,0,0,0,0,1,0,1,0,1,1,1,0,0,1,0,1,0]",,,,,,,,,,,,,6,2021-04-12_17h16.34.728,premceCat2_ses-01_part-01_label-phase1,2020.2.9,MacIntel,60,,,,,,,,0,,,,,,stimuli/m5.jpg,stimuli/m2.jpg,2,stimuli/Kitchen & utensil.png,stimuli/Hand labour tool & accessory.png,stimuli/Electronic device & accessory.png,stimuli/Outdoor activity & sport item.png,2,0,1,stimuli/m2.jpg,,stimuli/objects/boxcutter03a.jpg,,,,,,,,4,0,0,45,45,45,1,Hand labour tool & accessory,1.896,,,,,,,
0,"[0,0,0,0,1,1,0,0,1,0,0,0,0,1,0,1,0,0,0,0,0,0,1,1,1,1,1,1,1,1,0,0,0,0,0,0,0,0,1,0,1,0,0,0,0,0,1,0,0,0,0,0,1,0,1,0,1,1,1,0,0,1,0,1,0]",,,,,,,,,,,,,6,2021-04-12_17h16.34.728,premceCat2_ses-01_part-01_label-phase1,2020.2.9,MacIntel,60,,,,,,,,0,,,,,,stimuli/m2.jpg,stimuli/m5.jpg,2,stimuli/Kitchen & utensil.png,stimuli/Electronic device & accessory.png,stimuli/Hand labour tool & accessory.png,stimuli/Outdoor activity & sport item.png,3,1,1,stimuli/m5.jpg,,stimuli/objects/gavel.jpg,,,,,,,,2,0,0,46,46,46,1,Hand labour tool & accessory,1.311,,,,,,,
0,"[0,0,0,0,1,1,0,0,1,0,0,0,0,1,0,1,0,0,0,0,0,0,1,1,1,1,1,1,1,1,0,0,0,0,0,0,0,0,1,0,1,0,0,0,0,0,1,0,0,0,0,0,1,0,1,0,1,1,1,0,0,1,0,1,0,0]",,,,,,,,,,,,,6,2021-04-12_17h16.34.728,premceCat2_ses-01_part-01_label-phase1,2020.2.9,MacIntel,60,,,,,,,,0,,,,,,stimuli/m5.jpg,stimuli/m2.jpg,2,stimuli/Outdoor activity & sport item.png,stimuli/Hand labour tool & accessory.png,stimuli/Kitchen & utensil.png,stimuli/Electronic device & accessory.png,4,0,1,stimuli/m2.jpg,,stimuli/objects/jack.jpg,,,,,,,,1,0,0,47,47,47,1,Electronic device & accessory,1.772,,,,,,,
,,,,,,,,,,,,,,6,2021-04-12_17h16.34.728,premceCat2_ses-01_part-01_label-phase1,2020.2.9,MacIntel,60,,,,,,,,,,,,,,,,,,,,,,,,,,,,,,,,,,,,,,,,,,,n,8.399,0,0,0,0,1
