instructions_loop.thisRepN,instructions_loop.thisTrialN,instructions_loop.thisN,instructions_loop.thisIndex,instructions_loop.ran,text1,text2,text3,participant,date,expName,psychopyVersion,OS,frameRate,key_resp_2.keys,key_resp_2.rt,key_resp_3.keys,key_resp_3.rt,recog_resp.keys,recog_resp.rt,conf_resp.keys,conf_resp.rt,resp_assoc.keys,resp_assoc.rt,assoc_loop.thisRepN,assoc_loop.thisTrialN,assoc_loop.thisN,assoc_loop.thisIndex,assoc_loop.ran,recog_loop.thisRepN,recog_loop.thisTrialN,recog_loop.thisN,recog_loop.thisIndex,recog_loop.ran,images,corr_ans,type,order,key_resp_break.keys,key_resp_break.rt,list_loop.thisRepN,list_loop.thisTrialN,list_loop.thisN,list_loop.thisIndex,list_loop.ran,recog_list
0,0,0,0,1,Welcome to the last phase of this experiment!,.,Please press the space bar to continue,6,2021-04-13_12h39.46.023,premceCat2_ses-02_part-02_label-phase2,2020.2.10,MacIntel,60,,,,,,,,,,,,,,,,,,,,,,,,,,,,,,,,
0,1,1,1,1,.,"In this phase, you will see some objects. 

For each object, you should indicate whether you have seen it before during the experiment.

Press LEFT ARROW for YES
Press RIGHT ARROW for NO

",Please press the space bar to continue ,6,2021-04-13_12h39.46.023,premceCat2_ses-02_part-02_label-phase2,2020.2.10,MacIntel,60,,,,,,,,,,,,,,,,,,,,,,,,,,,,,,,,
0,2,2,2,1,.,"After that, you will be asked how confident you are of your choice.

Please rate the confidence in your choice with the numbers from 1 to 4 of your keyboard. 

The numbers correspond to:

1 = Very unsure
2 = Unsure
3 = Sure
4 = Very Sure",Please press the space bar to continue,6,2021-04-13_12h39.46.023,premceCat2_ses-02_part-02_label-phase2,2020.2.10,MacIntel,60,,,,,,,,,,,,,,,,,,,,,,,,,,,,,,,,
,,,,,,,,6,2021-04-13_12h39.46.023,premceCat2_ses-02_part-02_label-phase2,2020.2.10,MacIntel,60,space,25.563,space,23.184,left,3.75,4,2.699,right,5.045,0,0,0,0,1,,,,,,,,,,,,,,,,,
,,,,,,,,6,2021-04-13_12h39.46.023,premceCat2_ses-02_part-02_label-phase2,2020.2.10,MacIntel,60,,,,,,,,,,,,,,,,0,0,0,142,1,stimuli/objects/needlenosepliers01.jpg,right,new,286,,,,,,,,
,,,,,,,,6,2021-04-13_12h39.46.023,premceCat2_ses-02_part-02_label-phase2,2020.2.10,MacIntel,60,,,,,left,2.649,4,2.363,right,0.959,0,0,0,0,1,,,,,,,,,,,,,,,,,
,,,,,,,,6,2021-04-13_12h39.46.023,premceCat2_ses-02_part-02_label-phase2,2020.2.10,MacIntel,60,,,,,,,,,,,,,,,,0,1,1,27,1,stimuli/objects/saw02b.jpg,left,old,171,,,,,,,,
,,,,,,,,6,2021-04-13_12h39.46.023,premceCat2_ses-02_part-02_label-phase2,2020.2.10,MacIntel,60,,,,,left,5.387,4,2.548,left,4.759,0,0,0,0,1,,,,,,,,,,,,,,,,,
,,,,,,,,6,2021-04-13_12h39.46.023,premceCat2_ses-02_part-02_label-phase2,2020.2.10,MacIntel,60,,,,,,,,,,,,,,,,0,2,2,56,1,stimuli/objects/thermos.jpg,left,old,200,,,,,,,,
,,,,,,,,6,2021-04-13_12h39.46.023,premceCat2_ses-02_part-02_label-phase2,2020.2.10,MacIntel,60,,,,,left,6.348,2,2.109,right,2.328,0,0,0,0,1,,,,,,,,,,,,,,,,,
,,,,,,,,6,2021-04-13_12h39.46.023,premceCat2_ses-02_part-02_label-phase2,2020.2.10,MacIntel,60,,,,,,,,,,,,,,,,0,3,3,126,1,stimuli/objects/reflector.jpg,left,old,270,,,,,,,,
,,,,,,,,6,2021-04-13_12h39.46.023,premceCat2_ses-02_part-02_label-phase2,2020.2.10,MacIntel,60,,,,,left,3.242,4,1.499,right,2.707,0,0,0,0,1,,,,,,,,,,,,,,,,,
,,,,,,,,6,2021-04-13_12h39.46.023,premceCat2_ses-02_part-02_label-phase2,2020.2.10,MacIntel,60,,,,,,,,,,,,,,,,0,4,4,85,1,stimuli/objects/filmnegative.jpg,left,old,229,,,,,,,,
,,,,,,,,6,2021-04-13_12h39.46.023,premceCat2_ses-02_part-02_label-phase2,2020.2.10,MacIntel,60,,,,,left,2.584,4,1.358,left,4.124,0,0,0,0,1,,,,,,,,,,,,,,,,,
,,,,,,,,6,2021-04-13_12h39.46.023,premceCat2_ses-02_part-02_label-phase2,2020.2.10,MacIntel,60,,,,,,,,,,,,,,,,0,5,5,52,1,stimuli/objects/securitycamera.jpg,left,old,196,,,,,,,,
,,,,,,,,6,2021-04-13_12h39.46.023,premceCat2_ses-02_part-02_label-phase2,2020.2.10,MacIntel,60,,,,,left,2.338,2,3.691,right,0.586,0,0,0,0,1,,,,,,,,,,,,,,,,,
,,,,,,,,6,2021-04-13_12h39.46.023,premceCat2_ses-02_part-02_label-phase2,2020.2.10,MacIntel,60,,,,,,,,,,,,,,,,0,6,6,123,1,stimuli/objects/jackhammer.jpg,right,new,267,,,,,,,,
,,,,,,,,6,2021-04-13_12h39.46.023,premceCat2_ses-02_part-02_label-phase2,2020.2.10,MacIntel,60,,,,,left,2.2,4,1.872,left,0.942,0,0,0,0,1,,,,,,,,,,,,,,,,,
,,,,,,,,6,2021-04-13_12h39.46.023,premceCat2_ses-02_part-02_label-phase2,2020.2.10,MacIntel,60,,,,,,,,,,,,,,,,0,7,7,17,1,stimuli/objects/backpack01a.jpg,left,old,161,,,,,,,,
,,,,,,,,6,2021-04-13_12h39.46.023,premceCat2_ses-02_part-02_label-phase2,2020.2.10,MacIntel,60,,,,,left,2.151,4,2.045,left,0.823,0,0,0,0,1,,,,,,,,,,,,,,,,,
,,,,,,,,6,2021-04-13_12h39.46.023,premceCat2_ses-02_part-02_label-phase2,2020.2.10,MacIntel,60,,,,,,,,,,,,,,,,0,8,8,64,1,stimuli/objects/surfboard.jpg,left,old,208,,,,,,,,
,,,,,,,,6,2021-04-13_12h39.46.023,premceCat2_ses-02_part-02_label-phase2,2020.2.10,MacIntel,60,,,,,right,3.337,3,1.873,,,,,,,,0,9,9,138,1,stimuli/objects/beermug01a.jpg,right,new,282,,,,,,,,
,,,,,,,,6,2021-04-13_12h39.46.023,premceCat2_ses-02_part-02_label-phase2,2020.2.10,MacIntel,60,,,,,left,1.57,1,1.59,left,1.849,0,0,0,0,1,,,,,,,,,,,,,,,,,
,,,,,,,,6,2021-04-13_12h39.46.023,premceCat2_ses-02_part-02_label-phase2,2020.2.10,MacIntel,60,,,,,,,,,,,,,,,,0,10,10,119,1,stimuli/objects/muffintray01.jpg,left,old,263,,,,,,,,
,,,,,,,,6,2021-04-13_12h39.46.023,premceCat2_ses-02_part-02_label-phase2,2020.2.10,MacIntel,60,,,,,left,1.684,4,3.231,right,0.603,0,0,0,0,1,,,,,,,,,,,,,,,,,
,,,,,,,,6,2021-04-13_12h39.46.023,premceCat2_ses-02_part-02_label-phase2,2020.2.10,MacIntel,60,,,,,,,,,,,,,,,,0,11,11,139,1,stimuli/objects/corkscrew03a.jpg,left,old,283,,,,,,,,
,,,,,,,,6,2021-04-13_12h39.46.023,premceCat2_ses-02_part-02_label-phase2,2020.2.10,MacIntel,60,,,,,right,2.56,3,2.957,,,,,,,,0,12,12,69,1,stimuli/objects/straw.jpg,right,new,213,,,,,,,,
,,,,,,,,6,2021-04-13_12h39.46.023,premceCat2_ses-02_part-02_label-phase2,2020.2.10,MacIntel,60,,,,,left,1.387,4,2.22,right,0.98,0,0,0,0,1,,,,,,,,,,,,,,,,,
,,,,,,,,6,2021-04-13_12h39.46.023,premceCat2_ses-02_part-02_label-phase2,2020.2.10,MacIntel,60,,,,,,,,,,,,,,,,0,13,13,8,1,stimuli/objects/hammer01.jpg,left,old,152,,,,,,,,
,,,,,,,,6,2021-04-13_12h39.46.023,premceCat2_ses-02_part-02_label-phase2,2020.2.10,MacIntel,60,,,,,left,5.72,2,2.957,right,0.909,0,0,0,0,1,,,,,,,,,,,,,,,,,
,,,,,,,,6,2021-04-13_12h39.46.023,premceCat2_ses-02_part-02_label-phase2,2020.2.10,MacIntel,60,,,,,,,,,,,,,,,,0,14,14,18,1,stimuli/objects/fluorescentlightbulb.jpg,left,old,162,,,,,,,,
,,,,,,,,6,2021-04-13_12h39.46.023,premceCat2_ses-02_part-02_label-phase2,2020.2.10,MacIntel,60,,,,,left,3.867,1,2.27,left,1.032,0,0,0,0,1,,,,,,,,,,,,,,,,,
,,,,,,,,6,2021-04-13_12h39.46.023,premceCat2_ses-02_part-02_label-phase2,2020.2.10,MacIntel,60,,,,,,,,,,,,,,,,0,15,15,37,1,stimuli/objects/computerkeyboard02.jpg,left,old,181,,,,,,,,
,,,,,,,,6,2021-04-13_12h39.46.023,premceCat2_ses-02_part-02_label-phase2,2020.2.10,MacIntel,60,,,,,left,1.754,4,1.614,left,1.202,0,0,0,0,1,,,,,,,,,,,,,,,,,
,,,,,,,,6,2021-04-13_12h39.46.023,premceCat2_ses-02_part-02_label-phase2,2020.2.10,MacIntel,60,,,,,,,,,,,,,,,,0,16,16,136,1,stimuli/objects/hockeypuck.jpg,left,old,280,,,,,,,,
,,,,,,,,6,2021-04-13_12h39.46.023,premceCat2_ses-02_part-02_label-phase2,2020.2.10,MacIntel,60,,,,,left,2.812,1,1.743,left,2.023,0,0,0,0,1,,,,,,,,,,,,,,,,,
,,,,,,,,6,2021-04-13_12h39.46.023,premceCat2_ses-02_part-02_label-phase2,2020.2.10,MacIntel,60,,,,,,,,,,,,,,,,0,17,17,44,1,stimuli/objects/toaster01.jpg,right,new,188,,,,,,,,
,,,,,,,,6,2021-04-13_12h39.46.023,premceCat2_ses-02_part-02_label-phase2,2020.2.10,MacIntel,60,,,,,right,2.404,3,2.51,,,,,,,,0,18,18,82,1,stimuli/objects/shopvac.jpg,right,new,226,,,,,,,,
,,,,,,,,6,2021-04-13_12h39.46.023,premceCat2_ses-02_part-02_label-phase2,2020.2.10,MacIntel,60,,,,,left,1.607,3,1.608,left,1.276,0,0,0,0,1,,,,,,,,,,,,,,,,,
,,,,,,,,6,2021-04-13_12h39.46.023,premceCat2_ses-02_part-02_label-phase2,2020.2.10,MacIntel,60,,,,,,,,,,,,,,,,0,19,19,141,1,stimuli/objects/travelmug.jpg,left,old,285,,,,,,,,
,,,,,,,,6,2021-04-13_12h39.46.023,premceCat2_ses-02_part-02_label-phase2,2020.2.10,MacIntel,60,,,,,left,1.612,4,1.681,left,2.595,0,0,0,0,1,,,,,,,,,,,,,,,,,
,,,,,,,,6,2021-04-13_12h39.46.023,premceCat2_ses-02_part-02_label-phase2,2020.2.10,MacIntel,60,,,,,,,,,,,,,,,,0,20,20,25,1,stimuli/objects/shotglass.jpg,left,old,169,,,,,,,,
,,,,,,,,6,2021-04-13_12h39.46.023,premceCat2_ses-02_part-02_label-phase2,2020.2.10,MacIntel,60,,,,,left,1.38,4,1.838,right,0.548,0,0,0,0,1,,,,,,,,,,,,,,,,,
,,,,,,,,6,2021-04-13_12h39.46.023,premceCat2_ses-02_part-02_label-phase2,2020.2.10,MacIntel,60,,,,,,,,,,,,,,,,0,21,21,113,1,stimuli/objects/hedgeshears.jpg,left,old,257,,,,,,,,
,,,,,,,,6,2021-04-13_12h39.46.023,premceCat2_ses-02_part-02_label-phase2,2020.2.10,MacIntel,60,,,,,left,2.933,4,1.693,right,1.143,0,0,0,0,1,,,,,,,,,,,,,,,,,
,,,,,,,,6,2021-04-13_12h39.46.023,premceCat2_ses-02_part-02_label-phase2,2020.2.10,MacIntel,60,,,,,,,,,,,,,,,,0,22,22,91,1,stimuli/objects/cuttingpliers02.jpg,right,new,235,,,,,,,,
,,,,,,,,6,2021-04-13_12h39.46.023,premceCat2_ses-02_part-02_label-phase2,2020.2.10,MacIntel,60,,,,,right,3.182,2,2.442,,,,,,,,0,23,23,78,1,stimuli/objects/lightswitch01.jpg,right,new,222,,,,,,,,
,,,,,,,,6,2021-04-13_12h39.46.023,premceCat2_ses-02_part-02_label-phase2,2020.2.10,MacIntel,60,,,,,left,2.736,2,1.714,right,1.709,0,0,0,0,1,,,,,,,,,,,,,,,,,
,,,,,,,,6,2021-04-13_12h39.46.023,premceCat2_ses-02_part-02_label-phase2,2020.2.10,MacIntel,60,,,,,,,,,,,,,,,,0,24,24,4,1,stimuli/objects/cassettetape01a.jpg,right,new,148,,,,,,,,
,,,,,,,,6,2021-04-13_12h39.46.023,premceCat2_ses-02_part-02_label-phase2,2020.2.10,MacIntel,60,,,,,left,2.238,4,1.59,right,0.71,0,0,0,0,1,,,,,,,,,,,,,,,,,
,,,,,,,,6,2021-04-13_12h39.46.023,premceCat2_ses-02_part-02_label-phase2,2020.2.10,MacIntel,60,,,,,,,,,,,,,,,,0,25,25,43,1,stimuli/objects/bowrake.jpg,right,new,187,,,,,,,,
,,,,,,,,6,2021-04-13_12h39.46.023,premceCat2_ses-02_part-02_label-phase2,2020.2.10,MacIntel,60,,,,,left,2.473,3,3.295,left,1.003,0,0,0,0,1,,,,,,,,,,,,,,,,,
,,,,,,,,6,2021-04-13_12h39.46.023,premceCat2_ses-02_part-02_label-phase2,2020.2.10,MacIntel,60,,,,,,,,,,,,,,,,0,26,26,32,1,stimuli/objects/rollingpin01a.jpg,left,old,176,,,,,,,,
,,,,,,,,6,2021-04-13_12h39.46.023,premceCat2_ses-02_part-02_label-phase2,2020.2.10,MacIntel,60,,,,,left,3.517,4,1.862,right,0.514,0,0,0,0,1,,,,,,,,,,,,,,,,,
,,,,,,,,6,2021-04-13_12h39.46.023,premceCat2_ses-02_part-02_label-phase2,2020.2.10,MacIntel,60,,,,,,,,,,,,,,,,0,27,27,1,1,stimuli/objects/crocodileclips.jpg,left,old,145,,,,,,,,
,,,,,,,,6,2021-04-13_12h39.46.023,premceCat2_ses-02_part-02_label-phase2,2020.2.10,MacIntel,60,,,,,right,2.557,1,1.52,,,,,,,,0,28,28,12,1,stimuli/objects/fanheater.jpg,right,new,156,,,,,,,,
,,,,,,,,6,2021-04-13_12h39.46.023,premceCat2_ses-02_part-02_label-phase2,2020.2.10,MacIntel,60,,,,,right,1.645,4,2.125,,,,,,,,0,29,29,40,1,stimuli/objects/tablesaw.jpg,right,new,184,,,,,,,,
,,,,,,,,6,2021-04-13_12h39.46.023,premceCat2_ses-02_part-02_label-phase2,2020.2.10,MacIntel,60,,,,,left,1.793,1,1.454,left,0.973,0,0,0,0,1,,,,,,,,,,,,,,,,,
,,,,,,,,6,2021-04-13_12h39.46.023,premceCat2_ses-02_part-02_label-phase2,2020.2.10,MacIntel,60,,,,,,,,,,,,,,,,0,30,30,83,1,stimuli/objects/icecubetray01a.jpg,right,new,227,,,,,,,,
,,,,,,,,6,2021-04-13_12h39.46.023,premceCat2_ses-02_part-02_label-phase2,2020.2.10,MacIntel,60,,,,,left,1.469,4,1.879,right,0.432,0,0,0,0,1,,,,,,,,,,,,,,,,,
,,,,,,,,6,2021-04-13_12h39.46.023,premceCat2_ses-02_part-02_label-phase2,2020.2.10,MacIntel,60,,,,,,,,,,,,,,,,0,31,31,93,1,stimuli/objects/chainsaw.jpg,left,old,237,,,,,,,,
,,,,,,,,6,2021-04-13_12h39.46.023,premceCat2_ses-02_part-02_label-phase2,2020.2.10,MacIntel,60,,,,,left,1.842,4,2.248,left,1.089,0,0,0,0,1,,,,,,,,,,,,,,,,,
,,,,,,,,6,2021-04-13_12h39.46.023,premceCat2_ses-02_part-02_label-phase2,2020.2.10,MacIntel,60,,,,,,,,,,,,,,,,0,32,32,79,1,stimuli/objects/boatmotor.jpg,left,old,223,,,,,,,,
,,,,,,,,6,2021-04-13_12h39.46.023,premceCat2_ses-02_part-02_label-phase2,2020.2.10,MacIntel,60,,,,,right,3.07,2,1.129,,,,,,,,0,33,33,94,1,stimuli/objects/file.jpg,right,new,238,,,,,,,,
,,,,,,,,6,2021-04-13_12h39.46.023,premceCat2_ses-02_part-02_label-phase2,2020.2.10,MacIntel,60,,,,,right,1.611,1,1.117,,,,,,,,0,34,34,86,1,stimuli/objects/trampoline.jpg,right,new,230,,,,,,,,
,,,,,,,,6,2021-04-13_12h39.46.023,premceCat2_ses-02_part-02_label-phase2,2020.2.10,MacIntel,60,,,,,right,1.375,4,1.048,,,,,,,,0,35,35,16,1,stimuli/objects/bottleopener01.jpg,right,new,160,,,,,,,,
,,,,,,,,6,2021-04-13_12h39.46.023,premceCat2_ses-02_part-02_label-phase2,2020.2.10,MacIntel,60,,,,,right,1.638,1,2.296,,,,,,,,0,36,36,74,1,stimuli/objects/shinpad.jpg,left,old,218,,,,,,,,
,,,,,,,,6,2021-04-13_12h39.46.023,premceCat2_ses-02_part-02_label-phase2,2020.2.10,MacIntel,60,,,,,left,1.958,4,1.415,left,1.244,0,0,0,0,1,,,,,,,,,,,,,,,,,
,,,,,,,,6,2021-04-13_12h39.46.023,premceCat2_ses-02_part-02_label-phase2,2020.2.10,MacIntel,60,,,,,,,,,,,,,,,,0,37,37,33,1,stimuli/objects/ipod.jpg,left,old,177,,,,,,,,
,,,,,,,,6,2021-04-13_12h39.46.023,premceCat2_ses-02_part-02_label-phase2,2020.2.10,MacIntel,60,,,,,right,1.482,4,1.897,,,,,,,,0,38,38,133,1,stimuli/objects/birdie.jpg,right,new,277,,,,,,,,
,,,,,,,,6,2021-04-13_12h39.46.023,premceCat2_ses-02_part-02_label-phase2,2020.2.10,MacIntel,60,,,,,left,2.201,4,1.317,left,0.809,0,0,0,0,1,,,,,,,,,,,,,,,,,
,,,,,,,,6,2021-04-13_12h39.46.023,premceCat2_ses-02_part-02_label-phase2,2020.2.10,MacIntel,60,,,,,,,,,,,,,,,,0,39,39,122,1,stimuli/objects/hockeystick.jpg,right,new,266,,,,,,,,
,,,,,,,,6,2021-04-13_12h39.46.023,premceCat2_ses-02_part-02_label-phase2,2020.2.10,MacIntel,60,,,,,left,4.569,1,0.954,left,1.409,0,0,0,0,1,,,,,,,,,,,,,,,,,
,,,,,,,,6,2021-04-13_12h39.46.023,premceCat2_ses-02_part-02_label-phase2,2020.2.10,MacIntel,60,,,,,,,,,,,,,,,,0,40,40,66,1,stimuli/objects/heatpump.jpg,right,new,210,,,,,,,,
,,,,,,,,6,2021-04-13_12h39.46.023,premceCat2_ses-02_part-02_label-phase2,2020.2.10,MacIntel,60,,,,,left,1.759,3,1.252,right,0.569,0,0,0,0,1,,,,,,,,,,,,,,,,,
,,,,,,,,6,2021-04-13_12h39.46.023,premceCat2_ses-02_part-02_label-phase2,2020.2.10,MacIntel,60,,,,,,,,,,,,,,,,0,41,41,5,1,stimuli/objects/pickaxe02.jpg,right,new,149,,,,,,,,
,,,,,,,,6,2021-04-13_12h39.46.023,premceCat2_ses-02_part-02_label-phase2,2020.2.10,MacIntel,60,,,,,left,1.504,4,2.311,right,1.009,0,0,0,0,1,,,,,,,,,,,,,,,,,
,,,,,,,,6,2021-04-13_12h39.46.023,premceCat2_ses-02_part-02_label-phase2,2020.2.10,MacIntel,60,,,,,,,,,,,,,,,,0,42,42,11,1,stimuli/objects/vhstape.jpg,left,old,155,,,,,,,,
,,,,,,,,6,2021-04-13_12h39.46.023,premceCat2_ses-02_part-02_label-phase2,2020.2.10,MacIntel,60,,,,,right,1.917,4,1.158,,,,,,,,0,43,43,121,1,stimuli/objects/parachute.jpg,right,new,265,,,,,,,,
,,,,,,,,6,2021-04-13_12h39.46.023,premceCat2_ses-02_part-02_label-phase2,2020.2.10,MacIntel,60,,,,,right,1.309,4,1.306,,,,,,,,0,44,44,137,1,stimuli/objects/nutcracker01.jpg,right,new,281,,,,,,,,
,,,,,,,,6,2021-04-13_12h39.46.023,premceCat2_ses-02_part-02_label-phase2,2020.2.10,MacIntel,60,,,,,right,1.869,1,1.327,,,,,,,,0,45,45,106,1,stimuli/objects/extensioncord.jpg,left,old,250,,,,,,,,
,,,,,,,,6,2021-04-13_12h39.46.023,premceCat2_ses-02_part-02_label-phase2,2020.2.10,MacIntel,60,,,,,right,1.084,4,1.187,,,,,,,,0,46,46,135,1,stimuli/objects/mortarandpestle.jpg,right,new,279,,,,,,,,
,,,,,,,,6,2021-04-13_12h39.46.023,premceCat2_ses-02_part-02_label-phase2,2020.2.10,MacIntel,60,,,,,right,1.513,1,1.822,,,,,,,,0,47,47,63,1,stimuli/objects/towel01.jpg,left,old,207,,,,,,,,
,,,,,,,,6,2021-04-13_12h39.46.023,premceCat2_ses-02_part-02_label-phase2,2020.2.10,MacIntel,60,,,,,left,1.621,4,1.863,left,2.034,0,0,0,0,1,,,,,,,,,,,,,,,,,
,,,,,,,,6,2021-04-13_12h39.46.023,premceCat2_ses-02_part-02_label-phase2,2020.2.10,MacIntel,60,,,,,,,,,,,,,,,,0,48,48,67,1,stimuli/objects/fan.jpg,left,old,211,,,,,,,,
,,,,,,,,6,2021-04-13_12h39.46.023,premceCat2_ses-02_part-02_label-phase2,2020.2.10,MacIntel,60,,,,,left,1.566,4,2.459,left,1.048,0,0,0,0,1,,,,,,,,,,,,,,,,,
,,,,,,,,6,2021-04-13_12h39.46.023,premceCat2_ses-02_part-02_label-phase2,2020.2.10,MacIntel,60,,,,,,,,,,,,,,,,0,49,49,10,1,stimuli/objects/skihelmet01.jpg,left,old,154,,,,,,,,
,,,,,,,,6,2021-04-13_12h39.46.023,premceCat2_ses-02_part-02_label-phase2,2020.2.10,MacIntel,60,,,,,right,1.189,3,1.734,,,,,,,,0,50,50,111,1,stimuli/objects/diaperbag.jpg,right,new,255,,,,,,,,
,,,,,,,,6,2021-04-13_12h39.46.023,premceCat2_ses-02_part-02_label-phase2,2020.2.10,MacIntel,60,,,,,right,1.221,4,1.454,,,,,,,,0,51,51,99,1,stimuli/objects/floodlight.jpg,right,new,243,,,,,,,,
,,,,,,,,6,2021-04-13_12h39.46.023,premceCat2_ses-02_part-02_label-phase2,2020.2.10,MacIntel,60,,,,,left,1.667,3,1.873,right,0.921,0,0,0,0,1,,,,,,,,,,,,,,,,,
,,,,,,,,6,2021-04-13_12h39.46.023,premceCat2_ses-02_part-02_label-phase2,2020.2.10,MacIntel,60,,,,,,,,,,,,,,,,0,52,52,54,1,stimuli/objects/stubbywrench01a.jpg,left,old,198,,,,,,,,
,,,,,,,,6,2021-04-13_12h39.46.023,premceCat2_ses-02_part-02_label-phase2,2020.2.10,MacIntel,60,,,,,right,1.316,4,1.342,,,,,,,,0,53,53,107,1,stimuli/objects/dolly01.jpg,right,new,251,,,,,,,,
,,,,,,,,6,2021-04-13_12h39.46.023,premceCat2_ses-02_part-02_label-phase2,2020.2.10,MacIntel,60,,,,,left,1.71,4,1.409,left,1.59,0,0,0,0,1,,,,,,,,,,,,,,,,,
,,,,,,,,6,2021-04-13_12h39.46.023,premceCat2_ses-02_part-02_label-phase2,2020.2.10,MacIntel,60,,,,,,,,,,,,,,,,0,54,54,62,1,stimuli/objects/pot01.jpg,left,old,206,,,,,,,,
,,,,,,,,6,2021-04-13_12h39.46.023,premceCat2_ses-02_part-02_label-phase2,2020.2.10,MacIntel,60,,,,,right,1.071,4,1.936,,,,,,,,0,55,55,6,1,stimuli/objects/solderingwire.jpg,right,new,150,,,,,,,,
,,,,,,,,6,2021-04-13_12h39.46.023,premceCat2_ses-02_part-02_label-phase2,2020.2.10,MacIntel,60,,,,,left,1.52,4,2.463,left,0.958,0,0,0,0,1,,,,,,,,,,,,,,,,,
,,,,,,,,6,2021-04-13_12h39.46.023,premceCat2_ses-02_part-02_label-phase2,2020.2.10,MacIntel,60,,,,,,,,,,,,,,,,0,56,56,58,1,stimuli/objects/volleyball.jpg,left,old,202,,,,,,,,
,,,,,,,,6,2021-04-13_12h39.46.023,premceCat2_ses-02_part-02_label-phase2,2020.2.10,MacIntel,60,,,,,right,1.959,1,1.832,,,,,,,,0,57,57,116,1,stimuli/objects/lockingplier.jpg,right,new,260,,,,,,,,
,,,,,,,,6,2021-04-13_12h39.46.023,premceCat2_ses-02_part-02_label-phase2,2020.2.10,MacIntel,60,,,,,right,1.621,2,1.835,,,,,,,,0,58,58,39,1,stimuli/objects/wafflemaker.jpg,right,new,183,,,,,,,,
,,,,,,,,6,2021-04-13_12h39.46.023,premceCat2_ses-02_part-02_label-phase2,2020.2.10,MacIntel,60,,,,,right,2.596,1,1.508,,,,,,,,0,59,59,73,1,stimuli/objects/baseballglove.jpg,left,old,217,,,,,,,,
,,,,,,,,6,2021-04-13_12h39.46.023,premceCat2_ses-02_part-02_label-phase2,2020.2.10,MacIntel,60,,,,,left,1.899,4,1.292,right,0.501,0,0,0,0,1,,,,,,,,,,,,,,,,,
,,,,,,,,6,2021-04-13_12h39.46.023,premceCat2_ses-02_part-02_label-phase2,2020.2.10,MacIntel,60,,,,,,,,,,,,,,,,0,60,60,36,1,stimuli/objects/loppingshears.jpg,right,new,180,,,,,,,,
,,,,,,,,6,2021-04-13_12h39.46.023,premceCat2_ses-02_part-02_label-phase2,2020.2.10,MacIntel,60,,,,,right,1.967,1,1.775,,,,,,,,0,61,61,76,1,stimuli/objects/headphones02b.jpg,left,old,220,,,,,,,,
,,,,,,,,6,2021-04-13_12h39.46.023,premceCat2_ses-02_part-02_label-phase2,2020.2.10,MacIntel,60,,,,,left,1.426,4,3.21,left,0.91,0,0,0,0,1,,,,,,,,,,,,,,,,,
,,,,,,,,6,2021-04-13_12h39.46.023,premceCat2_ses-02_part-02_label-phase2,2020.2.10,MacIntel,60,,,,,,,,,,,,,,,,0,62,62,38,1,stimuli/objects/breadknife.jpg,left,old,182,,,,,,,,
,,,,,,,,6,2021-04-13_12h39.46.023,premceCat2_ses-02_part-02_label-phase2,2020.2.10,MacIntel,60,,,,,left,1.83,4,1.18,left,0.91,0,0,0,0,1,,,,,,,,,,,,,,,,,
,,,,,,,,6,2021-04-13_12h39.46.023,premceCat2_ses-02_part-02_label-phase2,2020.2.10,MacIntel,60,,,,,,,,,,,,,,,,0,63,63,109,1,stimuli/objects/toothpick02.jpg,left,old,253,,,,,,,,
,,,,,,,,6,2021-04-13_12h39.46.023,premceCat2_ses-02_part-02_label-phase2,2020.2.10,MacIntel,60,,,,,left,1.224,3,1.483,left,0.88,0,0,0,0,1,,,,,,,,,,,,,,,,,
,,,,,,,,6,2021-04-13_12h39.46.023,premceCat2_ses-02_part-02_label-phase2,2020.2.10,MacIntel,60,,,,,,,,,,,,,,,,0,64,64,31,1,stimuli/objects/soccerball.jpg,left,old,175,,,,,,,,
,,,,,,,,6,2021-04-13_12h39.46.023,premceCat2_ses-02_part-02_label-phase2,2020.2.10,MacIntel,60,,,,,left,1.536,4,1.415,left,0.771,0,0,0,0,1,,,,,,,,,,,,,,,,,
,,,,,,,,6,2021-04-13_12h39.46.023,premceCat2_ses-02_part-02_label-phase2,2020.2.10,MacIntel,60,,,,,,,,,,,,,,,,0,65,65,23,1,stimuli/objects/snowboard.jpg,left,old,167,,,,,,,,
,,,,,,,,6,2021-04-13_12h39.46.023,premceCat2_ses-02_part-02_label-phase2,2020.2.10,MacIntel,60,,,,,left,1.467,3,1.501,right,1.765,0,0,0,0,1,,,,,,,,,,,,,,,,,
,,,,,,,,6,2021-04-13_12h39.46.023,premceCat2_ses-02_part-02_label-phase2,2020.2.10,MacIntel,60,,,,,,,,,,,,,,,,0,66,66,108,1,stimuli/objects/telephone01b.jpg,left,old,252,,,,,,,,
,,,,,,,,6,2021-04-13_12h39.46.023,premceCat2_ses-02_part-02_label-phase2,2020.2.10,MacIntel,60,,,,,left,4.436,1,1.507,right,0.838,0,0,0,0,1,,,,,,,,,,,,,,,,,
,,,,,,,,6,2021-04-13_12h39.46.023,premceCat2_ses-02_part-02_label-phase2,2020.2.10,MacIntel,60,,,,,,,,,,,,,,,,0,67,67,140,1,stimuli/objects/wineglass01.jpg,right,new,284,,,,,,,,
,,,,,,,,6,2021-04-13_12h39.46.023,premceCat2_ses-02_part-02_label-phase2,2020.2.10,MacIntel,60,,,,,left,1.245,4,1.38,left,1.195,0,0,0,0,1,,,,,,,,,,,,,,,,,
,,,,,,,,6,2021-04-13_12h39.46.023,premceCat2_ses-02_part-02_label-phase2,2020.2.10,MacIntel,60,,,,,,,,,,,,,,,,0,68,68,14,1,stimuli/objects/fishingrod.jpg,left,old,158,,,,,,,,
,,,,,,,,6,2021-04-13_12h39.46.023,premceCat2_ses-02_part-02_label-phase2,2020.2.10,MacIntel,60,,,,,left,1.765,4,1.592,right,1.837,0,0,0,0,1,,,,,,,,,,,,,,,,,
,,,,,,,,6,2021-04-13_12h39.46.023,premceCat2_ses-02_part-02_label-phase2,2020.2.10,MacIntel,60,,,,,,,,,,,,,,,,0,69,69,65,1,stimuli/objects/bucket02.jpg,left,old,209,,,,,,,,
,,,,,,,,6,2021-04-13_12h39.46.023,premceCat2_ses-02_part-02_label-phase2,2020.2.10,MacIntel,60,,,,,left,2.442,4,1.455,right,0.459,0,0,0,0,1,,,,,,,,,,,,,,,,,
,,,,,,,,6,2021-04-13_12h39.46.023,premceCat2_ses-02_part-02_label-phase2,2020.2.10,MacIntel,60,,,,,,,,,,,,,,,,0,70,70,130,1,stimuli/objects/fuse.jpg,left,old,274,,,,,,,,
,,,,,,,,6,2021-04-13_12h39.46.023,premceCat2_ses-02_part-02_label-phase2,2020.2.10,MacIntel,60,,,,,right,2.472,4,1.065,,,,,,,,0,71,71,46,1,stimuli/objects/waterbottleholder.jpg,right,new,190,,,,,,,,
,,,,,,,,6,2021-04-13_12h39.46.023,premceCat2_ses-02_part-02_label-phase2,2020.2.10,MacIntel,60,,,,,left,1.934,4,1.458,left,0.969,0,0,0,0,1,,,,,,,,,,,,,,,,,
,,,,,,,,6,2021-04-13_12h39.46.023,premceCat2_ses-02_part-02_label-phase2,2020.2.10,MacIntel,60,,,,,,,,,,,,,,,,0,72,72,90,1,stimuli/objects/toyhockeystick01.jpg,left,old,234,,,,,,,,
,,,,,,,,6,2021-04-13_12h39.46.023,premceCat2_ses-02_part-02_label-phase2,2020.2.10,MacIntel,60,,,,,right,1.044,4,1.086,,,,,,,,0,73,73,103,1,stimuli/objects/swissarmyknife01a.jpg,right,new,247,,,,,,,,
,,,,,,,,6,2021-04-13_12h39.46.023,premceCat2_ses-02_part-02_label-phase2,2020.2.10,MacIntel,60,,,,,right,4.403,1,1.417,,,,,,,,0,74,74,105,1,stimuli/objects/pitcher02b.jpg,left,old,249,,,,,,,,
,,,,,,,,6,2021-04-13_12h39.46.023,premceCat2_ses-02_part-02_label-phase2,2020.2.10,MacIntel,60,,,,,left,1.84,2,1.229,left,1.292,0,0,0,0,1,,,,,,,,,,,,,,,,,
,,,,,,,,6,2021-04-13_12h39.46.023,premceCat2_ses-02_part-02_label-phase2,2020.2.10,MacIntel,60,,,,,,,,,,,,,,,,0,75,75,42,1,stimuli/objects/tennisracket.jpg,right,new,186,,,,,,,,
,,,,,,,,6,2021-04-13_12h39.46.023,premceCat2_ses-02_part-02_label-phase2,2020.2.10,MacIntel,60,,,,,left,1.785,3,1.18,left,0.801,0,0,0,0,1,,,,,,,,,,,,,,,,,
,,,,,,,,6,2021-04-13_12h39.46.023,premceCat2_ses-02_part-02_label-phase2,2020.2.10,MacIntel,60,,,,,,,,,,,,,,,,0,76,76,97,1,stimuli/objects/tupperware03a.jpg,left,old,241,,,,,,,,
,,,,,,,,6,2021-04-13_12h39.46.023,premceCat2_ses-02_part-02_label-phase2,2020.2.10,MacIntel,60,,,,,right,1.307,4,1.277,,,,,,,,0,77,77,2,1,stimuli/objects/wetfloorsign.jpg,right,new,146,,,,,,,,
,,,,,,,,6,2021-04-13_12h39.46.023,premceCat2_ses-02_part-02_label-phase2,2020.2.10,MacIntel,60,,,,,right,1.525,4,1.866,,,,,,,,0,78,78,55,1,stimuli/objects/fonduefork01.jpg,right,new,199,,,,,,,,
,,,,,,,,6,2021-04-13_12h39.46.023,premceCat2_ses-02_part-02_label-phase2,2020.2.10,MacIntel,60,,,,,right,2.838,1,0.915,,,,,,,,0,79,79,128,1,stimuli/objects/spoon01.jpg,left,old,272,,,,,,,,
,,,,,,,,6,2021-04-13_12h39.46.023,premceCat2_ses-02_part-02_label-phase2,2020.2.10,MacIntel,60,,,,,right,1.254,1,0.898,,,,,,,,0,80,80,81,1,stimuli/objects/grill.jpg,right,new,225,,,,,,,,
,,,,,,,,6,2021-04-13_12h39.46.023,premceCat2_ses-02_part-02_label-phase2,2020.2.10,MacIntel,60,,,,,right,1.5,4,2.27,,,,,,,,0,81,81,59,1,stimuli/objects/speedball.jpg,right,new,203,,,,,,,,
,,,,,,,,6,2021-04-13_12h39.46.023,premceCat2_ses-02_part-02_label-phase2,2020.2.10,MacIntel,60,,,,,left,1.47,4,2.222,left,0.998,0,0,0,0,1,,,,,,,,,,,,,,,,,
,,,,,,,,6,2021-04-13_12h39.46.023,premceCat2_ses-02_part-02_label-phase2,2020.2.10,MacIntel,60,,,,,,,,,,,,,,,,0,82,82,115,1,stimuli/objects/tray.jpg,left,old,259,,,,,,,,
,,,,,,,,6,2021-04-13_12h39.46.023,premceCat2_ses-02_part-02_label-phase2,2020.2.10,MacIntel,60,,,,,left,1.691,4,1.328,right,0.535,0,0,0,0,1,,,,,,,,,,,,,,,,,
,,,,,,,,6,2021-04-13_12h39.46.023,premceCat2_ses-02_part-02_label-phase2,2020.2.10,MacIntel,60,,,,,,,,,,,,,,,,0,83,83,104,1,stimuli/objects/alarmclock01.jpg,left,old,248,,,,,,,,
,,,,,,,,6,2021-04-13_12h39.46.023,premceCat2_ses-02_part-02_label-phase2,2020.2.10,MacIntel,60,,,,,right,1.9,4,1.311,,,,,,,,0,84,84,9,1,stimuli/objects/alarmsystem.jpg,right,new,153,,,,,,,,
,,,,,,,,6,2021-04-13_12h39.46.023,premceCat2_ses-02_part-02_label-phase2,2020.2.10,MacIntel,60,,,,,left,1.504,4,1.543,left,0.944,0,0,0,0,1,,,,,,,,,,,,,,,,,
,,,,,,,,6,2021-04-13_12h39.46.023,premceCat2_ses-02_part-02_label-phase2,2020.2.10,MacIntel,60,,,,,,,,,,,,,,,,0,85,85,77,1,stimuli/objects/contactlens.jpg,left,old,221,,,,,,,,
,,,,,,,,6,2021-04-13_12h39.46.023,premceCat2_ses-02_part-02_label-phase2,2020.2.10,MacIntel,60,,,,,left,2.267,3,1.847,right,0.679,0,0,0,0,1,,,,,,,,,,,,,,,,,
,,,,,,,,6,2021-04-13_12h39.46.023,premceCat2_ses-02_part-02_label-phase2,2020.2.10,MacIntel,60,,,,,,,,,,,,,,,,0,86,86,53,1,stimuli/objects/metalbrush.jpg,left,old,197,,,,,,,,
,,,,,,,,6,2021-04-13_12h39.46.023,premceCat2_ses-02_part-02_label-phase2,2020.2.10,MacIntel,60,,,,,right,1.305,4,1.434,,,,,,,,0,87,87,60,1,stimuli/objects/kite.jpg,right,new,204,,,,,,,,
,,,,,,,,6,2021-04-13_12h39.46.023,premceCat2_ses-02_part-02_label-phase2,2020.2.10,MacIntel,60,,,,,right,1.096,4,1.629,,,,,,,,0,88,88,51,1,stimuli/objects/cheeseknife01.jpg,right,new,195,,,,,,,,
,,,,,,,,6,2021-04-13_12h39.46.023,premceCat2_ses-02_part-02_label-phase2,2020.2.10,MacIntel,60,,,,,left,1.517,4,2.366,left,0.844,0,0,0,0,1,,,,,,,,,,,,,,,,,
,,,,,,,,6,2021-04-13_12h39.46.023,premceCat2_ses-02_part-02_label-phase2,2020.2.10,MacIntel,60,,,,,,,,,,,,,,,,0,89,89,117,1,stimuli/objects/poolnet.jpg,left,old,261,,,,,,,,
,,,,,,,,6,2021-04-13_12h39.46.023,premceCat2_ses-02_part-02_label-phase2,2020.2.10,MacIntel,60,,,,,right,2.014,4,1.157,,,,,,,,0,90,90,127,1,stimuli/objects/skigoggles01.jpg,right,new,271,,,,,,,,
,,,,,,,,6,2021-04-13_12h39.46.023,premceCat2_ses-02_part-02_label-phase2,2020.2.10,MacIntel,60,,,,,right,1.402,4,1.416,,,,,,,,0,91,91,114,1,stimuli/objects/drinkshaker.jpg,right,new,258,,,,,,,,
,,,,,,,,6,2021-04-13_12h39.46.023,premceCat2_ses-02_part-02_label-phase2,2020.2.10,MacIntel,60,,,,,left,1.336,4,2.98,left,0.649,0,0,0,0,1,,,,,,,,,,,,,,,,,
,,,,,,,,6,2021-04-13_12h39.46.023,premceCat2_ses-02_part-02_label-phase2,2020.2.10,MacIntel,60,,,,,,,,,,,,,,,,0,92,92,50,1,stimuli/objects/hockeygoaliemask.jpg,left,old,194,,,,,,,,
,,,,,,,,6,2021-04-13_12h39.46.023,premceCat2_ses-02_part-02_label-phase2,2020.2.10,MacIntel,60,,,,,right,1.18,4,1.129,,,,,,,,0,93,93,48,1,stimuli/objects/eggslicer.jpg,right,new,192,,,,,,,,
,,,,,,,,6,2021-04-13_12h39.46.023,premceCat2_ses-02_part-02_label-phase2,2020.2.10,MacIntel,60,,,,,left,3.157,3,3.015,left,1.018,0,0,0,0,1,,,,,,,,,,,,,,,,,
,,,,,,,,6,2021-04-13_12h39.46.023,premceCat2_ses-02_part-02_label-phase2,2020.2.10,MacIntel,60,,,,,,,,,,,,,,,,0,94,94,95,1,stimuli/objects/tennisball01b.jpg,right,new,239,,,,,,,,
,,,,,,,,6,2021-04-13_12h39.46.023,premceCat2_ses-02_part-02_label-phase2,2020.2.10,MacIntel,60,,,,,left,1.269,4,1.557,left,0.86,0,0,0,0,1,,,,,,,,,,,,,,,,,
,,,,,,,,6,2021-04-13_12h39.46.023,premceCat2_ses-02_part-02_label-phase2,2020.2.10,MacIntel,60,,,,,,,,,,,,,,,,0,95,95,71,1,stimuli/objects/handgripper.jpg,left,old,215,,,,,,,,
,,,,,,,,6,2021-04-13_12h39.46.023,premceCat2_ses-02_part-02_label-phase2,2020.2.10,MacIntel,60,,,,,left,3.402,4,2.073,right,0.399,0,0,0,0,1,,,,,,,,,,,,,,,,,
,,,,,,,,6,2021-04-13_12h39.46.023,premceCat2_ses-02_part-02_label-phase2,2020.2.10,MacIntel,60,,,,,,,,,,,,,,,,0,96,96,134,1,stimuli/objects/carantenna.jpg,left,old,278,,,,,,,,
,,,,,,,,6,2021-04-13_12h39.46.023,premceCat2_ses-02_part-02_label-phase2,2020.2.10,MacIntel,60,,,,,left,1.4,4,1.377,right,0.547,0,0,0,0,1,,,,,,,,,,,,,,,,,
,,,,,,,,6,2021-04-13_12h39.46.023,premceCat2_ses-02_part-02_label-phase2,2020.2.10,MacIntel,60,,,,,,,,,,,,,,,,0,97,97,22,1,stimuli/objects/paintroller01.jpg,left,old,166,,,,,,,,
,,,,,,,,6,2021-04-13_12h39.46.023,premceCat2_ses-02_part-02_label-phase2,2020.2.10,MacIntel,60,,,,,right,3.979,2,2.198,,,,,,,,0,98,98,30,1,stimuli/objects/halogenlightbulb.jpg,right,new,174,,,,,,,,
,,,,,,,,6,2021-04-13_12h39.46.023,premceCat2_ses-02_part-02_label-phase2,2020.2.10,MacIntel,60,,,,,right,1.549,4,1.265,,,,,,,,0,99,99,80,1,stimuli/objects/barbecue03.jpg,right,new,224,,,,,,,,
,,,,,,,,6,2021-04-13_12h39.46.023,premceCat2_ses-02_part-02_label-phase2,2020.2.10,MacIntel,60,,,,,right,1.58,3,1.669,,,,,,,,0,100,100,24,1,stimuli/objects/monitor.jpg,right,new,168,,,,,,,,
,,,,,,,,6,2021-04-13_12h39.46.023,premceCat2_ses-02_part-02_label-phase2,2020.2.10,MacIntel,60,,,,,right,1.423,4,1.326,,,,,,,,0,101,101,87,1,stimuli/objects/wiicontroller.jpg,right,new,231,,,,,,,,
,,,,,,,,6,2021-04-13_12h39.46.023,premceCat2_ses-02_part-02_label-phase2,2020.2.10,MacIntel,60,,,,,right,1.248,4,1.896,,,,,,,,0,102,102,98,1,stimuli/objects/cameracase01a.jpg,right,new,242,,,,,,,,
,,,,,,,,6,2021-04-13_12h39.46.023,premceCat2_ses-02_part-02_label-phase2,2020.2.10,MacIntel,60,,,,,right,0.939,4,0.911,,,,,,,,0,103,103,41,1,stimuli/objects/flask.jpg,right,new,185,,,,,,,,
,,,,,,,,6,2021-04-13_12h39.46.023,premceCat2_ses-02_part-02_label-phase2,2020.2.10,MacIntel,60,,,,,right,1.372,1,1.337,,,,,,,,0,104,104,125,1,stimuli/objects/sewingmachine01a.jpg,left,old,269,,,,,,,,
,,,,,,,,6,2021-04-13_12h39.46.023,premceCat2_ses-02_part-02_label-phase2,2020.2.10,MacIntel,60,,,,,left,1.397,4,1.474,right,0.802,0,0,0,0,1,,,,,,,,,,,,,,,,,
,,,,,,,,6,2021-04-13_12h39.46.023,premceCat2_ses-02_part-02_label-phase2,2020.2.10,MacIntel,60,,,,,,,,,,,,,,,,0,105,105,13,1,stimuli/objects/bungeecord02.jpg,left,old,157,,,,,,,,
,,,,,,,,6,2021-04-13_12h39.46.023,premceCat2_ses-02_part-02_label-phase2,2020.2.10,MacIntel,60,,,,,right,3.025,2,1.327,,,,,,,,0,106,106,92,1,stimuli/objects/snowshovel.jpg,left,old,236,,,,,,,,
,,,,,,,,6,2021-04-13_12h39.46.023,premceCat2_ses-02_part-02_label-phase2,2020.2.10,MacIntel,60,,,,,left,1.465,3,3.944,left,0.914,0,0,0,0,1,,,,,,,,,,,,,,,,,
,,,,,,,,6,2021-04-13_12h39.46.023,premceCat2_ses-02_part-02_label-phase2,2020.2.10,MacIntel,60,,,,,,,,,,,,,,,,0,107,107,20,1,stimuli/objects/bikehelmet.jpg,left,old,164,,,,,,,,
,,,,,,,,6,2021-04-13_12h39.46.023,premceCat2_ses-02_part-02_label-phase2,2020.2.10,MacIntel,60,,,,,right,1.397,4,1.506,,,,,,,,0,108,108,101,1,stimuli/objects/lifejacket.jpg,right,new,245,,,,,,,,
,,,,,,,,6,2021-04-13_12h39.46.023,premceCat2_ses-02_part-02_label-phase2,2020.2.10,MacIntel,60,,,,,left,1.308,2,3.144,left,0.986,0,0,0,0,1,,,,,,,,,,,,,,,,,
,,,,,,,,6,2021-04-13_12h39.46.023,premceCat2_ses-02_part-02_label-phase2,2020.2.10,MacIntel,60,,,,,,,,,,,,,,,,0,109,109,110,1,stimuli/objects/skiboot01a.jpg,left,old,254,,,,,,,,
,,,,,,,,6,2021-04-13_12h39.46.023,premceCat2_ses-02_part-02_label-phase2,2020.2.10,MacIntel,60,,,,,left,1.637,3,1.103,left,1.007,0,0,0,0,1,,,,,,,,,,,,,,,,,
,,,,,,,,6,2021-04-13_12h39.46.023,premceCat2_ses-02_part-02_label-phase2,2020.2.10,MacIntel,60,,,,,,,,,,,,,,,,0,110,110,57,1,stimuli/objects/swimgoggles.jpg,left,old,201,,,,,,,,
,,,,,,,,6,2021-04-13_12h39.46.023,premceCat2_ses-02_part-02_label-phase2,2020.2.10,MacIntel,60,,,,,left,1.257,4,1.151,right,0.544,0,0,0,0,1,,,,,,,,,,,,,,,,,
,,,,,,,,6,2021-04-13_12h39.46.023,premceCat2_ses-02_part-02_label-phase2,2020.2.10,MacIntel,60,,,,,,,,,,,,,,,,0,111,111,29,1,stimuli/objects/chandelier.jpg,left,old,173,,,,,,,,
,,,,,,,,6,2021-04-13_12h39.46.023,premceCat2_ses-02_part-02_label-phase2,2020.2.10,MacIntel,60,,,,,left,2.087,4,1.277,right,0.508,0,0,0,0,1,,,,,,,,,,,,,,,,,
,,,,,,,,6,2021-04-13_12h39.46.023,premceCat2_ses-02_part-02_label-phase2,2020.2.10,MacIntel,60,,,,,,,,,,,,,,,,0,112,112,61,1,stimuli/objects/jumpercables.jpg,left,old,205,,,,,,,,
,,,,,,,,6,2021-04-13_12h39.46.023,premceCat2_ses-02_part-02_label-phase2,2020.2.10,MacIntel,60,,,,,left,1.535,4,1.468,right,0.65,0,0,0,0,1,,,,,,,,,,,,,,,,,
,,,,,,,,6,2021-04-13_12h39.46.023,premceCat2_ses-02_part-02_label-phase2,2020.2.10,MacIntel,60,,,,,,,,,,,,,,,,0,113,113,118,1,stimuli/objects/pliers02b.jpg,left,old,262,,,,,,,,
,,,,,,,,6,2021-04-13_12h39.46.023,premceCat2_ses-02_part-02_label-phase2,2020.2.10,MacIntel,60,,,,,left,3.286,2,1.41,right,0.423,0,0,0,0,1,,,,,,,,,,,,,,,,,
,,,,,,,,6,2021-04-13_12h39.46.023,premceCat2_ses-02_part-02_label-phase2,2020.2.10,MacIntel,60,,,,,,,,,,,,,,,,0,114,114,112,1,stimuli/objects/slidetray.jpg,left,old,256,,,,,,,,
,,,,,,,,6,2021-04-13_12h39.46.023,premceCat2_ses-02_part-02_label-phase2,2020.2.10,MacIntel,60,,,,,left,1.823,1,2.11,left,0.904,0,0,0,0,1,,,,,,,,,,,,,,,,,
,,,,,,,,6,2021-04-13_12h39.46.023,premceCat2_ses-02_part-02_label-phase2,2020.2.10,MacIntel,60,,,,,,,,,,,,,,,,0,115,115,19,1,stimuli/objects/mug01.jpg,right,new,163,,,,,,,,
,,,,,,,,6,2021-04-13_12h39.46.023,premceCat2_ses-02_part-02_label-phase2,2020.2.10,MacIntel,60,,,,,left,2.185,3,1.166,left,0.909,0,0,0,0,1,,,,,,,,,,,,,,,,,
,,,,,,,,6,2021-04-13_12h39.46.023,premceCat2_ses-02_part-02_label-phase2,2020.2.10,MacIntel,60,,,,,,,,,,,,,,,,0,116,116,102,1,stimuli/objects/beachumbrella01.jpg,right,new,246,,,,,,,,
,,,,,,,,6,2021-04-13_12h39.46.023,premceCat2_ses-02_part-02_label-phase2,2020.2.10,MacIntel,60,,,,,left,1.765,4,1.307,left,0.914,0,0,0,0,1,,,,,,,,,,,,,,,,,
,,,,,,,,6,2021-04-13_12h39.46.023,premceCat2_ses-02_part-02_label-phase2,2020.2.10,MacIntel,60,,,,,,,,,,,,,,,,0,117,117,84,1,stimuli/objects/patioumbrella.jpg,left,old,228,,,,,,,,
,,,,,,,,6,2021-04-13_12h39.46.023,premceCat2_ses-02_part-02_label-phase2,2020.2.10,MacIntel,60,,,,,left,1.631,2,1.655,right,0.389,0,0,0,0,1,,,,,,,,,,,,,,,,,
,,,,,,,,6,2021-04-13_12h39.46.023,premceCat2_ses-02_part-02_label-phase2,2020.2.10,MacIntel,60,,,,,,,,,,,,,,,,0,118,118,132,1,stimuli/objects/wirestripper.jpg,right,new,276,,,,,,,,
,,,,,,,,6,2021-04-13_12h39.46.023,premceCat2_ses-02_part-02_label-phase2,2020.2.10,MacIntel,60,,,,,right,1.837,2,1.395,,,,,,,,0,119,119,129,1,stimuli/objects/hoe.jpg,left,old,273,,,,,,,,
,,,,,,,,6,2021-04-13_12h39.46.023,premceCat2_ses-02_part-02_label-phase2,2020.2.10,MacIntel,60,,,,,right,2.196,3,1.876,,,,,,,,0,120,120,120,1,stimuli/objects/tent.jpg,right,new,264,,,,,,,,
,,,,,,,,6,2021-04-13_12h39.46.023,premceCat2_ses-02_part-02_label-phase2,2020.2.10,MacIntel,60,,,,,left,3.367,1,0.941,right,0.35,0,0,0,0,1,,,,,,,,,,,,,,,,,
,,,,,,,,6,2021-04-13_12h39.46.023,premceCat2_ses-02_part-02_label-phase2,2020.2.10,MacIntel,60,,,,,,,,,,,,,,,,0,121,121,70,1,stimuli/objects/shovel01.jpg,right,new,214,,,,,,,,
,,,,,,,,6,2021-04-13_12h39.46.023,premceCat2_ses-02_part-02_label-phase2,2020.2.10,MacIntel,60,,,,,right,1.868,4,1.465,,,,,,,,0,122,122,35,1,stimuli/objects/stroller.jpg,right,new,179,,,,,,,,
,,,,,,,,6,2021-04-13_12h39.46.023,premceCat2_ses-02_part-02_label-phase2,2020.2.10,MacIntel,60,,,,,left,1.995,2,2.934,right,0.342,0,0,0,0,1,,,,,,,,,,,,,,,,,
,,,,,,,,6,2021-04-13_12h39.46.023,premceCat2_ses-02_part-02_label-phase2,2020.2.10,MacIntel,60,,,,,,,,,,,,,,,,0,123,123,100,1,stimuli/objects/caulking.jpg,left,old,244,,,,,,,,
,,,,,,,,6,2021-04-13_12h39.46.023,premceCat2_ses-02_part-02_label-phase2,2020.2.10,MacIntel,60,,,,,right,4.323,3,1.443,,,,,,,,0,124,124,0,1,stimuli/objects/smokedetector02.jpg,right,new,144,,,,,,,,
,,,,,,,,6,2021-04-13_12h39.46.023,premceCat2_ses-02_part-02_label-phase2,2020.2.10,MacIntel,60,,,,,left,1.571,3,1.394,right,0.328,0,0,0,0,1,,,,,,,,,,,,,,,,,
,,,,,,,,6,2021-04-13_12h39.46.023,premceCat2_ses-02_part-02_label-phase2,2020.2.10,MacIntel,60,,,,,,,,,,,,,,,,0,125,125,21,1,stimuli/objects/drill01b.jpg,left,old,165,,,,,,,,
,,,,,,,,6,2021-04-13_12h39.46.023,premceCat2_ses-02_part-02_label-phase2,2020.2.10,MacIntel,60,,,,,left,2.372,2,1.894,right,0.341,0,0,0,0,1,,,,,,,,,,,,,,,,,
,,,,,,,,6,2021-04-13_12h39.46.023,premceCat2_ses-02_part-02_label-phase2,2020.2.10,MacIntel,60,,,,,,,,,,,,,,,,0,126,126,45,1,stimuli/objects/charcoalbarbecue.jpg,left,old,189,,,,,,,,
,,,,,,,,6,2021-04-13_12h39.46.023,premceCat2_ses-02_part-02_label-phase2,2020.2.10,MacIntel,60,,,,,left,2.517,3,1.135,left,0.676,0,0,0,0,1,,,,,,,,,,,,,,,,,
,,,,,,,,6,2021-04-13_12h39.46.023,premceCat2_ses-02_part-02_label-phase2,2020.2.10,MacIntel,60,,,,,,,,,,,,,,,,0,127,127,7,1,stimuli/objects/butterknife.jpg,left,old,151,,,,,,,,
,,,,,,,,6,2021-04-13_12h39.46.023,premceCat2_ses-02_part-02_label-phase2,2020.2.10,MacIntel,60,,,,,right,1.711,3,1.781,,,,,,,,0,128,128,49,1,stimuli/objects/cakeplatter.jpg,right,new,193,,,,,,,,
,,,,,,,,6,2021-04-13_12h39.46.023,premceCat2_ses-02_part-02_label-phase2,2020.2.10,MacIntel,60,,,,,right,1.642,4,1.362,,,,,,,,0,129,129,131,1,stimuli/objects/handblender.jpg,right,new,275,,,,,,,,
,,,,,,,,6,2021-04-13_12h39.46.023,premceCat2_ses-02_part-02_label-phase2,2020.2.10,MacIntel,60,,,,,right,1.138,2,4.103,,,,,,,,0,130,130,75,1,stimuli/objects/mallet01b.jpg,left,old,219,,,,,,,,
,,,,,,,,6,2021-04-13_12h39.46.023,premceCat2_ses-02_part-02_label-phase2,2020.2.10,MacIntel,60,,,,,left,1.383,4,1.616,left,0.774,0,0,0,0,1,,,,,,,,,,,,,,,,,
,,,,,,,,6,2021-04-13_12h39.46.023,premceCat2_ses-02_part-02_label-phase2,2020.2.10,MacIntel,60,,,,,,,,,,,,,,,,0,131,131,88,1,stimuli/objects/magneticcompass.jpg,left,old,232,,,,,,,,
,,,,,,,,6,2021-04-13_12h39.46.023,premceCat2_ses-02_part-02_label-phase2,2020.2.10,MacIntel,60,,,,,left,1.552,1,2.313,left,0.884,0,0,0,0,1,,,,,,,,,,,,,,,,,
,,,,,,,,6,2021-04-13_12h39.46.023,premceCat2_ses-02_part-02_label-phase2,2020.2.10,MacIntel,60,,,,,,,,,,,,,,,,0,132,132,89,1,stimuli/objects/cleaver01.jpg,left,old,233,,,,,,,,
,,,,,,,,6,2021-04-13_12h39.46.023,premceCat2_ses-02_part-02_label-phase2,2020.2.10,MacIntel,60,,,,,right,1.402,4,1.436,,,,,,,,0,133,133,26,1,stimuli/objects/flashlight02b.jpg,right,new,170,,,,,,,,
,,,,,,,,6,2021-04-13_12h39.46.023,premceCat2_ses-02_part-02_label-phase2,2020.2.10,MacIntel,60,,,,,right,1.349,4,1.169,,,,,,,,0,134,134,28,1,stimuli/objects/canister.jpg,left,old,172,,,,,,,,
,,,,,,,,6,2021-04-13_12h39.46.023,premceCat2_ses-02_part-02_label-phase2,2020.2.10,MacIntel,60,,,,,right,2.402,1,1.205,,,,,,,,0,135,135,47,1,stimuli/objects/plate01b.jpg,right,new,191,,,,,,,,
,,,,,,,,6,2021-04-13_12h39.46.023,premceCat2_ses-02_part-02_label-phase2,2020.2.10,MacIntel,60,,,,,left,1.578,1,1.274,left,0.934,0,0,0,0,1,,,,,,,,,,,,,,,,,
,,,,,,,,6,2021-04-13_12h39.46.023,premceCat2_ses-02_part-02_label-phase2,2020.2.10,MacIntel,60,,,,,,,,,,,,,,,,0,136,136,15,1,stimuli/objects/computermouse06.jpg,right,new,159,,,,,,,,
,,,,,,,,6,2021-04-13_12h39.46.023,premceCat2_ses-02_part-02_label-phase2,2020.2.10,MacIntel,60,,,,,left,1.269,2,0.918,left,0.696,0,0,0,0,1,,,,,,,,,,,,,,,,,
,,,,,,,,6,2021-04-13_12h39.46.023,premceCat2_ses-02_part-02_label-phase2,2020.2.10,MacIntel,60,,,,,,,,,,,,,,,,0,137,137,68,1,stimuli/objects/ladle02a.jpg,right,new,212,,,,,,,,
,,,,,,,,6,2021-04-13_12h39.46.023,premceCat2_ses-02_part-02_label-phase2,2020.2.10,MacIntel,60,,,,,right,1.633,2,1.585,,,,,,,,0,138,138,34,1,stimuli/objects/kneepad01c.jpg,right,new,178,,,,,,,,
,,,,,,,,6,2021-04-13_12h39.46.023,premceCat2_ses-02_part-02_label-phase2,2020.2.10,MacIntel,60,,,,,right,1.497,2,2.295,,,,,,,,0,139,139,124,1,stimuli/objects/basketball01.jpg,right,new,268,,,,,,,,
,,,,,,,,6,2021-04-13_12h39.46.023,premceCat2_ses-02_part-02_label-phase2,2020.2.10,MacIntel,60,,,,,left,1.531,2,1.141,left,1.243,0,0,0,0,1,,,,,,,,,,,,,,,,,
,,,,,,,,6,2021-04-13_12h39.46.023,premceCat2_ses-02_part-02_label-phase2,2020.2.10,MacIntel,60,,,,,,,,,,,,,,,,0,140,140,3,1,stimuli/objects/boxingglove01.jpg,right,new,147,,,,,,,,
,,,,,,,,6,2021-04-13_12h39.46.023,premceCat2_ses-02_part-02_label-phase2,2020.2.10,MacIntel,60,,,,,left,1.383,4,2.082,right,0.443,0,0,0,0,1,,,,,,,,,,,,,,,,,
,,,,,,,,6,2021-04-13_12h39.46.023,premceCat2_ses-02_part-02_label-phase2,2020.2.10,MacIntel,60,,,,,,,,,,,,,,,,0,141,141,72,1,stimuli/objects/wheel01.jpg,left,old,216,,,,,,,,
,,,,,,,,6,2021-04-13_12h39.46.023,premceCat2_ses-02_part-02_label-phase2,2020.2.10,MacIntel,60,,,,,right,1.798,2,1.229,,,,,,,,0,142,142,96,1,stimuli/objects/wateringcan.jpg,left,old,240,,,,,,,,
,,,,,,,,6,2021-04-13_12h39.46.023,premceCat2_ses-02_part-02_label-phase2,2020.2.10,MacIntel,60,,,,,,,,,,,,,,,,,,,,,,,,,space,265.444,0,0,0,1,1,condition_files/ImagesforRecog3_2.csv
,,,,,,,,6,2021-04-13_12h39.46.023,premceCat2_ses-02_part-02_label-phase2,2020.2.10,MacIntel,60,,,,,left,2.871,3,2.324,left,0.893,0,0,0,0,1,,,,,,,,,,,,,,,,,
,,,,,,,,6,2021-04-13_12h39.46.023,premceCat2_ses-02_part-02_label-phase2,2020.2.10,MacIntel,60,,,,,,,,,,,,,,,,0,0,0,48,1,stimuli/objects/woodenspoon.jpg,left,old,49,,,,,,,,
,,,,,,,,6,2021-04-13_12h39.46.023,premceCat2_ses-02_part-02_label-phase2,2020.2.10,MacIntel,60,,,,,right,1.596,3,1.623,,,,,,,,0,1,1,117,1,stimuli/objects/videotape01b.jpg,right,new,118,,,,,,,,
,,,,,,,,6,2021-04-13_12h39.46.023,premceCat2_ses-02_part-02_label-phase2,2020.2.10,MacIntel,60,,,,,right,1.169,4,0.98,,,,,,,,0,2,2,41,1,stimuli/objects/pylon01.jpg,right,new,42,,,,,,,,
,,,,,,,,6,2021-04-13_12h39.46.023,premceCat2_ses-02_part-02_label-phase2,2020.2.10,MacIntel,60,,,,,right,1.055,4,0.963,,,,,,,,0,3,3,96,1,stimuli/objects/golfbag.jpg,right,new,97,,,,,,,,
,,,,,,,,6,2021-04-13_12h39.46.023,premceCat2_ses-02_part-02_label-phase2,2020.2.10,MacIntel,60,,,,,right,1.37,4,0.883,,,,,,,,0,4,4,73,1,stimuli/objects/clock01a.jpg,right,new,74,,,,,,,,
,,,,,,,,6,2021-04-13_12h39.46.023,premceCat2_ses-02_part-02_label-phase2,2020.2.10,MacIntel,60,,,,,right,1.005,4,1.039,,,,,,,,0,5,5,93,1,stimuli/objects/icepack.jpg,right,new,94,,,,,,,,
,,,,,,,,6,2021-04-13_12h39.46.023,premceCat2_ses-02_part-02_label-phase2,2020.2.10,MacIntel,60,,,,,left,1.405,4,1.221,right,0.48,0,0,0,0,1,,,,,,,,,,,,,,,,,
,,,,,,,,6,2021-04-13_12h39.46.023,premceCat2_ses-02_part-02_label-phase2,2020.2.10,MacIntel,60,,,,,,,,,,,,,,,,0,6,6,88,1,stimuli/objects/cork02.jpg,left,old,89,,,,,,,,
,,,,,,,,6,2021-04-13_12h39.46.023,premceCat2_ses-02_part-02_label-phase2,2020.2.10,MacIntel,60,,,,,left,1.217,4,1.341,left,0.777,0,0,0,0,1,,,,,,,,,,,,,,,,,
,,,,,,,,6,2021-04-13_12h39.46.023,premceCat2_ses-02_part-02_label-phase2,2020.2.10,MacIntel,60,,,,,,,,,,,,,,,,0,7,7,10,1,stimuli/objects/desktopcomputer.jpg,left,old,11,,,,,,,,
,,,,,,,,6,2021-04-13_12h39.46.023,premceCat2_ses-02_part-02_label-phase2,2020.2.10,MacIntel,60,,,,,left,2.688,1,0.234,left,0.481,0,0,0,0,1,,,,,,,,,,,,,,,,,
,,,,,,,,6,2021-04-13_12h39.46.023,premceCat2_ses-02_part-02_label-phase2,2020.2.10,MacIntel,60,,,,,,,,,,,,,,,,0,8,8,69,1,stimuli/objects/cellphone.jpg,left,old,70,,,,,,,,
,,,,,,,,6,2021-04-13_12h39.46.023,premceCat2_ses-02_part-02_label-phase2,2020.2.10,MacIntel,60,,,,,left,1.297,4,1.052,left,1.213,0,0,0,0,1,,,,,,,,,,,,,,,,,
,,,,,,,,6,2021-04-13_12h39.46.023,premceCat2_ses-02_part-02_label-phase2,2020.2.10,MacIntel,60,,,,,,,,,,,,,,,,0,9,9,11,1,stimuli/objects/usbkey.jpg,left,old,12,,,,,,,,
,,,,,,,,6,2021-04-13_12h39.46.023,premceCat2_ses-02_part-02_label-phase2,2020.2.10,MacIntel,60,,,,,right,1.139,3,0.964,,,,,,,,0,10,10,55,1,stimuli/objects/toolbox02.jpg,right,new,56,,,,,,,,
,,,,,,,,6,2021-04-13_12h39.46.023,premceCat2_ses-02_part-02_label-phase2,2020.2.10,MacIntel,60,,,,,right,1.303,4,1.08,,,,,,,,0,11,11,109,1,stimuli/objects/winerack.jpg,right,new,110,,,,,,,,
,,,,,,,,6,2021-04-13_12h39.46.023,premceCat2_ses-02_part-02_label-phase2,2020.2.10,MacIntel,60,,,,,right,0.955,4,0.878,,,,,,,,0,12,12,110,1,stimuli/objects/lock03a.jpg,right,new,111,,,,,,,,
,,,,,,,,6,2021-04-13_12h39.46.023,premceCat2_ses-02_part-02_label-phase2,2020.2.10,MacIntel,60,,,,,right,1.365,3,1.327,,,,,,,,0,13,13,21,1,stimuli/objects/paintbrush01.jpg,right,new,22,,,,,,,,
,,,,,,,,6,2021-04-13_12h39.46.023,premceCat2_ses-02_part-02_label-phase2,2020.2.10,MacIntel,60,,,,,right,1.24,3,1.408,,,,,,,,0,14,14,138,1,stimuli/objects/taperecorder.jpg,right,new,139,,,,,,,,
,,,,,,,,6,2021-04-13_12h39.46.023,premceCat2_ses-02_part-02_label-phase2,2020.2.10,MacIntel,60,,,,,left,1.709,3,2.678,left,0.814,0,0,0,0,1,,,,,,,,,,,,,,,,,
,,,,,,,,6,2021-04-13_12h39.46.023,premceCat2_ses-02_part-02_label-phase2,2020.2.10,MacIntel,60,,,,,,,,,,,,,,,,0,15,15,84,1,stimuli/objects/catchermask.jpg,left,old,85,,,,,,,,
,,,,,,,,6,2021-04-13_12h39.46.023,premceCat2_ses-02_part-02_label-phase2,2020.2.10,MacIntel,60,,,,,right,1.066,4,1.181,,,,,,,,0,16,16,131,1,stimuli/objects/spotlight.jpg,right,new,132,,,,,,,,
,,,,,,,,6,2021-04-13_12h39.46.023,premceCat2_ses-02_part-02_label-phase2,2020.2.10,MacIntel,60,,,,,right,1.087,2,2.634,,,,,,,,0,17,17,71,1,stimuli/objects/faxmachine.jpg,right,new,72,,,,,,,,
,,,,,,,,6,2021-04-13_12h39.46.023,premceCat2_ses-02_part-02_label-phase2,2020.2.10,MacIntel,60,,,,,left,1.17,4,1.076,left,0.835,0,0,0,0,1,,,,,,,,,,,,,,,,,
,,,,,,,,6,2021-04-13_12h39.46.023,premceCat2_ses-02_part-02_label-phase2,2020.2.10,MacIntel,60,,,,,,,,,,,,,,,,0,18,18,137,1,stimuli/objects/iceskate.jpg,left,old,138,,,,,,,,
,,,,,,,,6,2021-04-13_12h39.46.023,premceCat2_ses-02_part-02_label-phase2,2020.2.10,MacIntel,60,,,,,right,1.368,1,1.327,,,,,,,,0,19,19,105,1,stimuli/objects/fanblades.jpg,left,old,106,,,,,,,,
,,,,,,,,6,2021-04-13_12h39.46.023,premceCat2_ses-02_part-02_label-phase2,2020.2.10,MacIntel,60,,,,,left,1.63,4,1.527,right,0.601,0,0,0,0,1,,,,,,,,,,,,,,,,,
,,,,,,,,6,2021-04-13_12h39.46.023,premceCat2_ses-02_part-02_label-phase2,2020.2.10,MacIntel,60,,,,,,,,,,,,,,,,0,20,20,122,1,stimuli/objects/atm.jpg,left,old,123,,,,,,,,
,,,,,,,,6,2021-04-13_12h39.46.023,premceCat2_ses-02_part-02_label-phase2,2020.2.10,MacIntel,60,,,,,left,1.75,4,1.513,right,0.348,0,0,0,0,1,,,,,,,,,,,,,,,,,
,,,,,,,,6,2021-04-13_12h39.46.023,premceCat2_ses-02_part-02_label-phase2,2020.2.10,MacIntel,60,,,,,,,,,,,,,,,,0,21,21,101,1,stimuli/objects/gps.jpg,left,old,102,,,,,,,,
,,,,,,,,6,2021-04-13_12h39.46.023,premceCat2_ses-02_part-02_label-phase2,2020.2.10,MacIntel,60,,,,,right,2.098,3,1.461,,,,,,,,0,22,22,82,1,stimuli/objects/snowbrush.jpg,right,new,83,,,,,,,,
,,,,,,,,6,2021-04-13_12h39.46.023,premceCat2_ses-02_part-02_label-phase2,2020.2.10,MacIntel,60,,,,,left,1.342,4,1.462,left,0.639,0,0,0,0,1,,,,,,,,,,,,,,,,,
,,,,,,,,6,2021-04-13_12h39.46.023,premceCat2_ses-02_part-02_label-phase2,2020.2.10,MacIntel,60,,,,,,,,,,,,,,,,0,23,23,3,1,stimuli/objects/bowl02a.jpg,left,old,4,,,,,,,,
,,,,,,,,6,2021-04-13_12h39.46.023,premceCat2_ses-02_part-02_label-phase2,2020.2.10,MacIntel,60,,,,,left,1.759,3,1.382,left,0.533,0,0,0,0,1,,,,,,,,,,,,,,,,,
,,,,,,,,6,2021-04-13_12h39.46.023,premceCat2_ses-02_part-02_label-phase2,2020.2.10,MacIntel,60,,,,,,,,,,,,,,,,0,24,24,124,1,stimuli/objects/bikepump01.jpg,left,old,125,,,,,,,,
,,,,,,,,6,2021-04-13_12h39.46.023,premceCat2_ses-02_part-02_label-phase2,2020.2.10,MacIntel,60,,,,,right,1.163,4,0.994,,,,,,,,0,25,25,128,1,stimuli/objects/tripod01.jpg,right,new,129,,,,,,,,
,,,,,,,,6,2021-04-13_12h39.46.023,premceCat2_ses-02_part-02_label-phase2,2020.2.10,MacIntel,60,,,,,left,1.239,2,1.849,left,0.826,0,0,0,0,1,,,,,,,,,,,,,,,,,
,,,,,,,,6,2021-04-13_12h39.46.023,premceCat2_ses-02_part-02_label-phase2,2020.2.10,MacIntel,60,,,,,,,,,,,,,,,,0,26,26,74,1,stimuli/objects/baseball01a.jpg,left,old,75,,,,,,,,
,,,,,,,,6,2021-04-13_12h39.46.023,premceCat2_ses-02_part-02_label-phase2,2020.2.10,MacIntel,60,,,,,right,1.165,4,1.176,,,,,,,,0,27,27,92,1,stimuli/objects/carjack.jpg,right,new,93,,,,,,,,
,,,,,,,,6,2021-04-13_12h39.46.023,premceCat2_ses-02_part-02_label-phase2,2020.2.10,MacIntel,60,,,,,right,0.876,4,1.147,,,,,,,,0,28,28,68,1,stimuli/objects/leafblower01.jpg,right,new,69,,,,,,,,
,,,,,,,,6,2021-04-13_12h39.46.023,premceCat2_ses-02_part-02_label-phase2,2020.2.10,MacIntel,60,,,,,right,1.004,3,1.414,,,,,,,,0,29,29,60,1,stimuli/objects/glass02a.jpg,right,new,61,,,,,,,,
,,,,,,,,6,2021-04-13_12h39.46.023,premceCat2_ses-02_part-02_label-phase2,2020.2.10,MacIntel,60,,,,,right,1.042,3,1.276,,,,,,,,0,30,30,19,1,stimuli/objects/peppermill02b.jpg,right,new,20,,,,,,,,
,,,,,,,,6,2021-04-13_12h39.46.023,premceCat2_ses-02_part-02_label-phase2,2020.2.10,MacIntel,60,,,,,right,0.902,2,1.959,,,,,,,,0,31,31,119,1,stimuli/objects/tongs01b.jpg,right,new,120,,,,,,,,
,,,,,,,,6,2021-04-13_12h39.46.023,premceCat2_ses-02_part-02_label-phase2,2020.2.10,MacIntel,60,,,,,left,1.325,4,1.177,left,0.643,0,0,0,0,1,,,,,,,,,,,,,,,,,
,,,,,,,,6,2021-04-13_12h39.46.023,premceCat2_ses-02_part-02_label-phase2,2020.2.10,MacIntel,60,,,,,,,,,,,,,,,,0,32,32,98,1,stimuli/objects/podium.jpg,left,old,99,,,,,,,,
,,,,,,,,6,2021-04-13_12h39.46.023,premceCat2_ses-02_part-02_label-phase2,2020.2.10,MacIntel,60,,,,,left,1.668,4,1.255,right,0.306,0,0,0,0,1,,,,,,,,,,,,,,,,,
,,,,,,,,6,2021-04-13_12h39.46.023,premceCat2_ses-02_part-02_label-phase2,2020.2.10,MacIntel,60,,,,,,,,,,,,,,,,0,33,33,95,1,stimuli/objects/lectern01.jpg,left,old,96,,,,,,,,
,,,,,,,,6,2021-04-13_12h39.46.023,premceCat2_ses-02_part-02_label-phase2,2020.2.10,MacIntel,60,,,,,right,1.513,2,1.631,,,,,,,,0,34,34,100,1,stimuli/objects/remotecontrol04.jpg,right,new,101,,,,,,,,
,,,,,,,,6,2021-04-13_12h39.46.023,premceCat2_ses-02_part-02_label-phase2,2020.2.10,MacIntel,60,,,,,left,1.486,4,1.207,right,0.381,0,0,0,0,1,,,,,,,,,,,,,,,,,
,,,,,,,,6,2021-04-13_12h39.46.023,premceCat2_ses-02_part-02_label-phase2,2020.2.10,MacIntel,60,,,,,,,,,,,,,,,,0,35,35,37,1,stimuli/objects/setsquare.jpg,left,old,38,,,,,,,,
,,,,,,,,6,2021-04-13_12h39.46.023,premceCat2_ses-02_part-02_label-phase2,2020.2.10,MacIntel,60,,,,,left,1.586,1,2.854,right,0.475,0,0,0,0,1,,,,,,,,,,,,,,,,,
,,,,,,,,6,2021-04-13_12h39.46.023,premceCat2_ses-02_part-02_label-phase2,2020.2.10,MacIntel,60,,,,,,,,,,,,,,,,0,36,36,76,1,stimuli/objects/megaphone.jpg,right,new,77,,,,,,,,
,,,,,,,,6,2021-04-13_12h39.46.023,premceCat2_ses-02_part-02_label-phase2,2020.2.10,MacIntel,60,,,,,left,2.796,2,1.392,right,0.404,0,0,0,0,1,,,,,,,,,,,,,,,,,
,,,,,,,,6,2021-04-13_12h39.46.023,premceCat2_ses-02_part-02_label-phase2,2020.2.10,MacIntel,60,,,,,,,,,,,,,,,,0,37,37,50,1,stimuli/objects/chisel02b.jpg,right,new,51,,,,,,,,
,,,,,,,,6,2021-04-13_12h39.46.023,premceCat2_ses-02_part-02_label-phase2,2020.2.10,MacIntel,60,,,,,left,2.398,3,2.038,left,0.98,0,0,0,0,1,,,,,,,,,,,,,,,,,
,,,,,,,,6,2021-04-13_12h39.46.023,premceCat2_ses-02_part-02_label-phase2,2020.2.10,MacIntel,60,,,,,,,,,,,,,,,,0,38,38,34,1,stimuli/objects/treadmill.jpg,left,old,35,,,,,,,,
,,,,,,,,6,2021-04-13_12h39.46.023,premceCat2_ses-02_part-02_label-phase2,2020.2.10,MacIntel,60,,,,,left,1.655,4,1.158,left,0.714,0,0,0,0,1,,,,,,,,,,,,,,,,,
,,,,,,,,6,2021-04-13_12h39.46.023,premceCat2_ses-02_part-02_label-phase2,2020.2.10,MacIntel,60,,,,,,,,,,,,,,,,0,39,39,102,1,stimuli/objects/hockeygoalieglove.jpg,left,old,103,,,,,,,,
,,,,,,,,6,2021-04-13_12h39.46.023,premceCat2_ses-02_part-02_label-phase2,2020.2.10,MacIntel,60,,,,,right,1.357,1,1.386,,,,,,,,0,40,40,7,1,stimuli/objects/jigsaw.jpg,left,old,8,,,,,,,,
,,,,,,,,6,2021-04-13_12h39.46.023,premceCat2_ses-02_part-02_label-phase2,2020.2.10,MacIntel,60,,,,,left,2.09,3,1.92,right,0.368,0,0,0,0,1,,,,,,,,,,,,,,,,,
,,,,,,,,6,2021-04-13_12h39.46.023,premceCat2_ses-02_part-02_label-phase2,2020.2.10,MacIntel,60,,,,,,,,,,,,,,,,0,41,41,79,1,stimuli/objects/wire.jpg,left,old,80,,,,,,,,
,,,,,,,,6,2021-04-13_12h39.46.023,premceCat2_ses-02_part-02_label-phase2,2020.2.10,MacIntel,60,,,,,left,1.48,4,3.005,right,0.479,0,0,0,0,1,,,,,,,,,,,,,,,,,
,,,,,,,,6,2021-04-13_12h39.46.023,premceCat2_ses-02_part-02_label-phase2,2020.2.10,MacIntel,60,,,,,,,,,,,,,,,,0,42,42,52,1,stimuli/objects/cookiecutter.jpg,left,old,53,,,,,,,,
,,,,,,,,6,2021-04-13_12h39.46.023,premceCat2_ses-02_part-02_label-phase2,2020.2.10,MacIntel,60,,,,,right,1.833,2,1.618,,,,,,,,0,43,43,81,1,stimuli/objects/avcable.jpg,right,new,82,,,,,,,,
,,,,,,,,6,2021-04-13_12h39.46.023,premceCat2_ses-02_part-02_label-phase2,2020.2.10,MacIntel,60,,,,,left,1.82,1,2.481,left,0.849,0,0,0,0,1,,,,,,,,,,,,,,,,,
,,,,,,,,6,2021-04-13_12h39.46.023,premceCat2_ses-02_part-02_label-phase2,2020.2.10,MacIntel,60,,,,,,,,,,,,,,,,0,44,44,29,1,stimuli/objects/djmixer02.jpg,left,old,30,,,,,,,,
,,,,,,,,6,2021-04-13_12h39.46.023,premceCat2_ses-02_part-02_label-phase2,2020.2.10,MacIntel,60,,,,,right,1.066,4,1.134,,,,,,,,0,45,45,18,1,stimuli/objects/cashregister01.jpg,right,new,19,,,,,,,,
,,,,,,,,6,2021-04-13_12h39.46.023,premceCat2_ses-02_part-02_label-phase2,2020.2.10,MacIntel,60,,,,,right,1.159,4,1.307,,,,,,,,0,46,46,94,1,stimuli/objects/electricmixer.jpg,right,new,95,,,,,,,,
,,,,,,,,6,2021-04-13_12h39.46.023,premceCat2_ses-02_part-02_label-phase2,2020.2.10,MacIntel,60,,,,,left,1.767,3,1.611,right,0.746,0,0,0,0,1,,,,,,,,,,,,,,,,,
,,,,,,,,6,2021-04-13_12h39.46.023,premceCat2_ses-02_part-02_label-phase2,2020.2.10,MacIntel,60,,,,,,,,,,,,,,,,0,47,47,134,1,stimuli/objects/screwdriver04b.jpg,right,new,135,,,,,,,,
,,,,,,,,6,2021-04-13_12h39.46.023,premceCat2_ses-02_part-02_label-phase2,2020.2.10,MacIntel,60,,,,,left,1.349,3,1.767,left,1.043,0,0,0,0,1,,,,,,,,,,,,,,,,,
,,,,,,,,6,2021-04-13_12h39.46.023,premceCat2_ses-02_part-02_label-phase2,2020.2.10,MacIntel,60,,,,,,,,,,,,,,,,0,48,48,97,1,stimuli/objects/satellitedish01.jpg,left,old,98,,,,,,,,
,,,,,,,,6,2021-04-13_12h39.46.023,premceCat2_ses-02_part-02_label-phase2,2020.2.10,MacIntel,60,,,,,right,2.585,2,1.863,,,,,,,,0,49,49,32,1,stimuli/objects/mitresaw.jpg,right,new,33,,,,,,,,
,,,,,,,,6,2021-04-13_12h39.46.023,premceCat2_ses-02_part-02_label-phase2,2020.2.10,MacIntel,60,,,,,left,1.303,4,1.612,left,0.413,0,0,0,0,1,,,,,,,,,,,,,,,,,
,,,,,,,,6,2021-04-13_12h39.46.023,premceCat2_ses-02_part-02_label-phase2,2020.2.10,MacIntel,60,,,,,,,,,,,,,,,,0,50,50,1,1,stimuli/objects/nintendods.jpg,left,old,2,,,,,,,,
,,,,,,,,6,2021-04-13_12h39.46.023,premceCat2_ses-02_part-02_label-phase2,2020.2.10,MacIntel,60,,,,,right,1.778,3,1.816,,,,,,,,0,51,51,17,1,stimuli/objects/exercisebench.jpg,right,new,18,,,,,,,,
,,,,,,,,6,2021-04-13_12h39.46.023,premceCat2_ses-02_part-02_label-phase2,2020.2.10,MacIntel,60,,,,,left,1.268,4,1.126,left,0.683,0,0,0,0,1,,,,,,,,,,,,,,,,,
,,,,,,,,6,2021-04-13_12h39.46.023,premceCat2_ses-02_part-02_label-phase2,2020.2.10,MacIntel,60,,,,,,,,,,,,,,,,0,52,52,49,1,stimuli/objects/canoepaddle02.jpg,left,old,50,,,,,,,,
,,,,,,,,6,2021-04-13_12h39.46.023,premceCat2_ses-02_part-02_label-phase2,2020.2.10,MacIntel,60,,,,,right,1.4,1,1.336,,,,,,,,0,53,53,4,1,stimuli/objects/microphone01.jpg,right,new,5,,,,,,,,
,,,,,,,,6,2021-04-13_12h39.46.023,premceCat2_ses-02_part-02_label-phase2,2020.2.10,MacIntel,60,,,,,right,1.375,3,1.078,,,,,,,,0,54,54,116,1,stimuli/objects/radio01.jpg,right,new,117,,,,,,,,
,,,,,,,,6,2021-04-13_12h39.46.023,premceCat2_ses-02_part-02_label-phase2,2020.2.10,MacIntel,60,,,,,left,1.498,4,1.18,right,0.526,0,0,0,0,1,,,,,,,,,,,,,,,,,
,,,,,,,,6,2021-04-13_12h39.46.023,premceCat2_ses-02_part-02_label-phase2,2020.2.10,MacIntel,60,,,,,,,,,,,,,,,,0,55,55,70,1,stimuli/objects/hourglass.jpg,left,old,71,,,,,,,,
,,,,,,,,6,2021-04-13_12h39.46.023,premceCat2_ses-02_part-02_label-phase2,2020.2.10,MacIntel,60,,,,,left,1.471,2,1.556,left,0.98,0,0,0,0,1,,,,,,,,,,,,,,,,,
,,,,,,,,6,2021-04-13_12h39.46.023,premceCat2_ses-02_part-02_label-phase2,2020.2.10,MacIntel,60,,,,,,,,,,,,,,,,0,56,56,23,1,stimuli/objects/football.jpg,right,new,24,,,,,,,,
,,,,,,,,6,2021-04-13_12h39.46.023,premceCat2_ses-02_part-02_label-phase2,2020.2.10,MacIntel,60,,,,,left,1.25,4,1.398,right,1.245,0,0,0,0,1,,,,,,,,,,,,,,,,,
,,,,,,,,6,2021-04-13_12h39.46.023,premceCat2_ses-02_part-02_label-phase2,2020.2.10,MacIntel,60,,,,,,,,,,,,,,,,0,57,57,58,1,stimuli/objects/rope03.jpg,left,old,59,,,,,,,,
,,,,,,,,6,2021-04-13_12h39.46.023,premceCat2_ses-02_part-02_label-phase2,2020.2.10,MacIntel,60,,,,,left,1.549,2,1.286,right,0.555,0,0,0,0,1,,,,,,,,,,,,,,,,,
,,,,,,,,6,2021-04-13_12h39.46.023,premceCat2_ses-02_part-02_label-phase2,2020.2.10,MacIntel,60,,,,,,,,,,,,,,,,0,58,58,40,1,stimuli/objects/sledgehammer.jpg,left,old,41,,,,,,,,
,,,,,,,,6,2021-04-13_12h39.46.023,premceCat2_ses-02_part-02_label-phase2,2020.2.10,MacIntel,60,,,,,left,1.237,3,1.344,right,0.548,0,0,0,0,1,,,,,,,,,,,,,,,,,
,,,,,,,,6,2021-04-13_12h39.46.023,premceCat2_ses-02_part-02_label-phase2,2020.2.10,MacIntel,60,,,,,,,,,,,,,,,,0,59,59,99,1,stimuli/objects/gardenshears01a.jpg,left,old,100,,,,,,,,
,,,,,,,,6,2021-04-13_12h39.46.023,premceCat2_ses-02_part-02_label-phase2,2020.2.10,MacIntel,60,,,,,left,1.58,2,1.287,left,0.461,0,0,0,0,1,,,,,,,,,,,,,,,,,
,,,,,,,,6,2021-04-13_12h39.46.023,premceCat2_ses-02_part-02_label-phase2,2020.2.10,MacIntel,60,,,,,,,,,,,,,,,,0,60,60,125,1,stimuli/objects/shoulderpad.jpg,right,new,126,,,,,,,,
,,,,,,,,6,2021-04-13_12h39.46.023,premceCat2_ses-02_part-02_label-phase2,2020.2.10,MacIntel,60,,,,,left,1.897,1,1.81,left,1.514,0,0,0,0,1,,,,,,,,,,,,,,,,,
,,,,,,,,6,2021-04-13_12h39.46.023,premceCat2_ses-02_part-02_label-phase2,2020.2.10,MacIntel,60,,,,,,,,,,,,,,,,0,61,61,123,1,stimuli/objects/cowbell.jpg,left,old,124,,,,,,,,
,,,,,,,,6,2021-04-13_12h39.46.023,premceCat2_ses-02_part-02_label-phase2,2020.2.10,MacIntel,60,,,,,left,1.491,4,1.778,left,0.868,0,0,0,0,1,,,,,,,,,,,,,,,,,
,,,,,,,,6,2021-04-13_12h39.46.023,premceCat2_ses-02_part-02_label-phase2,2020.2.10,MacIntel,60,,,,,,,,,,,,,,,,0,62,62,114,1,stimuli/objects/espressomachine.jpg,left,old,115,,,,,,,,
,,,,,,,,6,2021-04-13_12h39.46.023,premceCat2_ses-02_part-02_label-phase2,2020.2.10,MacIntel,60,,,,,right,2.132,2,1.816,,,,,,,,0,63,63,8,1,stimuli/objects/basketballhoop01.jpg,right,new,9,,,,,,,,
,,,,,,,,6,2021-04-13_12h39.46.023,premceCat2_ses-02_part-02_label-phase2,2020.2.10,MacIntel,60,,,,,right,1.664,4,1.097,,,,,,,,0,64,64,86,1,stimuli/objects/toasteroven.jpg,right,new,87,,,,,,,,
,,,,,,,,6,2021-04-13_12h39.46.023,premceCat2_ses-02_part-02_label-phase2,2020.2.10,MacIntel,60,,,,,right,1.363,3,1.375,,,,,,,,0,65,65,22,1,stimuli/objects/umbrella04.jpg,right,new,23,,,,,,,,
,,,,,,,,6,2021-04-13_12h39.46.023,premceCat2_ses-02_part-02_label-phase2,2020.2.10,MacIntel,60,,,,,right,0.962,4,1.497,,,,,,,,0,66,66,20,1,stimuli/objects/laptop01a.jpg,right,new,21,,,,,,,,
,,,,,,,,6,2021-04-13_12h39.46.023,premceCat2_ses-02_part-02_label-phase2,2020.2.10,MacIntel,60,,,,,right,0.817,3,1.586,,,,,,,,0,67,67,47,1,stimuli/objects/flooringstapler.jpg,left,old,48,,,,,,,,
,,,,,,,,6,2021-04-13_12h39.46.023,premceCat2_ses-02_part-02_label-phase2,2020.2.10,MacIntel,60,,,,,left,2.227,2,1.322,right,0.634,0,0,0,0,1,,,,,,,,,,,,,,,,,
,,,,,,,,6,2021-04-13_12h39.46.023,premceCat2_ses-02_part-02_label-phase2,2020.2.10,MacIntel,60,,,,,,,,,,,,,,,,0,68,68,135,1,stimuli/objects/wheelbarrow01.jpg,left,old,136,,,,,,,,
,,,,,,,,6,2021-04-13_12h39.46.023,premceCat2_ses-02_part-02_label-phase2,2020.2.10,MacIntel,60,,,,,left,2.889,1,0.959,right,0.439,0,0,0,0,1,,,,,,,,,,,,,,,,,
,,,,,,,,6,2021-04-13_12h39.46.023,premceCat2_ses-02_part-02_label-phase2,2020.2.10,MacIntel,60,,,,,,,,,,,,,,,,0,69,69,113,1,stimuli/objects/powercable.jpg,right,new,114,,,,,,,,
,,,,,,,,6,2021-04-13_12h39.46.023,premceCat2_ses-02_part-02_label-phase2,2020.2.10,MacIntel,60,,,,,left,1.65,1,0.934,right,0.594,0,0,0,0,1,,,,,,,,,,,,,,,,,
,,,,,,,,6,2021-04-13_12h39.46.023,premceCat2_ses-02_part-02_label-phase2,2020.2.10,MacIntel,60,,,,,,,,,,,,,,,,0,70,70,78,1,stimuli/objects/handmixer01d.jpg,left,old,79,,,,,,,,
,,,,,,,,6,2021-04-13_12h39.46.023,premceCat2_ses-02_part-02_label-phase2,2020.2.10,MacIntel,60,,,,,left,1.307,4,1.131,left,0.886,0,0,0,0,1,,,,,,,,,,,,,,,,,
,,,,,,,,6,2021-04-13_12h39.46.023,premceCat2_ses-02_part-02_label-phase2,2020.2.10,MacIntel,60,,,,,,,,,,,,,,,,0,71,71,77,1,stimuli/objects/photocopier.jpg,left,old,78,,,,,,,,
,,,,,,,,6,2021-04-13_12h39.46.023,premceCat2_ses-02_part-02_label-phase2,2020.2.10,MacIntel,60,,,,,left,1.331,4,1.528,left,0.783,0,0,0,0,1,,,,,,,,,,,,,,,,,
,,,,,,,,6,2021-04-13_12h39.46.023,premceCat2_ses-02_part-02_label-phase2,2020.2.10,MacIntel,60,,,,,,,,,,,,,,,,0,72,72,127,1,stimuli/objects/hockeygoaliepad.jpg,left,old,128,,,,,,,,
,,,,,,,,6,2021-04-13_12h39.46.023,premceCat2_ses-02_part-02_label-phase2,2020.2.10,MacIntel,60,,,,,right,1.476,4,1.318,,,,,,,,0,73,73,112,1,stimuli/objects/gymnasticring.jpg,right,new,113,,,,,,,,
,,,,,,,,6,2021-04-13_12h39.46.023,premceCat2_ses-02_part-02_label-phase2,2020.2.10,MacIntel,60,,,,,left,2.422,3,2.335,left,1.715,0,0,0,0,1,,,,,,,,,,,,,,,,,
,,,,,,,,6,2021-04-13_12h39.46.023,premceCat2_ses-02_part-02_label-phase2,2020.2.10,MacIntel,60,,,,,,,,,,,,,,,,0,74,74,14,1,stimuli/objects/aircompressor.jpg,left,old,15,,,,,,,,
,,,,,,,,6,2021-04-13_12h39.46.023,premceCat2_ses-02_part-02_label-phase2,2020.2.10,MacIntel,60,,,,,left,1.881,3,1.678,right,0.374,0,0,0,0,1,,,,,,,,,,,,,,,,,
,,,,,,,,6,2021-04-13_12h39.46.023,premceCat2_ses-02_part-02_label-phase2,2020.2.10,MacIntel,60,,,,,,,,,,,,,,,,0,75,75,0,1,stimuli/objects/electricoutlet.jpg,left,old,1,,,,,,,,
,,,,,,,,6,2021-04-13_12h39.46.023,premceCat2_ses-02_part-02_label-phase2,2020.2.10,MacIntel,60,,,,,right,1.978,1,1.501,,,,,,,,0,76,76,65,1,stimuli/objects/pipewrench.jpg,left,old,66,,,,,,,,
,,,,,,,,6,2021-04-13_12h39.46.023,premceCat2_ses-02_part-02_label-phase2,2020.2.10,MacIntel,60,,,,,right,1.33,3,1.765,,,,,,,,0,77,77,24,1,stimuli/objects/skateboard.jpg,right,new,25,,,,,,,,
,,,,,,,,6,2021-04-13_12h39.46.023,premceCat2_ses-02_part-02_label-phase2,2020.2.10,MacIntel,60,,,,,right,1.631,3,1.926,,,,,,,,0,78,78,107,1,stimuli/objects/waterbottle03.jpg,left,old,108,,,,,,,,
,,,,,,,,6,2021-04-13_12h39.46.023,premceCat2_ses-02_part-02_label-phase2,2020.2.10,MacIntel,60,,,,,left,1.429,3,1.645,left,0.967,0,0,0,0,1,,,,,,,,,,,,,,,,,
,,,,,,,,6,2021-04-13_12h39.46.023,premceCat2_ses-02_part-02_label-phase2,2020.2.10,MacIntel,60,,,,,,,,,,,,,,,,0,79,79,6,1,stimuli/objects/saladspinner.jpg,left,old,7,,,,,,,,
,,,,,,,,6,2021-04-13_12h39.46.023,premceCat2_ses-02_part-02_label-phase2,2020.2.10,MacIntel,60,,,,,left,2.582,1,0.964,left,0.881,0,0,0,0,1,,,,,,,,,,,,,,,,,
,,,,,,,,6,2021-04-13_12h39.46.023,premceCat2_ses-02_part-02_label-phase2,2020.2.10,MacIntel,60,,,,,,,,,,,,,,,,0,80,80,67,1,stimuli/objects/cooler01.jpg,left,old,68,,,,,,,,
,,,,,,,,6,2021-04-13_12h39.46.023,premceCat2_ses-02_part-02_label-phase2,2020.2.10,MacIntel,60,,,,,left,1.907,1,1.175,right,0.487,0,0,0,0,1,,,,,,,,,,,,,,,,,
,,,,,,,,6,2021-04-13_12h39.46.023,premceCat2_ses-02_part-02_label-phase2,2020.2.10,MacIntel,60,,,,,,,,,,,,,,,,0,81,81,120,1,stimuli/objects/martiniglass01b.jpg,left,old,121,,,,,,,,
,,,,,,,,6,2021-04-13_12h39.46.023,premceCat2_ses-02_part-02_label-phase2,2020.2.10,MacIntel,60,,,,,right,1.227,4,1.552,,,,,,,,0,82,82,9,1,stimuli/objects/measuringtape01.jpg,right,new,10,,,,,,,,
,,,,,,,,6,2021-04-13_12h39.46.023,premceCat2_ses-02_part-02_label-phase2,2020.2.10,MacIntel,60,,,,,right,1.329,4,2.107,,,,,,,,0,83,83,12,1,stimuli/objects/garlicpress02a.jpg,right,new,13,,,,,,,,
,,,,,,,,6,2021-04-13_12h39.46.023,premceCat2_ses-02_part-02_label-phase2,2020.2.10,MacIntel,60,,,,,left,1.809,1,1.395,left,0.782,0,0,0,0,1,,,,,,,,,,,,,,,,,
,,,,,,,,6,2021-04-13_12h39.46.023,premceCat2_ses-02_part-02_label-phase2,2020.2.10,MacIntel,60,,,,,,,,,,,,,,,,0,84,84,5,1,stimuli/objects/lamp04a.jpg,left,old,6,,,,,,,,
,,,,,,,,6,2021-04-13_12h39.46.023,premceCat2_ses-02_part-02_label-phase2,2020.2.10,MacIntel,60,,,,,right,1.772,4,1.243,,,,,,,,0,85,85,26,1,stimuli/objects/boogieboard.jpg,right,new,27,,,,,,,,
,,,,,,,,6,2021-04-13_12h39.46.023,premceCat2_ses-02_part-02_label-phase2,2020.2.10,MacIntel,60,,,,,right,1.612,4,1.109,,,,,,,,0,86,86,42,1,stimuli/objects/snowshoe.jpg,right,new,43,,,,,,,,
,,,,,,,,6,2021-04-13_12h39.46.023,premceCat2_ses-02_part-02_label-phase2,2020.2.10,MacIntel,60,,,,,right,0.946,4,1.082,,,,,,,,0,87,87,25,1,stimuli/objects/bowlingball.jpg,right,new,26,,,,,,,,
,,,,,,,,6,2021-04-13_12h39.46.023,premceCat2_ses-02_part-02_label-phase2,2020.2.10,MacIntel,60,,,,,right,1.02,2,3.092,,,,,,,,0,88,88,57,1,stimuli/objects/audiocablesplitter.jpg,right,new,58,,,,,,,,
,,,,,,,,6,2021-04-13_12h39.46.023,premceCat2_ses-02_part-02_label-phase2,2020.2.10,MacIntel,60,,,,,right,1.052,1,2.732,,,,,,,,0,89,89,16,1,stimuli/objects/pressurewasher.jpg,left,old,17,,,,,,,,
,,,,,,,,6,2021-04-13_12h39.46.023,premceCat2_ses-02_part-02_label-phase2,2020.2.10,MacIntel,60,,,,,right,1.402,1,0.882,,,,,,,,0,90,90,106,1,stimuli/objects/minifridge.jpg,right,new,107,,,,,,,,
,,,,,,,,6,2021-04-13_12h39.46.023,premceCat2_ses-02_part-02_label-phase2,2020.2.10,MacIntel,60,,,,,left,2.404,2,2.124,right,0.977,0,0,0,0,1,,,,,,,,,,,,,,,,,
,,,,,,,,6,2021-04-13_12h39.46.023,premceCat2_ses-02_part-02_label-phase2,2020.2.10,MacIntel,60,,,,,,,,,,,,,,,,0,91,91,35,1,stimuli/objects/phonejack.jpg,left,old,36,,,,,,,,
,,,,,,,,6,2021-04-13_12h39.46.023,premceCat2_ses-02_part-02_label-phase2,2020.2.10,MacIntel,60,,,,,right,2.114,4,1.466,,,,,,,,0,92,92,90,1,stimuli/objects/carlighter02.jpg,right,new,91,,,,,,,,
,,,,,,,,6,2021-04-13_12h39.46.023,premceCat2_ses-02_part-02_label-phase2,2020.2.10,MacIntel,60,,,,,right,1.414,3,1.306,,,,,,,,0,93,93,126,1,stimuli/objects/tableknife02.jpg,right,new,127,,,,,,,,
,,,,,,,,6,2021-04-13_12h39.46.023,premceCat2_ses-02_part-02_label-phase2,2020.2.10,MacIntel,60,,,,,left,2.2,1,1.216,left,0.674,0,0,0,0,1,,,,,,,,,,,,,,,,,
,,,,,,,,6,2021-04-13_12h39.46.023,premceCat2_ses-02_part-02_label-phase2,2020.2.10,MacIntel,60,,,,,,,,,,,,,,,,0,94,94,43,1,stimuli/objects/punchingball.jpg,right,new,44,,,,,,,,
,,,,,,,,6,2021-04-13_12h39.46.023,premceCat2_ses-02_part-02_label-phase2,2020.2.10,MacIntel,60,,,,,right,1.646,4,1.507,,,,,,,,0,95,95,136,1,stimuli/objects/battery02b.jpg,right,new,137,,,,,,,,
,,,,,,,,6,2021-04-13_12h39.46.023,premceCat2_ses-02_part-02_label-phase2,2020.2.10,MacIntel,60,,,,,right,1.019,3,1.788,,,,,,,,0,96,96,46,1,stimuli/objects/walkman.jpg,right,new,47,,,,,,,,
,,,,,,,,6,2021-04-13_12h39.46.023,premceCat2_ses-02_part-02_label-phase2,2020.2.10,MacIntel,60,,,,,right,1.194,4,1.809,,,,,,,,0,97,97,30,1,stimuli/objects/printer02.jpg,right,new,31,,,,,,,,
,,,,,,,,6,2021-04-13_12h39.46.023,premceCat2_ses-02_part-02_label-phase2,2020.2.10,MacIntel,60,,,,,right,0.902,3,2.84,,,,,,,,0,98,98,72,1,stimuli/objects/cclamp.jpg,right,new,73,,,,,,,,
,,,,,,,,6,2021-04-13_12h39.46.023,premceCat2_ses-02_part-02_label-phase2,2020.2.10,MacIntel,60,,,,,right,1.603,3,1.059,,,,,,,,0,99,99,75,1,stimuli/objects/stepladder.jpg,right,new,76,,,,,,,,
,,,,,,,,6,2021-04-13_12h39.46.023,premceCat2_ses-02_part-02_label-phase2,2020.2.10,MacIntel,60,,,,,left,1.36,2,1.643,left,1.011,0,0,0,0,1,,,,,,,,,,,,,,,,,
,,,,,,,,6,2021-04-13_12h39.46.023,premceCat2_ses-02_part-02_label-phase2,2020.2.10,MacIntel,60,,,,,,,,,,,,,,,,0,100,100,45,1,stimuli/objects/measuringcup01.jpg,left,old,46,,,,,,,,
,,,,,,,,6,2021-04-13_12h39.46.023,premceCat2_ses-02_part-02_label-phase2,2020.2.10,MacIntel,60,,,,,right,2.2,4,1.661,,,,,,,,0,101,101,51,1,stimuli/objects/webcam.jpg,right,new,52,,,,,,,,
,,,,,,,,6,2021-04-13_12h39.46.023,premceCat2_ses-02_part-02_label-phase2,2020.2.10,MacIntel,60,,,,,right,1.508,1,1.142,,,,,,,,0,102,102,13,1,stimuli/objects/bastingbrush.jpg,right,new,14,,,,,,,,
,,,,,,,,6,2021-04-13_12h39.46.023,premceCat2_ses-02_part-02_label-phase2,2020.2.10,MacIntel,60,,,,,right,1.037,4,1.169,,,,,,,,0,103,103,38,1,stimuli/objects/soundmixer.jpg,right,new,39,,,,,,,,
,,,,,,,,6,2021-04-13_12h39.46.023,premceCat2_ses-02_part-02_label-phase2,2020.2.10,MacIntel,60,,,,,left,1.876,4,1.589,right,0.379,0,0,0,0,1,,,,,,,,,,,,,,,,,
,,,,,,,,6,2021-04-13_12h39.46.023,premceCat2_ses-02_part-02_label-phase2,2020.2.10,MacIntel,60,,,,,,,,,,,,,,,,0,104,104,61,1,stimuli/objects/weedwacker.jpg,left,old,62,,,,,,,,
,,,,,,,,6,2021-04-13_12h39.46.023,premceCat2_ses-02_part-02_label-phase2,2020.2.10,MacIntel,60,,,,,right,1.644,3,1.231,,,,,,,,0,105,105,54,1,stimuli/objects/pda.jpg,right,new,55,,,,,,,,
,,,,,,,,6,2021-04-13_12h39.46.023,premceCat2_ses-02_part-02_label-phase2,2020.2.10,MacIntel,60,,,,,right,0.962,2,1.449,,,,,,,,0,106,106,108,1,stimuli/objects/metalscissors.jpg,right,new,109,,,,,,,,
,,,,,,,,6,2021-04-13_12h39.46.023,premceCat2_ses-02_part-02_label-phase2,2020.2.10,MacIntel,60,,,,,left,1.456,4,1.464,left,0.873,0,0,0,0,1,,,,,,,,,,,,,,,,,
,,,,,,,,6,2021-04-13_12h39.46.023,premceCat2_ses-02_part-02_label-phase2,2020.2.10,MacIntel,60,,,,,,,,,,,,,,,,0,107,107,130,1,stimuli/objects/bikewheel.jpg,left,old,131,,,,,,,,
,,,,,,,,6,2021-04-13_12h39.46.023,premceCat2_ses-02_part-02_label-phase2,2020.2.10,MacIntel,60,,,,,left,1.485,4,2.012,right,1.418,0,0,0,0,1,,,,,,,,,,,,,,,,,
,,,,,,,,6,2021-04-13_12h39.46.023,premceCat2_ses-02_part-02_label-phase2,2020.2.10,MacIntel,60,,,,,,,,,,,,,,,,0,108,108,2,1,stimuli/objects/dvdcase01.jpg,left,old,3,,,,,,,,
,,,,,,,,6,2021-04-13_12h39.46.023,premceCat2_ses-02_part-02_label-phase2,2020.2.10,MacIntel,60,,,,,left,1.32,3,1.176,right,1.131,0,0,0,0,1,,,,,,,,,,,,,,,,,
,,,,,,,,6,2021-04-13_12h39.46.023,premceCat2_ses-02_part-02_label-phase2,2020.2.10,MacIntel,60,,,,,,,,,,,,,,,,0,109,109,31,1,stimuli/objects/ladder.jpg,left,old,32,,,,,,,,
,,,,,,,,6,2021-04-13_12h39.46.023,premceCat2_ses-02_part-02_label-phase2,2020.2.10,MacIntel,60,,,,,left,1.304,3,1.228,right,0.39,0,0,0,0,1,,,,,,,,,,,,,,,,,
,,,,,,,,6,2021-04-13_12h39.46.023,premceCat2_ses-02_part-02_label-phase2,2020.2.10,MacIntel,60,,,,,,,,,,,,,,,,0,110,110,62,1,stimuli/objects/pastaspoon.jpg,left,old,63,,,,,,,,
,,,,,,,,6,2021-04-13_12h39.46.023,premceCat2_ses-02_part-02_label-phase2,2020.2.10,MacIntel,60,,,,,right,1.512,3,1.39,,,,,,,,0,111,111,133,1,stimuli/objects/icebucket.jpg,right,new,134,,,,,,,,
,,,,,,,,6,2021-04-13_12h39.46.023,premceCat2_ses-02_part-02_label-phase2,2020.2.10,MacIntel,60,,,,,right,0.835,2,1.995,,,,,,,,0,112,112,91,1,stimuli/objects/snowblower.jpg,left,old,92,,,,,,,,
,,,,,,,,6,2021-04-13_12h39.46.023,premceCat2_ses-02_part-02_label-phase2,2020.2.10,MacIntel,60,,,,,right,0.943,2,1.747,,,,,,,,0,113,113,89,1,stimuli/objects/ducttape.jpg,right,new,90,,,,,,,,
,,,,,,,,6,2021-04-13_12h39.46.023,premceCat2_ses-02_part-02_label-phase2,2020.2.10,MacIntel,60,,,,,left,1.682,4,1.283,right,1.546,0,0,0,0,1,,,,,,,,,,,,,,,,,
,,,,,,,,6,2021-04-13_12h39.46.023,premceCat2_ses-02_part-02_label-phase2,2020.2.10,MacIntel,60,,,,,,,,,,,,,,,,0,114,114,104,1,stimuli/objects/lightbulb01.jpg,left,old,105,,,,,,,,
,,,,,,,,6,2021-04-13_12h39.46.023,premceCat2_ses-02_part-02_label-phase2,2020.2.10,MacIntel,60,,,,,left,1.505,4,1.61,left,0.777,0,0,0,0,1,,,,,,,,,,,,,,,,,
,,,,,,,,6,2021-04-13_12h39.46.023,premceCat2_ses-02_part-02_label-phase2,2020.2.10,MacIntel,60,,,,,,,,,,,,,,,,0,115,115,103,1,stimuli/objects/oven.jpg,left,old,104,,,,,,,,
,,,,,,,,6,2021-04-13_12h39.46.023,premceCat2_ses-02_part-02_label-phase2,2020.2.10,MacIntel,60,,,,,left,1.341,4,1.713,right,0.319,0,0,0,0,1,,,,,,,,,,,,,,,,,
,,,,,,,,6,2021-04-13_12h39.46.023,premceCat2_ses-02_part-02_label-phase2,2020.2.10,MacIntel,60,,,,,,,,,,,,,,,,0,116,116,129,1,stimuli/objects/gasburner.jpg,left,old,130,,,,,,,,
,,,,,,,,6,2021-04-13_12h39.46.023,premceCat2_ses-02_part-02_label-phase2,2020.2.10,MacIntel,60,,,,,left,1.659,4,1.151,right,0.405,0,0,0,0,1,,,,,,,,,,,,,,,,,
,,,,,,,,6,2021-04-13_12h39.46.023,premceCat2_ses-02_part-02_label-phase2,2020.2.10,MacIntel,60,,,,,,,,,,,,,,,,0,117,117,44,1,stimuli/objects/level03a.jpg,left,old,45,,,,,,,,
,,,,,,,,6,2021-04-13_12h39.46.023,premceCat2_ses-02_part-02_label-phase2,2020.2.10,MacIntel,60,,,,,left,1.666,2,1.58,right,0.462,0,0,0,0,1,,,,,,,,,,,,,,,,,
,,,,,,,,6,2021-04-13_12h39.46.023,premceCat2_ses-02_part-02_label-phase2,2020.2.10,MacIntel,60,,,,,,,,,,,,,,,,0,118,118,33,1,stimuli/objects/microwave.jpg,right,new,34,,,,,,,,
,,,,,,,,6,2021-04-13_12h39.46.023,premceCat2_ses-02_part-02_label-phase2,2020.2.10,MacIntel,60,,,,,right,1.442,2,1.059,,,,,,,,0,119,119,66,1,stimuli/objects/nailgun.jpg,right,new,67,,,,,,,,
,,,,,,,,6,2021-04-13_12h39.46.023,premceCat2_ses-02_part-02_label-phase2,2020.2.10,MacIntel,60,,,,,right,0.925,4,1.141,,,,,,,,0,120,120,36,1,stimuli/objects/antenna.jpg,left,old,37,,,,,,,,
,,,,,,,,6,2021-04-13_12h39.46.023,premceCat2_ses-02_part-02_label-phase2,2020.2.10,MacIntel,60,,,,,right,0.911,4,1.066,,,,,,,,0,121,121,39,1,stimuli/objects/sippycup.jpg,right,new,40,,,,,,,,
,,,,,,,,6,2021-04-13_12h39.46.023,premceCat2_ses-02_part-02_label-phase2,2020.2.10,MacIntel,60,,,,,right,0.84,4,0.556,,,,,,,,0,122,122,63,1,stimuli/objects/butterdish.jpg,right,new,64,,,,,,,,
,,,,,,,,6,2021-04-13_12h39.46.023,premceCat2_ses-02_part-02_label-phase2,2020.2.10,MacIntel,60,,,,,right,0.699,4,0.344,,,,,,,,0,123,123,83,1,stimuli/objects/kitchenscale01a.jpg,right,new,84,,,,,,,,
,,,,,,,,6,2021-04-13_12h39.46.023,premceCat2_ses-02_part-02_label-phase2,2020.2.10,MacIntel,60,,,,,left,1.81,3,1.345,right,0.34,0,0,0,0,1,,,,,,,,,,,,,,,,,
,,,,,,,,6,2021-04-13_12h39.46.023,premceCat2_ses-02_part-02_label-phase2,2020.2.10,MacIntel,60,,,,,,,,,,,,,,,,0,124,124,64,1,stimuli/objects/axe01.jpg,left,old,65,,,,,,,,
,,,,,,,,6,2021-04-13_12h39.46.023,premceCat2_ses-02_part-02_label-phase2,2020.2.10,MacIntel,60,,,,,right,1.923,4,1.946,,,,,,,,0,125,125,141,1,stimuli/objects/generator.jpg,right,new,142,,,,,,,,
,,,,,,,,6,2021-04-13_12h39.46.023,premceCat2_ses-02_part-02_label-phase2,2020.2.10,MacIntel,60,,,,,right,1.407,2,1.792,,,,,,,,0,126,126,85,1,stimuli/objects/golfball.jpg,right,new,86,,,,,,,,
,,,,,,,,6,2021-04-13_12h39.46.023,premceCat2_ses-02_part-02_label-phase2,2020.2.10,MacIntel,60,,,,,right,0.77,3,1.217,,,,,,,,0,127,127,118,1,stimuli/objects/toyhardhat.jpg,left,old,119,,,,,,,,
,,,,,,,,6,2021-04-13_12h39.46.023,premceCat2_ses-02_part-02_label-phase2,2020.2.10,MacIntel,60,,,,,left,1.667,3,1.532,right,0.523,0,0,0,0,1,,,,,,,,,,,,,,,,,
,,,,,,,,6,2021-04-13_12h39.46.023,premceCat2_ses-02_part-02_label-phase2,2020.2.10,MacIntel,60,,,,,,,,,,,,,,,,0,128,128,115,1,stimuli/objects/boltcutter.jpg,left,old,116,,,,,,,,
,,,,,,,,6,2021-04-13_12h39.46.023,premceCat2_ses-02_part-02_label-phase2,2020.2.10,MacIntel,60,,,,,right,1.147,4,1.019,,,,,,,,0,129,129,80,1,stimuli/objects/snowman.jpg,right,new,81,,,,,,,,
,,,,,,,,6,2021-04-13_12h39.46.023,premceCat2_ses-02_part-02_label-phase2,2020.2.10,MacIntel,60,,,,,right,1.368,4,1.181,,,,,,,,0,130,130,59,1,stimuli/objects/studiolight.jpg,right,new,60,,,,,,,,
,,,,,,,,6,2021-04-13_12h39.46.023,premceCat2_ses-02_part-02_label-phase2,2020.2.10,MacIntel,60,,,,,right,0.905,4,1.127,,,,,,,,0,131,131,139,1,stimuli/objects/frisbee.jpg,right,new,140,,,,,,,,
,,,,,,,,6,2021-04-13_12h39.46.023,premceCat2_ses-02_part-02_label-phase2,2020.2.10,MacIntel,60,,,,,left,1.588,4,1.344,left,0.683,0,0,0,0,1,,,,,,,,,,,,,,,,,
,,,,,,,,6,2021-04-13_12h39.46.023,premceCat2_ses-02_part-02_label-phase2,2020.2.10,MacIntel,60,,,,,,,,,,,,,,,,0,132,132,140,1,stimuli/objects/anchor.jpg,left,old,141,,,,,,,,
,,,,,,,,6,2021-04-13_12h39.46.023,premceCat2_ses-02_part-02_label-phase2,2020.2.10,MacIntel,60,,,,,left,1.646,2,1.256,left,0.733,0,0,0,0,1,,,,,,,,,,,,,,,,,
,,,,,,,,6,2021-04-13_12h39.46.023,premceCat2_ses-02_part-02_label-phase2,2020.2.10,MacIntel,60,,,,,,,,,,,,,,,,0,133,133,56,1,stimuli/objects/cookingpot.jpg,left,old,57,,,,,,,,
,,,,,,,,6,2021-04-13_12h39.46.023,premceCat2_ses-02_part-02_label-phase2,2020.2.10,MacIntel,60,,,,,left,1.397,3,1.14,left,0.555,0,0,0,0,1,,,,,,,,,,,,,,,,,
,,,,,,,,6,2021-04-13_12h39.46.023,premceCat2_ses-02_part-02_label-phase2,2020.2.10,MacIntel,60,,,,,,,,,,,,,,,,0,134,134,28,1,stimuli/objects/baseballbat.jpg,left,old,29,,,,,,,,
,,,,,,,,6,2021-04-13_12h39.46.023,premceCat2_ses-02_part-02_label-phase2,2020.2.10,MacIntel,60,,,,,left,1.494,4,2.809,left,0.772,0,0,0,0,1,,,,,,,,,,,,,,,,,
,,,,,,,,6,2021-04-13_12h39.46.023,premceCat2_ses-02_part-02_label-phase2,2020.2.10,MacIntel,60,,,,,,,,,,,,,,,,0,135,135,87,1,stimuli/objects/dvdplayer.jpg,left,old,88,,,,,,,,
,,,,,,,,6,2021-04-13_12h39.46.023,premceCat2_ses-02_part-02_label-phase2,2020.2.10,MacIntel,60,,,,,left,1.363,4,1.345,left,1.357,0,0,0,0,1,,,,,,,,,,,,,,,,,
,,,,,,,,6,2021-04-13_12h39.46.023,premceCat2_ses-02_part-02_label-phase2,2020.2.10,MacIntel,60,,,,,,,,,,,,,,,,0,136,136,15,1,stimuli/objects/spicerack.jpg,left,old,16,,,,,,,,
,,,,,,,,6,2021-04-13_12h39.46.023,premceCat2_ses-02_part-02_label-phase2,2020.2.10,MacIntel,60,,,,,right,1.552,4,1.834,,,,,,,,0,137,137,111,1,stimuli/objects/speaker04.jpg,right,new,112,,,,,,,,
,,,,,,,,6,2021-04-13_12h39.46.023,premceCat2_ses-02_part-02_label-phase2,2020.2.10,MacIntel,60,,,,,right,3.129,4,1.228,,,,,,,,0,138,138,121,1,stimuli/objects/ceilingspeaker.jpg,right,new,122,,,,,,,,
,,,,,,,,6,2021-04-13_12h39.46.023,premceCat2_ses-02_part-02_label-phase2,2020.2.10,MacIntel,60,,,,,right,2.415,2,0.993,,,,,,,,0,139,139,53,1,stimuli/objects/binoculars01b.jpg,right,new,54,,,,,,,,
,,,,,,,,6,2021-04-13_12h39.46.023,premceCat2_ses-02_part-02_label-phase2,2020.2.10,MacIntel,60,,,,,left,1.783,1,1.079,left,0.965,0,0,0,0,1,,,,,,,,,,,,,,,,,
,,,,,,,,6,2021-04-13_12h39.46.023,premceCat2_ses-02_part-02_label-phase2,2020.2.10,MacIntel,60,,,,,,,,,,,,,,,,0,140,140,27,1,stimuli/objects/downhillski.jpg,left,old,28,,,,,,,,
,,,,,,,,6,2021-04-13_12h39.46.023,premceCat2_ses-02_part-02_label-phase2,2020.2.10,MacIntel,60,,,,,left,1.612,3,2.031,right,1.232,0,0,0,0,1,,,,,,,,,,,,,,,,,
,,,,,,,,6,2021-04-13_12h39.46.023,premceCat2_ses-02_part-02_label-phase2,2020.2.10,MacIntel,60,,,,,,,,,,,,,,,,0,141,141,132,1,stimuli/objects/expansioncard.jpg,left,old,133,,,,,,,,
,,,,,,,,6,2021-04-13_12h39.46.023,premceCat2_ses-02_part-02_label-phase2,2020.2.10,MacIntel,60,,,,,left,1.417,3,1.29,left,0.464,0,0,0,0,1,,,,,,,,,,,,,,,,,
,,,,,,,,6,2021-04-13_12h39.46.023,premceCat2_ses-02_part-02_label-phase2,2020.2.10,MacIntel,60,,,,,,,,,,,,,,,,0,142,142,142,1,stimuli/objects/funnel.jpg,left,old,143,,,,,,,,
,,,,,,,,6,2021-04-13_12h39.46.023,premceCat2_ses-02_part-02_label-phase2,2020.2.10,MacIntel,60,,,,,,,,,,,,,,,,,,,,,,,,,space,6.294,0,1,1,0,1,condition_files/ImagesforRecog3_1.csv
