instructions_loop.thisRepN,instructions_loop.thisTrialN,instructions_loop.thisN,instructions_loop.thisIndex,instructions_loop.ran,text1,text2,text3,participant,date,expName,psychopyVersion,OS,frameRate,key_resp_2.keys,key_resp_2.rt,key_resp_3.keys,key_resp_3.rt,recog_resp.keys,recog_resp.rt,conf_resp.keys,conf_resp.rt,recog_loop.thisRepN,recog_loop.thisTrialN,recog_loop.thisN,recog_loop.thisIndex,recog_loop.ran,images,corr_ans,type,order,resp_assoc.keys,resp_assoc.rt,assoc_loop.thisRepN,assoc_loop.thisTrialN,assoc_loop.thisN,assoc_loop.thisIndex,assoc_loop.ran,key_resp_break.keys,key_resp_break.rt,list_loop.thisRepN,list_loop.thisTrialN,list_loop.thisN,list_loop.thisIndex,list_loop.ran,recog_list
0,0,0,0,1,Welcome to the last phase of this experiment!,.,Please press the space bar to continue,7,2021-04-18_16h04.27.437,premceCat2_ses-02_part-02_label-phase2,2020.2.10,Win32,60,,,,,,,,,,,,,,,,,,,,,,,,,,,,,,,,
0,1,1,1,1,.,"In this phase, you will see some objects. 

For each object, you should indicate whether you have seen it before during the experiment.

Press LEFT ARROW for YES
Press RIGHT ARROW for NO

",Please press the space bar to continue ,7,2021-04-18_16h04.27.437,premceCat2_ses-02_part-02_label-phase2,2020.2.10,Win32,60,,,,,,,,,,,,,,,,,,,,,,,,,,,,,,,,
0,2,2,2,1,.,"After that, you will be asked how confident you are of your choice.

Please rate the confidence in your choice with the numbers from 1 to 4 of your keyboard. 

The numbers correspond to:

1 = Very unsure
2 = Unsure
3 = Sure
4 = Very Sure",Please press the space bar to continue,7,2021-04-18_16h04.27.437,premceCat2_ses-02_part-02_label-phase2,2020.2.10,Win32,60,,,,,,,,,,,,,,,,,,,,,,,,,,,,,,,,
,,,,,,,,7,2021-04-18_16h04.27.437,premceCat2_ses-02_part-02_label-phase2,2020.2.10,Win32,60,space,9.005,space,9.325,right,2.71,3,2.285,0,0,0,112,1,stimuli/objects/gymnasticring.jpg,right,new,113,,,,,,,,,,,,,,,
,,,,,,,,7,2021-04-18_16h04.27.437,premceCat2_ses-02_part-02_label-phase2,2020.2.10,Win32,60,,,,,left,2.102,2,0.851,,,,,,,,,,right,5.85,0,0,0,0,1,,,,,,,,
,,,,,,,,7,2021-04-18_16h04.27.437,premceCat2_ses-02_part-02_label-phase2,2020.2.10,Win32,60,,,,,,,,,0,1,1,29,1,stimuli/objects/computerkeyboard02.jpg,left,old,30,,,,,,,,,,,,,,,
,,,,,,,,7,2021-04-18_16h04.27.437,premceCat2_ses-02_part-02_label-phase2,2020.2.10,Win32,60,,,,,left,2.864,1,0.874,,,,,,,,,,right,3.304,0,0,0,0,1,,,,,,,,
,,,,,,,,7,2021-04-18_16h04.27.437,premceCat2_ses-02_part-02_label-phase2,2020.2.10,Win32,60,,,,,,,,,0,2,2,38,1,stimuli/objects/soundmixer.jpg,right,new,39,,,,,,,,,,,,,,,
,,,,,,,,7,2021-04-18_16h04.27.437,premceCat2_ses-02_part-02_label-phase2,2020.2.10,Win32,60,,,,,right,3.146,2,2.288,0,3,3,20,1,stimuli/objects/laptop01a.jpg,right,new,21,,,,,,,,,,,,,,,
,,,,,,,,7,2021-04-18_16h04.27.437,premceCat2_ses-02_part-02_label-phase2,2020.2.10,Win32,60,,,,,left,2.359,4,2.72,,,,,,,,,,left,1.758,0,0,0,0,1,,,,,,,,
,,,,,,,,7,2021-04-18_16h04.27.437,premceCat2_ses-02_part-02_label-phase2,2020.2.10,Win32,60,,,,,,,,,0,4,4,36,1,stimuli/objects/gps.jpg,left,old,37,,,,,,,,,,,,,,,
,,,,,,,,7,2021-04-18_16h04.27.437,premceCat2_ses-02_part-02_label-phase2,2020.2.10,Win32,60,,,,,left,2.961,1,0.489,,,,,,,,,,left,2.243,0,0,0,0,1,,,,,,,,
,,,,,,,,7,2021-04-18_16h04.27.437,premceCat2_ses-02_part-02_label-phase2,2020.2.10,Win32,60,,,,,,,,,0,5,5,19,1,stimuli/objects/peppermill02b.jpg,right,new,20,,,,,,,,,,,,,,,
,,,,,,,,7,2021-04-18_16h04.27.437,premceCat2_ses-02_part-02_label-phase2,2020.2.10,Win32,60,,,,,right,2.164,2,0.56,0,6,6,51,1,stimuli/objects/webcam.jpg,right,new,52,,,,,,,,,,,,,,,
,,,,,,,,7,2021-04-18_16h04.27.437,premceCat2_ses-02_part-02_label-phase2,2020.2.10,Win32,60,,,,,right,7.86,2,1.147,0,7,7,90,1,stimuli/objects/carlighter02.jpg,right,new,91,,,,,,,,,,,,,,,
,,,,,,,,7,2021-04-18_16h04.27.437,premceCat2_ses-02_part-02_label-phase2,2020.2.10,Win32,60,,,,,left,12.526,2,3.075,,,,,,,,,,left,3.156,0,0,0,0,1,,,,,,,,
,,,,,,,,7,2021-04-18_16h04.27.437,premceCat2_ses-02_part-02_label-phase2,2020.2.10,Win32,60,,,,,,,,,0,8,8,13,1,stimuli/objects/bastingbrush.jpg,right,new,14,,,,,,,,,,,,,,,
,,,,,,,,7,2021-04-18_16h04.27.437,premceCat2_ses-02_part-02_label-phase2,2020.2.10,Win32,60,,,,,left,1.32,3,0.559,,,,,,,,,,left,2.834,0,0,0,0,1,,,,,,,,
,,,,,,,,7,2021-04-18_16h04.27.437,premceCat2_ses-02_part-02_label-phase2,2020.2.10,Win32,60,,,,,,,,,0,9,9,63,1,stimuli/objects/butterdish.jpg,right,new,64,,,,,,,,,,,,,,,
,,,,,,,,7,2021-04-18_16h04.27.437,premceCat2_ses-02_part-02_label-phase2,2020.2.10,Win32,60,,,,,right,3.415,2,1.624,0,10,10,141,1,stimuli/objects/generator.jpg,right,new,142,,,,,,,,,,,,,,,
,,,,,,,,7,2021-04-18_16h04.27.437,premceCat2_ses-02_part-02_label-phase2,2020.2.10,Win32,60,,,,,left,1.337,4,1.17,,,,,,,,,,left,2.258,0,0,0,0,1,,,,,,,,
,,,,,,,,7,2021-04-18_16h04.27.437,premceCat2_ses-02_part-02_label-phase2,2020.2.10,Win32,60,,,,,,,,,0,11,11,34,1,stimuli/objects/hockeygoaliemask.jpg,left,old,35,,,,,,,,,,,,,,,
,,,,,,,,7,2021-04-18_16h04.27.437,premceCat2_ses-02_part-02_label-phase2,2020.2.10,Win32,60,,,,,right,1.898,1,1.329,0,12,12,17,1,stimuli/objects/exercisebench.jpg,right,new,18,,,,,,,,,,,,,,,
,,,,,,,,7,2021-04-18_16h04.27.437,premceCat2_ses-02_part-02_label-phase2,2020.2.10,Win32,60,,,,,left,1.458,4,0.795,,,,,,,,,,right,3.466,0,0,0,0,1,,,,,,,,
,,,,,,,,7,2021-04-18_16h04.27.437,premceCat2_ses-02_part-02_label-phase2,2020.2.10,Win32,60,,,,,,,,,0,13,13,74,1,stimuli/objects/toyhockeystick01.jpg,left,old,75,,,,,,,,,,,,,,,
,,,,,,,,7,2021-04-18_16h04.27.437,premceCat2_ses-02_part-02_label-phase2,2020.2.10,Win32,60,,,,,left,1.632,2,1.1,,,,,,,,,,left,1.56,0,0,0,0,1,,,,,,,,
,,,,,,,,7,2021-04-18_16h04.27.437,premceCat2_ses-02_part-02_label-phase2,2020.2.10,Win32,60,,,,,,,,,0,14,14,57,1,stimuli/objects/audiocablesplitter.jpg,right,new,58,,,,,,,,,,,,,,,
,,,,,,,,7,2021-04-18_16h04.27.437,premceCat2_ses-02_part-02_label-phase2,2020.2.10,Win32,60,,,,,right,3.86,1,3.406,0,15,15,111,1,stimuli/objects/speaker04.jpg,right,new,112,,,,,,,,,,,,,,,
,,,,,,,,7,2021-04-18_16h04.27.437,premceCat2_ses-02_part-02_label-phase2,2020.2.10,Win32,60,,,,,left,1.19,4,3.234,,,,,,,,,,right,2.481,0,0,0,0,1,,,,,,,,
,,,,,,,,7,2021-04-18_16h04.27.437,premceCat2_ses-02_part-02_label-phase2,2020.2.10,Win32,60,,,,,,,,,0,16,16,142,1,stimuli/objects/spoon01.jpg,left,old,143,,,,,,,,,,,,,,,
,,,,,,,,7,2021-04-18_16h04.27.437,premceCat2_ses-02_part-02_label-phase2,2020.2.10,Win32,60,,,,,right,5.882,1,1.687,0,17,17,80,1,stimuli/objects/snowman.jpg,right,new,81,,,,,,,,,,,,,,,
,,,,,,,,7,2021-04-18_16h04.27.437,premceCat2_ses-02_part-02_label-phase2,2020.2.10,Win32,60,,,,,right,1.462,3,2.04,0,18,18,109,1,stimuli/objects/winerack.jpg,right,new,110,,,,,,,,,,,,,,,
,,,,,,,,7,2021-04-18_16h04.27.437,premceCat2_ses-02_part-02_label-phase2,2020.2.10,Win32,60,,,,,left,1.332,4,2.503,,,,,,,,,,right,0.48,0,0,0,0,1,,,,,,,,
,,,,,,,,7,2021-04-18_16h04.27.437,premceCat2_ses-02_part-02_label-phase2,2020.2.10,Win32,60,,,,,,,,,0,19,19,107,1,stimuli/objects/canister.jpg,left,old,108,,,,,,,,,,,,,,,
,,,,,,,,7,2021-04-18_16h04.27.437,premceCat2_ses-02_part-02_label-phase2,2020.2.10,Win32,60,,,,,left,1.387,3,1.151,,,,,,,,,,right,2.311,0,0,0,0,1,,,,,,,,
,,,,,,,,7,2021-04-18_16h04.27.437,premceCat2_ses-02_part-02_label-phase2,2020.2.10,Win32,60,,,,,,,,,0,20,20,123,1,stimuli/objects/gasburner.jpg,left,old,124,,,,,,,,,,,,,,,
,,,,,,,,7,2021-04-18_16h04.27.437,premceCat2_ses-02_part-02_label-phase2,2020.2.10,Win32,60,,,,,right,3.288,1,1.548,0,21,21,125,1,stimuli/objects/shoulderpad.jpg,right,new,126,,,,,,,,,,,,,,,
,,,,,,,,7,2021-04-18_16h04.27.437,premceCat2_ses-02_part-02_label-phase2,2020.2.10,Win32,60,,,,,right,1.316,2,1.014,0,22,22,54,1,stimuli/objects/pda.jpg,right,new,55,,,,,,,,,,,,,,,
,,,,,,,,7,2021-04-18_16h04.27.437,premceCat2_ses-02_part-02_label-phase2,2020.2.10,Win32,60,,,,,right,4.301,1,2.018,0,23,23,78,1,stimuli/objects/tupperware03a.jpg,left,old,79,,,,,,,,,,,,,,,
,,,,,,,,7,2021-04-18_16h04.27.437,premceCat2_ses-02_part-02_label-phase2,2020.2.10,Win32,60,,,,,left,1.106,3,1.125,,,,,,,,,,right,1.397,0,0,0,0,1,,,,,,,,
,,,,,,,,7,2021-04-18_16h04.27.437,premceCat2_ses-02_part-02_label-phase2,2020.2.10,Win32,60,,,,,,,,,0,24,24,37,1,stimuli/objects/bungeecord02.jpg,left,old,38,,,,,,,,,,,,,,,
,,,,,,,,7,2021-04-18_16h04.27.437,premceCat2_ses-02_part-02_label-phase2,2020.2.10,Win32,60,,,,,right,1.229,2,1.75,0,25,25,41,1,stimuli/objects/pylon01.jpg,right,new,42,,,,,,,,,,,,,,,
,,,,,,,,7,2021-04-18_16h04.27.437,premceCat2_ses-02_part-02_label-phase2,2020.2.10,Win32,60,,,,,right,2.305,2,0.808,0,26,26,138,1,stimuli/objects/taperecorder.jpg,right,new,139,,,,,,,,,,,,,,,
,,,,,,,,7,2021-04-18_16h04.27.437,premceCat2_ses-02_part-02_label-phase2,2020.2.10,Win32,60,,,,,left,13.066,2,1.395,,,,,,,,,,right,1.066,0,0,0,0,1,,,,,,,,
,,,,,,,,7,2021-04-18_16h04.27.437,premceCat2_ses-02_part-02_label-phase2,2020.2.10,Win32,60,,,,,,,,,0,27,27,68,1,stimuli/objects/leafblower01.jpg,right,new,69,,,,,,,,,,,,,,,
,,,,,,,,7,2021-04-18_16h04.27.437,premceCat2_ses-02_part-02_label-phase2,2020.2.10,Win32,60,,,,,left,8.673,3,0.409,,,,,,,,,,right,2.226,0,0,0,0,1,,,,,,,,
,,,,,,,,7,2021-04-18_16h04.27.437,premceCat2_ses-02_part-02_label-phase2,2020.2.10,Win32,60,,,,,,,,,0,28,28,12,1,stimuli/objects/garlicpress02a.jpg,right,new,13,,,,,,,,,,,,,,,
,,,,,,,,7,2021-04-18_16h04.27.437,premceCat2_ses-02_part-02_label-phase2,2020.2.10,Win32,60,,,,,right,1.033,2,0.596,0,29,29,121,1,stimuli/objects/ceilingspeaker.jpg,right,new,122,,,,,,,,,,,,,,,
,,,,,,,,7,2021-04-18_16h04.27.437,premceCat2_ses-02_part-02_label-phase2,2020.2.10,Win32,60,,,,,right,1.678,2,1.041,0,30,30,4,1,stimuli/objects/microphone01.jpg,right,new,5,,,,,,,,,,,,,,,
,,,,,,,,7,2021-04-18_16h04.27.437,premceCat2_ses-02_part-02_label-phase2,2020.2.10,Win32,60,,,,,right,1.273,2,0.596,0,31,31,42,1,stimuli/objects/snowshoe.jpg,right,new,43,,,,,,,,,,,,,,,
,,,,,,,,7,2021-04-18_16h04.27.437,premceCat2_ses-02_part-02_label-phase2,2020.2.10,Win32,60,,,,,left,1.111,4,1.117,,,,,,,,,,left,2.684,0,0,0,0,1,,,,,,,,
,,,,,,,,7,2021-04-18_16h04.27.437,premceCat2_ses-02_part-02_label-phase2,2020.2.10,Win32,60,,,,,,,,,0,32,32,95,1,stimuli/objects/lectern01.jpg,left,old,96,,,,,,,,,,,,,,,
,,,,,,,,7,2021-04-18_16h04.27.437,premceCat2_ses-02_part-02_label-phase2,2020.2.10,Win32,60,,,,,left,1.172,4,0.816,,,,,,,,,,left,0.545,0,0,0,0,1,,,,,,,,
,,,,,,,,7,2021-04-18_16h04.27.437,premceCat2_ses-02_part-02_label-phase2,2020.2.10,Win32,60,,,,,,,,,0,33,33,127,1,stimuli/objects/badmintonracket.jpg,left,old,128,,,,,,,,,,,,,,,
,,,,,,,,7,2021-04-18_16h04.27.437,premceCat2_ses-02_part-02_label-phase2,2020.2.10,Win32,60,,,,,left,5.304,2,1.914,,,,,,,,,,right,1.402,0,0,0,0,1,,,,,,,,
,,,,,,,,7,2021-04-18_16h04.27.437,premceCat2_ses-02_part-02_label-phase2,2020.2.10,Win32,60,,,,,,,,,0,34,34,105,1,stimuli/objects/videocamera01a.jpg,left,old,106,,,,,,,,,,,,,,,
,,,,,,,,7,2021-04-18_16h04.27.437,premceCat2_ses-02_part-02_label-phase2,2020.2.10,Win32,60,,,,,left,11.139,2,0.657,,,,,,,,,,left,0.762,0,0,0,0,1,,,,,,,,
,,,,,,,,7,2021-04-18_16h04.27.437,premceCat2_ses-02_part-02_label-phase2,2020.2.10,Win32,60,,,,,,,,,0,35,35,100,1,stimuli/objects/remotecontrol04.jpg,right,new,101,,,,,,,,,,,,,,,
,,,,,,,,7,2021-04-18_16h04.27.437,premceCat2_ses-02_part-02_label-phase2,2020.2.10,Win32,60,,,,,left,1.117,3,0.525,,,,,,,,,,right,1.752,0,0,0,0,1,,,,,,,,
,,,,,,,,7,2021-04-18_16h04.27.437,premceCat2_ses-02_part-02_label-phase2,2020.2.10,Win32,60,,,,,,,,,0,36,36,45,1,stimuli/objects/aluminiumfoil.jpg,left,old,46,,,,,,,,,,,,,,,
,,,,,,,,7,2021-04-18_16h04.27.437,premceCat2_ses-02_part-02_label-phase2,2020.2.10,Win32,60,,,,,left,1.132,2,0.74,,,,,,,,,,left,1.639,0,0,0,0,1,,,,,,,,
,,,,,,,,7,2021-04-18_16h04.27.437,premceCat2_ses-02_part-02_label-phase2,2020.2.10,Win32,60,,,,,,,,,0,37,37,135,1,stimuli/objects/pressurewasher.jpg,left,old,136,,,,,,,,,,,,,,,
,,,,,,,,7,2021-04-18_16h04.27.437,premceCat2_ses-02_part-02_label-phase2,2020.2.10,Win32,60,,,,,right,4.453,2,1.127,0,38,38,137,1,stimuli/objects/exercisebike.jpg,left,old,138,,,,,,,,,,,,,,,
,,,,,,,,7,2021-04-18_16h04.27.437,premceCat2_ses-02_part-02_label-phase2,2020.2.10,Win32,60,,,,,right,1.386,2,0.686,0,39,39,99,1,stimuli/objects/snowblower.jpg,left,old,100,,,,,,,,,,,,,,,
,,,,,,,,7,2021-04-18_16h04.27.437,premceCat2_ses-02_part-02_label-phase2,2020.2.10,Win32,60,,,,,left,2.875,3,1.221,,,,,,,,,,left,3.368,0,0,0,0,1,,,,,,,,
,,,,,,,,7,2021-04-18_16h04.27.437,premceCat2_ses-02_part-02_label-phase2,2020.2.10,Win32,60,,,,,,,,,0,40,40,52,1,stimuli/objects/spatula04.jpg,left,old,53,,,,,,,,,,,,,,,
,,,,,,,,7,2021-04-18_16h04.27.437,premceCat2_ses-02_part-02_label-phase2,2020.2.10,Win32,60,,,,,left,1.952,4,0.424,,,,,,,,,,right,0.759,0,0,0,0,1,,,,,,,,
,,,,,,,,7,2021-04-18_16h04.27.437,premceCat2_ses-02_part-02_label-phase2,2020.2.10,Win32,60,,,,,,,,,0,41,41,104,1,stimuli/objects/carantenna.jpg,left,old,105,,,,,,,,,,,,,,,
,,,,,,,,7,2021-04-18_16h04.27.437,premceCat2_ses-02_part-02_label-phase2,2020.2.10,Win32,60,,,,,right,2.405,2,0.678,0,42,42,9,1,stimuli/objects/measuringtape01.jpg,right,new,10,,,,,,,,,,,,,,,
,,,,,,,,7,2021-04-18_16h04.27.437,premceCat2_ses-02_part-02_label-phase2,2020.2.10,Win32,60,,,,,right,1.092,2,1.602,0,43,43,126,1,stimuli/objects/tableknife02.jpg,right,new,127,,,,,,,,,,,,,,,
,,,,,,,,7,2021-04-18_16h04.27.437,premceCat2_ses-02_part-02_label-phase2,2020.2.10,Win32,60,,,,,left,1.598,1,0.354,,,,,,,,,,right,1.438,0,0,0,0,1,,,,,,,,
,,,,,,,,7,2021-04-18_16h04.27.437,premceCat2_ses-02_part-02_label-phase2,2020.2.10,Win32,60,,,,,,,,,0,44,44,64,1,stimuli/objects/knifesharpener.jpg,left,old,65,,,,,,,,,,,,,,,
,,,,,,,,7,2021-04-18_16h04.27.437,premceCat2_ses-02_part-02_label-phase2,2020.2.10,Win32,60,,,,,right,1.413,1,5.532,0,45,45,26,1,stimuli/objects/boogieboard.jpg,right,new,27,,,,,,,,,,,,,,,
,,,,,,,,7,2021-04-18_16h04.27.437,premceCat2_ses-02_part-02_label-phase2,2020.2.10,Win32,60,,,,,right,1.671,1,1.261,0,46,46,96,1,stimuli/objects/golfbag.jpg,right,new,97,,,,,,,,,,,,,,,
,,,,,,,,7,2021-04-18_16h04.27.437,premceCat2_ses-02_part-02_label-phase2,2020.2.10,Win32,60,,,,,left,0.988,3,0.309,,,,,,,,,,right,1.369,0,0,0,0,1,,,,,,,,
,,,,,,,,7,2021-04-18_16h04.27.437,premceCat2_ses-02_part-02_label-phase2,2020.2.10,Win32,60,,,,,,,,,0,47,47,101,1,stimuli/objects/chandelier.jpg,left,old,102,,,,,,,,,,,,,,,
,,,,,,,,7,2021-04-18_16h04.27.437,premceCat2_ses-02_part-02_label-phase2,2020.2.10,Win32,60,,,,,right,1.421,2,0.549,0,48,48,128,1,stimuli/objects/tripod01.jpg,right,new,129,,,,,,,,,,,,,,,
,,,,,,,,7,2021-04-18_16h04.27.437,premceCat2_ses-02_part-02_label-phase2,2020.2.10,Win32,60,,,,,right,1.163,2,0.416,0,49,49,81,1,stimuli/objects/avcable.jpg,right,new,82,,,,,,,,,,,,,,,
,,,,,,,,7,2021-04-18_16h04.27.437,premceCat2_ses-02_part-02_label-phase2,2020.2.10,Win32,60,,,,,left,0.92,3,0.327,,,,,,,,,,left,1.631,0,0,0,0,1,,,,,,,,
,,,,,,,,7,2021-04-18_16h04.27.437,premceCat2_ses-02_part-02_label-phase2,2020.2.10,Win32,60,,,,,,,,,0,50,50,70,1,stimuli/objects/martiniglass01b.jpg,left,old,71,,,,,,,,,,,,,,,
,,,,,,,,7,2021-04-18_16h04.27.437,premceCat2_ses-02_part-02_label-phase2,2020.2.10,Win32,60,,,,,right,1.227,2,0.715,0,51,51,86,1,stimuli/objects/toasteroven.jpg,right,new,87,,,,,,,,,,,,,,,
,,,,,,,,7,2021-04-18_16h04.27.437,premceCat2_ses-02_part-02_label-phase2,2020.2.10,Win32,60,,,,,left,1.429,2,0.544,,,,,,,,,,left,1.886,0,0,0,0,1,,,,,,,,
,,,,,,,,7,2021-04-18_16h04.27.437,premceCat2_ses-02_part-02_label-phase2,2020.2.10,Win32,60,,,,,,,,,0,52,52,117,1,stimuli/objects/videotape01b.jpg,right,new,118,,,,,,,,,,,,,,,
,,,,,,,,7,2021-04-18_16h04.27.437,premceCat2_ses-02_part-02_label-phase2,2020.2.10,Win32,60,,,,,right,3.336,2,0.871,0,53,53,131,1,stimuli/objects/spotlight.jpg,right,new,132,,,,,,,,,,,,,,,
,,,,,,,,7,2021-04-18_16h04.27.437,premceCat2_ses-02_part-02_label-phase2,2020.2.10,Win32,60,,,,,left,1.591,2,0.449,,,,,,,,,,right,1.933,0,0,0,0,1,,,,,,,,
,,,,,,,,7,2021-04-18_16h04.27.437,premceCat2_ses-02_part-02_label-phase2,2020.2.10,Win32,60,,,,,,,,,0,54,54,114,1,stimuli/objects/butterknife.jpg,left,old,115,,,,,,,,,,,,,,,
,,,,,,,,7,2021-04-18_16h04.27.437,premceCat2_ses-02_part-02_label-phase2,2020.2.10,Win32,60,,,,,left,1.349,2,2.664,,,,,,,,,,left,2.052,0,0,0,0,1,,,,,,,,
,,,,,,,,7,2021-04-18_16h04.27.437,premceCat2_ses-02_part-02_label-phase2,2020.2.10,Win32,60,,,,,,,,,0,55,55,85,1,stimuli/objects/golfball.jpg,right,new,86,,,,,,,,,,,,,,,
,,,,,,,,7,2021-04-18_16h04.27.437,premceCat2_ses-02_part-02_label-phase2,2020.2.10,Win32,60,,,,,left,1.949,1,0.346,,,,,,,,,,right,0.724,0,0,0,0,1,,,,,,,,
,,,,,,,,7,2021-04-18_16h04.27.437,premceCat2_ses-02_part-02_label-phase2,2020.2.10,Win32,60,,,,,,,,,0,56,56,89,1,stimuli/objects/ducttape.jpg,right,new,90,,,,,,,,,,,,,,,
,,,,,,,,7,2021-04-18_16h04.27.437,premceCat2_ses-02_part-02_label-phase2,2020.2.10,Win32,60,,,,,left,1.163,4,0.509,,,,,,,,,,left,2.769,0,0,0,0,1,,,,,,,,
,,,,,,,,7,2021-04-18_16h04.27.437,premceCat2_ses-02_part-02_label-phase2,2020.2.10,Win32,60,,,,,,,,,0,57,57,48,1,stimuli/objects/breadknife.jpg,left,old,49,,,,,,,,,,,,,,,
,,,,,,,,7,2021-04-18_16h04.27.437,premceCat2_ses-02_part-02_label-phase2,2020.2.10,Win32,60,,,,,right,3.825,1,2.169,0,58,58,1,1,stimuli/objects/photocopier.jpg,left,old,2,,,,,,,,,,,,,,,
,,,,,,,,7,2021-04-18_16h04.27.437,premceCat2_ses-02_part-02_label-phase2,2020.2.10,Win32,60,,,,,right,1.279,2,1.028,0,59,59,110,1,stimuli/objects/lock03a.jpg,right,new,111,,,,,,,,,,,,,,,
,,,,,,,,7,2021-04-18_16h04.27.437,premceCat2_ses-02_part-02_label-phase2,2020.2.10,Win32,60,,,,,right,2.769,2,1.18,0,60,60,76,1,stimuli/objects/megaphone.jpg,right,new,77,,,,,,,,,,,,,,,
,,,,,,,,7,2021-04-18_16h04.27.437,premceCat2_ses-02_part-02_label-phase2,2020.2.10,Win32,60,,,,,right,1.549,1,1.069,0,61,61,122,1,stimuli/objects/extensioncord.jpg,left,old,123,,,,,,,,,,,,,,,
,,,,,,,,7,2021-04-18_16h04.27.437,premceCat2_ses-02_part-02_label-phase2,2020.2.10,Win32,60,,,,,right,2.573,1,0.933,0,62,62,130,1,stimuli/objects/soccerball.jpg,left,old,131,,,,,,,,,,,,,,,
,,,,,,,,7,2021-04-18_16h04.27.437,premceCat2_ses-02_part-02_label-phase2,2020.2.10,Win32,60,,,,,right,2.629,1,0.476,0,63,63,11,1,stimuli/objects/telephone01b.jpg,left,old,12,,,,,,,,,,,,,,,
,,,,,,,,7,2021-04-18_16h04.27.437,premceCat2_ses-02_part-02_label-phase2,2020.2.10,Win32,60,,,,,right,1.551,1,0.501,0,64,64,83,1,stimuli/objects/kitchenscale01a.jpg,right,new,84,,,,,,,,,,,,,,,
,,,,,,,,7,2021-04-18_16h04.27.437,premceCat2_ses-02_part-02_label-phase2,2020.2.10,Win32,60,,,,,right,20.779,2,1.096,0,65,65,139,1,stimuli/objects/frisbee.jpg,right,new,140,,,,,,,,,,,,,,,
,,,,,,,,7,2021-04-18_16h04.27.437,premceCat2_ses-02_part-02_label-phase2,2020.2.10,Win32,60,,,,,right,1.852,2,0.712,0,66,66,30,1,stimuli/objects/printer02.jpg,right,new,31,,,,,,,,,,,,,,,
,,,,,,,,7,2021-04-18_16h04.27.437,premceCat2_ses-02_part-02_label-phase2,2020.2.10,Win32,60,,,,,right,2.419,2,0.546,0,67,67,59,1,stimuli/objects/studiolight.jpg,right,new,60,,,,,,,,,,,,,,,
,,,,,,,,7,2021-04-18_16h04.27.437,premceCat2_ses-02_part-02_label-phase2,2020.2.10,Win32,60,,,,,left,1.181,3,0.149,,,,,,,,,,left,2.617,0,0,0,0,1,,,,,,,,
,,,,,,,,7,2021-04-18_16h04.27.437,premceCat2_ses-02_part-02_label-phase2,2020.2.10,Win32,60,,,,,,,,,0,68,68,102,1,stimuli/objects/propanetank01.jpg,left,old,103,,,,,,,,,,,,,,,
,,,,,,,,7,2021-04-18_16h04.27.437,premceCat2_ses-02_part-02_label-phase2,2020.2.10,Win32,60,,,,,left,1.554,2,0.359,,,,,,,,,,right,1.079,0,0,0,0,1,,,,,,,,
,,,,,,,,7,2021-04-18_16h04.27.437,premceCat2_ses-02_part-02_label-phase2,2020.2.10,Win32,60,,,,,,,,,0,69,69,35,1,stimuli/objects/crocodileclips.jpg,left,old,36,,,,,,,,,,,,,,,
,,,,,,,,7,2021-04-18_16h04.27.437,premceCat2_ses-02_part-02_label-phase2,2020.2.10,Win32,60,,,,,left,1.256,3,0.941,,,,,,,,,,right,1.666,0,0,0,0,1,,,,,,,,
,,,,,,,,7,2021-04-18_16h04.27.437,premceCat2_ses-02_part-02_label-phase2,2020.2.10,Win32,60,,,,,,,,,0,70,70,91,1,stimuli/objects/chainsaw.jpg,left,old,92,,,,,,,,,,,,,,,
,,,,,,,,7,2021-04-18_16h04.27.437,premceCat2_ses-02_part-02_label-phase2,2020.2.10,Win32,60,,,,,left,1.105,4,0.657,,,,,,,,,,left,1.089,0,0,0,0,1,,,,,,,,
,,,,,,,,7,2021-04-18_16h04.27.437,premceCat2_ses-02_part-02_label-phase2,2020.2.10,Win32,60,,,,,,,,,0,71,71,62,1,stimuli/objects/potatomasher03b.jpg,left,old,63,,,,,,,,,,,,,,,
,,,,,,,,7,2021-04-18_16h04.27.437,premceCat2_ses-02_part-02_label-phase2,2020.2.10,Win32,60,,,,,left,1.782,2,0.619,,,,,,,,,,right,0.523,0,0,0,0,1,,,,,,,,
,,,,,,,,7,2021-04-18_16h04.27.437,premceCat2_ses-02_part-02_label-phase2,2020.2.10,Win32,60,,,,,,,,,0,72,72,69,1,stimuli/objects/atm.jpg,left,old,70,,,,,,,,,,,,,,,
,,,,,,,,7,2021-04-18_16h04.27.437,premceCat2_ses-02_part-02_label-phase2,2020.2.10,Win32,60,,,,,left,1.095,3,1.221,,,,,,,,,,right,0.355,0,0,0,0,1,,,,,,,,
,,,,,,,,7,2021-04-18_16h04.27.437,premceCat2_ses-02_part-02_label-phase2,2020.2.10,Win32,60,,,,,,,,,0,73,73,98,1,stimuli/objects/handgripper.jpg,left,old,99,,,,,,,,,,,,,,,
,,,,,,,,7,2021-04-18_16h04.27.437,premceCat2_ses-02_part-02_label-phase2,2020.2.10,Win32,60,,,,,left,1.738,2,0.625,,,,,,,,,,left,0.959,0,0,0,0,1,,,,,,,,
,,,,,,,,7,2021-04-18_16h04.27.437,premceCat2_ses-02_part-02_label-phase2,2020.2.10,Win32,60,,,,,,,,,0,74,74,49,1,stimuli/objects/volleyball.jpg,left,old,50,,,,,,,,,,,,,,,
,,,,,,,,7,2021-04-18_16h04.27.437,premceCat2_ses-02_part-02_label-phase2,2020.2.10,Win32,60,,,,,left,1.055,4,0.317,,,,,,,,,,right,0.429,0,0,0,0,1,,,,,,,,
,,,,,,,,7,2021-04-18_16h04.27.437,premceCat2_ses-02_part-02_label-phase2,2020.2.10,Win32,60,,,,,,,,,0,75,75,67,1,stimuli/objects/bikelock.jpg,left,old,68,,,,,,,,,,,,,,,
,,,,,,,,7,2021-04-18_16h04.27.437,premceCat2_ses-02_part-02_label-phase2,2020.2.10,Win32,60,,,,,left,1.073,3,0.801,,,,,,,,,,right,0.664,0,0,0,0,1,,,,,,,,
,,,,,,,,7,2021-04-18_16h04.27.437,premceCat2_ses-02_part-02_label-phase2,2020.2.10,Win32,60,,,,,,,,,0,76,76,33,1,stimuli/objects/microwave.jpg,right,new,34,,,,,,,,,,,,,,,
,,,,,,,,7,2021-04-18_16h04.27.437,premceCat2_ses-02_part-02_label-phase2,2020.2.10,Win32,60,,,,,left,1.036,2,2.072,,,,,,,,,,left,0.976,0,0,0,0,1,,,,,,,,
,,,,,,,,7,2021-04-18_16h04.27.437,premceCat2_ses-02_part-02_label-phase2,2020.2.10,Win32,60,,,,,,,,,0,77,77,87,1,stimuli/objects/fluorescentlightbulb.jpg,left,old,88,,,,,,,,,,,,,,,
,,,,,,,,7,2021-04-18_16h04.27.437,premceCat2_ses-02_part-02_label-phase2,2020.2.10,Win32,60,,,,,left,1.335,1,1.101,,,,,,,,,,right,0.744,0,0,0,0,1,,,,,,,,
,,,,,,,,7,2021-04-18_16h04.27.437,premceCat2_ses-02_part-02_label-phase2,2020.2.10,Win32,60,,,,,,,,,0,78,78,18,1,stimuli/objects/cashregister01.jpg,right,new,19,,,,,,,,,,,,,,,
,,,,,,,,7,2021-04-18_16h04.27.437,premceCat2_ses-02_part-02_label-phase2,2020.2.10,Win32,60,,,,,left,1.068,4,0.36,,,,,,,,,,right,1.243,0,0,0,0,1,,,,,,,,
,,,,,,,,7,2021-04-18_16h04.27.437,premceCat2_ses-02_part-02_label-phase2,2020.2.10,Win32,60,,,,,,,,,0,79,79,28,1,stimuli/objects/anchor.jpg,left,old,29,,,,,,,,,,,,,,,
,,,,,,,,7,2021-04-18_16h04.27.437,premceCat2_ses-02_part-02_label-phase2,2020.2.10,Win32,60,,,,,right,2.853,1,0.772,0,80,80,108,1,stimuli/objects/metalscissors.jpg,right,new,109,,,,,,,,,,,,,,,
,,,,,,,,7,2021-04-18_16h04.27.437,premceCat2_ses-02_part-02_label-phase2,2020.2.10,Win32,60,,,,,left,1.006,3,0.289,,,,,,,,,,left,1.837,0,0,0,0,1,,,,,,,,
,,,,,,,,7,2021-04-18_16h04.27.437,premceCat2_ses-02_part-02_label-phase2,2020.2.10,Win32,60,,,,,,,,,0,81,81,40,1,stimuli/objects/wateringcan.jpg,left,old,41,,,,,,,,,,,,,,,
,,,,,,,,7,2021-04-18_16h04.27.437,premceCat2_ses-02_part-02_label-phase2,2020.2.10,Win32,60,,,,,left,1.027,4,0.578,,,,,,,,,,right,1.737,0,0,0,0,1,,,,,,,,
,,,,,,,,7,2021-04-18_16h04.27.437,premceCat2_ses-02_part-02_label-phase2,2020.2.10,Win32,60,,,,,,,,,0,82,82,58,1,stimuli/objects/toyhardhat.jpg,left,old,59,,,,,,,,,,,,,,,
,,,,,,,,7,2021-04-18_16h04.27.437,premceCat2_ses-02_part-02_label-phase2,2020.2.10,Win32,60,,,,,left,1.406,1,0.388,,,,,,,,,,left,0.774,0,0,0,0,1,,,,,,,,
,,,,,,,,7,2021-04-18_16h04.27.437,premceCat2_ses-02_part-02_label-phase2,2020.2.10,Win32,60,,,,,,,,,0,83,83,44,1,stimuli/objects/pliers02b.jpg,left,old,45,,,,,,,,,,,,,,,
,,,,,,,,7,2021-04-18_16h04.27.437,premceCat2_ses-02_part-02_label-phase2,2020.2.10,Win32,60,,,,,right,1.36,2,0.504,0,84,84,93,1,stimuli/objects/icepack.jpg,right,new,94,,,,,,,,,,,,,,,
,,,,,,,,7,2021-04-18_16h04.27.437,premceCat2_ses-02_part-02_label-phase2,2020.2.10,Win32,60,,,,,left,2.4,1,0.363,,,,,,,,,,left,0.947,0,0,0,0,1,,,,,,,,
,,,,,,,,7,2021-04-18_16h04.27.437,premceCat2_ses-02_part-02_label-phase2,2020.2.10,Win32,60,,,,,,,,,0,85,85,21,1,stimuli/objects/paintbrush01.jpg,right,new,22,,,,,,,,,,,,,,,
,,,,,,,,7,2021-04-18_16h04.27.437,premceCat2_ses-02_part-02_label-phase2,2020.2.10,Win32,60,,,,,left,1.321,2,1.872,,,,,,,,,,right,0.899,0,0,0,0,1,,,,,,,,
,,,,,,,,7,2021-04-18_16h04.27.437,premceCat2_ses-02_part-02_label-phase2,2020.2.10,Win32,60,,,,,,,,,0,86,86,97,1,stimuli/objects/coffeemachine.jpg,left,old,98,,,,,,,,,,,,,,,
,,,,,,,,7,2021-04-18_16h04.27.437,premceCat2_ses-02_part-02_label-phase2,2020.2.10,Win32,60,,,,,right,1.374,1,0.36,0,87,87,106,1,stimuli/objects/minifridge.jpg,right,new,107,,,,,,,,,,,,,,,
,,,,,,,,7,2021-04-18_16h04.27.437,premceCat2_ses-02_part-02_label-phase2,2020.2.10,Win32,60,,,,,left,2.37,2,0.3,,,,,,,,,,left,1.815,0,0,0,0,1,,,,,,,,
,,,,,,,,7,2021-04-18_16h04.27.437,premceCat2_ses-02_part-02_label-phase2,2020.2.10,Win32,60,,,,,,,,,0,88,88,129,1,stimuli/objects/cleaver01.jpg,left,old,130,,,,,,,,,,,,,,,
,,,,,,,,7,2021-04-18_16h04.27.437,premceCat2_ses-02_part-02_label-phase2,2020.2.10,Win32,60,,,,,left,1.096,2,0.814,,,,,,,,,,left,1.166,0,0,0,0,1,,,,,,,,
,,,,,,,,7,2021-04-18_16h04.27.437,premceCat2_ses-02_part-02_label-phase2,2020.2.10,Win32,60,,,,,,,,,0,89,89,71,1,stimuli/objects/faxmachine.jpg,right,new,72,,,,,,,,,,,,,,,
,,,,,,,,7,2021-04-18_16h04.27.437,premceCat2_ses-02_part-02_label-phase2,2020.2.10,Win32,60,,,,,left,1.158,4,0.95,,,,,,,,,,right,1.121,0,0,0,0,1,,,,,,,,
,,,,,,,,7,2021-04-18_16h04.27.437,premceCat2_ses-02_part-02_label-phase2,2020.2.10,Win32,60,,,,,,,,,0,90,90,103,1,stimuli/objects/towel01.jpg,left,old,104,,,,,,,,,,,,,,,
,,,,,,,,7,2021-04-18_16h04.27.437,premceCat2_ses-02_part-02_label-phase2,2020.2.10,Win32,60,,,,,left,1.365,3,0.242,,,,,,,,,,right,2.7,0,0,0,0,1,,,,,,,,
,,,,,,,,7,2021-04-18_16h04.27.437,premceCat2_ses-02_part-02_label-phase2,2020.2.10,Win32,60,,,,,,,,,0,91,91,6,1,stimuli/objects/corkscrew03a.jpg,left,old,7,,,,,,,,,,,,,,,
,,,,,,,,7,2021-04-18_16h04.27.437,premceCat2_ses-02_part-02_label-phase2,2020.2.10,Win32,60,,,,,left,4.251,2,0.97,,,,,,,,,,right,0.686,0,0,0,0,1,,,,,,,,
,,,,,,,,7,2021-04-18_16h04.27.437,premceCat2_ses-02_part-02_label-phase2,2020.2.10,Win32,60,,,,,,,,,0,92,92,23,1,stimuli/objects/football.jpg,right,new,24,,,,,,,,,,,,,,,
,,,,,,,,7,2021-04-18_16h04.27.437,premceCat2_ses-02_part-02_label-phase2,2020.2.10,Win32,60,,,,,left,3.971,1,0.721,,,,,,,,,,right,0.286,0,0,0,0,1,,,,,,,,
,,,,,,,,7,2021-04-18_16h04.27.437,premceCat2_ses-02_part-02_label-phase2,2020.2.10,Win32,60,,,,,,,,,0,93,93,31,1,stimuli/objects/mallet01b.jpg,left,old,32,,,,,,,,,,,,,,,
,,,,,,,,7,2021-04-18_16h04.27.437,premceCat2_ses-02_part-02_label-phase2,2020.2.10,Win32,60,,,,,left,1.411,3,0.532,,,,,,,,,,left,5.241,0,0,0,0,1,,,,,,,,
,,,,,,,,7,2021-04-18_16h04.27.437,premceCat2_ses-02_part-02_label-phase2,2020.2.10,Win32,60,,,,,,,,,0,94,94,84,1,stimuli/objects/hockeypuck.jpg,left,old,85,,,,,,,,,,,,,,,
,,,,,,,,7,2021-04-18_16h04.27.437,premceCat2_ses-02_part-02_label-phase2,2020.2.10,Win32,60,,,,,right,2.255,2,1.743,0,95,95,118,1,stimuli/objects/sledgehammer.jpg,left,old,119,,,,,,,,,,,,,,,
,,,,,,,,7,2021-04-18_16h04.27.437,premceCat2_ses-02_part-02_label-phase2,2020.2.10,Win32,60,,,,,right,1.231,2,1.507,0,96,96,119,1,stimuli/objects/tongs01b.jpg,right,new,120,,,,,,,,,,,,,,,
,,,,,,,,7,2021-04-18_16h04.27.437,premceCat2_ses-02_part-02_label-phase2,2020.2.10,Win32,60,,,,,right,1.464,2,2.092,0,97,97,25,1,stimuli/objects/bowlingball.jpg,right,new,26,,,,,,,,,,,,,,,
,,,,,,,,7,2021-04-18_16h04.27.437,premceCat2_ses-02_part-02_label-phase2,2020.2.10,Win32,60,,,,,left,1.149,3,0.351,,,,,,,,,,left,1.384,0,0,0,0,1,,,,,,,,
,,,,,,,,7,2021-04-18_16h04.27.437,premceCat2_ses-02_part-02_label-phase2,2020.2.10,Win32,60,,,,,,,,,0,98,98,27,1,stimuli/objects/baseballglove.jpg,left,old,28,,,,,,,,,,,,,,,
,,,,,,,,7,2021-04-18_16h04.27.437,premceCat2_ses-02_part-02_label-phase2,2020.2.10,Win32,60,,,,,left,3.224,3,0.423,,,,,,,,,,right,0.419,0,0,0,0,1,,,,,,,,
,,,,,,,,7,2021-04-18_16h04.27.437,premceCat2_ses-02_part-02_label-phase2,2020.2.10,Win32,60,,,,,,,,,0,99,99,77,1,stimuli/objects/headphones02b.jpg,left,old,78,,,,,,,,,,,,,,,
,,,,,,,,7,2021-04-18_16h04.27.437,premceCat2_ses-02_part-02_label-phase2,2020.2.10,Win32,60,,,,,left,18.173,2,1.018,,,,,,,,,,left,0.736,0,0,0,0,1,,,,,,,,
,,,,,,,,7,2021-04-18_16h04.27.437,premceCat2_ses-02_part-02_label-phase2,2020.2.10,Win32,60,,,,,,,,,0,100,100,94,1,stimuli/objects/electricmixer.jpg,right,new,95,,,,,,,,,,,,,,,
,,,,,,,,7,2021-04-18_16h04.27.437,premceCat2_ses-02_part-02_label-phase2,2020.2.10,Win32,60,,,,,left,4.962,2,1.237,,,,,,,,,,left,1.655,0,0,0,0,1,,,,,,,,
,,,,,,,,7,2021-04-18_16h04.27.437,premceCat2_ses-02_part-02_label-phase2,2020.2.10,Win32,60,,,,,,,,,0,101,101,56,1,stimuli/objects/thermos.jpg,left,old,57,,,,,,,,,,,,,,,
,,,,,,,,7,2021-04-18_16h04.27.437,premceCat2_ses-02_part-02_label-phase2,2020.2.10,Win32,60,,,,,right,2.767,1,2.549,0,102,102,8,1,stimuli/objects/basketballhoop01.jpg,right,new,9,,,,,,,,,,,,,,,
,,,,,,,,7,2021-04-18_16h04.27.437,premceCat2_ses-02_part-02_label-phase2,2020.2.10,Win32,60,,,,,right,1.331,2,0.33,0,103,103,60,1,stimuli/objects/glass02a.jpg,right,new,61,,,,,,,,,,,,,,,
,,,,,,,,7,2021-04-18_16h04.27.437,premceCat2_ses-02_part-02_label-phase2,2020.2.10,Win32,60,,,,,left,1.135,3,1.279,,,,,,,,,,right,1.136,0,0,0,0,1,,,,,,,,
,,,,,,,,7,2021-04-18_16h04.27.437,premceCat2_ses-02_part-02_label-phase2,2020.2.10,Win32,60,,,,,,,,,0,104,104,10,1,stimuli/objects/dvdcase01.jpg,left,old,11,,,,,,,,,,,,,,,
,,,,,,,,7,2021-04-18_16h04.27.437,premceCat2_ses-02_part-02_label-phase2,2020.2.10,Win32,60,,,,,left,1.224,4,1.464,,,,,,,,,,right,1.376,0,0,0,0,1,,,,,,,,
,,,,,,,,7,2021-04-18_16h04.27.437,premceCat2_ses-02_part-02_label-phase2,2020.2.10,Win32,60,,,,,,,,,0,105,105,132,1,stimuli/objects/djmixer02.jpg,left,old,133,,,,,,,,,,,,,,,
,,,,,,,,7,2021-04-18_16h04.27.437,premceCat2_ses-02_part-02_label-phase2,2020.2.10,Win32,60,,,,,right,1.266,2,1.049,0,106,106,43,1,stimuli/objects/punchingball.jpg,right,new,44,,,,,,,,,,,,,,,
,,,,,,,,7,2021-04-18_16h04.27.437,premceCat2_ses-02_part-02_label-phase2,2020.2.10,Win32,60,,,,,right,1.7,2,1.496,0,107,107,75,1,stimuli/objects/stepladder.jpg,right,new,76,,,,,,,,,,,,,,,
,,,,,,,,7,2021-04-18_16h04.27.437,premceCat2_ses-02_part-02_label-phase2,2020.2.10,Win32,60,,,,,left,2.097,1,0.488,,,,,,,,,,right,0.624,0,0,0,0,1,,,,,,,,
,,,,,,,,7,2021-04-18_16h04.27.437,premceCat2_ses-02_part-02_label-phase2,2020.2.10,Win32,60,,,,,,,,,0,108,108,113,1,stimuli/objects/powercable.jpg,right,new,114,,,,,,,,,,,,,,,
,,,,,,,,7,2021-04-18_16h04.27.437,premceCat2_ses-02_part-02_label-phase2,2020.2.10,Win32,60,,,,,right,1.496,2,0.552,0,109,109,133,1,stimuli/objects/icebucket.jpg,right,new,134,,,,,,,,,,,,,,,
,,,,,,,,7,2021-04-18_16h04.27.437,premceCat2_ses-02_part-02_label-phase2,2020.2.10,Win32,60,,,,,left,1.078,2,1.229,,,,,,,,,,left,2.405,0,0,0,0,1,,,,,,,,
,,,,,,,,7,2021-04-18_16h04.27.437,premceCat2_ses-02_part-02_label-phase2,2020.2.10,Win32,60,,,,,,,,,0,110,110,5,1,stimuli/objects/fan.jpg,left,old,6,,,,,,,,,,,,,,,
,,,,,,,,7,2021-04-18_16h04.27.437,premceCat2_ses-02_part-02_label-phase2,2020.2.10,Win32,60,,,,,right,5.11,2,2.332,0,111,111,124,1,stimuli/objects/reflector.jpg,left,old,125,,,,,,,,,,,,,,,
,,,,,,,,7,2021-04-18_16h04.27.437,premceCat2_ses-02_part-02_label-phase2,2020.2.10,Win32,60,,,,,left,1.147,3,0.287,,,,,,,,,,left,1.171,0,0,0,0,1,,,,,,,,
,,,,,,,,7,2021-04-18_16h04.27.437,premceCat2_ses-02_part-02_label-phase2,2020.2.10,Win32,60,,,,,,,,,0,112,112,120,1,stimuli/objects/pot01.jpg,left,old,121,,,,,,,,,,,,,,,
,,,,,,,,7,2021-04-18_16h04.27.437,premceCat2_ses-02_part-02_label-phase2,2020.2.10,Win32,60,,,,,left,1.141,3,0.718,,,,,,,,,,left,1.584,0,0,0,0,1,,,,,,,,
,,,,,,,,7,2021-04-18_16h04.27.437,premceCat2_ses-02_part-02_label-phase2,2020.2.10,Win32,60,,,,,,,,,0,113,113,140,1,stimuli/objects/catchermask.jpg,left,old,141,,,,,,,,,,,,,,,
,,,,,,,,7,2021-04-18_16h04.27.437,premceCat2_ses-02_part-02_label-phase2,2020.2.10,Win32,60,,,,,right,1.41,2,1.701,0,114,114,92,1,stimuli/objects/carjack.jpg,right,new,93,,,,,,,,,,,,,,,
,,,,,,,,7,2021-04-18_16h04.27.437,premceCat2_ses-02_part-02_label-phase2,2020.2.10,Win32,60,,,,,left,0.942,4,0.48,,,,,,,,,,right,0.662,0,0,0,0,1,,,,,,,,
,,,,,,,,7,2021-04-18_16h04.27.437,premceCat2_ses-02_part-02_label-phase2,2020.2.10,Win32,60,,,,,,,,,0,115,115,47,1,stimuli/objects/hoe.jpg,left,old,48,,,,,,,,,,,,,,,
,,,,,,,,7,2021-04-18_16h04.27.437,premceCat2_ses-02_part-02_label-phase2,2020.2.10,Win32,60,,,,,right,4.442,3,4.131,0,116,116,73,1,stimuli/objects/clock01a.jpg,right,new,74,,,,,,,,,,,,,,,
,,,,,,,,7,2021-04-18_16h04.27.437,premceCat2_ses-02_part-02_label-phase2,2020.2.10,Win32,60,,,,,right,2.637,2,0.9,0,117,117,50,1,stimuli/objects/chisel02b.jpg,right,new,51,,,,,,,,,,,,,,,
,,,,,,,,7,2021-04-18_16h04.27.437,premceCat2_ses-02_part-02_label-phase2,2020.2.10,Win32,60,,,,,right,2.703,1,0.478,0,118,118,53,1,stimuli/objects/binoculars01b.jpg,right,new,54,,,,,,,,,,,,,,,
,,,,,,,,7,2021-04-18_16h04.27.437,premceCat2_ses-02_part-02_label-phase2,2020.2.10,Win32,60,,,,,right,2.325,2,0.38,0,119,119,82,1,stimuli/objects/snowbrush.jpg,right,new,83,,,,,,,,,,,,,,,
,,,,,,,,7,2021-04-18_16h04.27.437,premceCat2_ses-02_part-02_label-phase2,2020.2.10,Win32,60,,,,,right,1.332,2,0.388,0,120,120,66,1,stimuli/objects/nailgun.jpg,right,new,67,,,,,,,,,,,,,,,
,,,,,,,,7,2021-04-18_16h04.27.437,premceCat2_ses-02_part-02_label-phase2,2020.2.10,Win32,60,,,,,left,5.569,1,0.816,,,,,,,,,,right,1.035,0,0,0,0,1,,,,,,,,
,,,,,,,,7,2021-04-18_16h04.27.437,premceCat2_ses-02_part-02_label-phase2,2020.2.10,Win32,60,,,,,,,,,0,121,121,55,1,stimuli/objects/toolbox02.jpg,right,new,56,,,,,,,,,,,,,,,
,,,,,,,,7,2021-04-18_16h04.27.437,premceCat2_ses-02_part-02_label-phase2,2020.2.10,Win32,60,,,,,left,1.21,3,1.801,,,,,,,,,,right,1.397,0,0,0,0,1,,,,,,,,
,,,,,,,,7,2021-04-18_16h04.27.437,premceCat2_ses-02_part-02_label-phase2,2020.2.10,Win32,60,,,,,,,,,0,122,122,14,1,stimuli/objects/wheelbarrow01.jpg,left,old,15,,,,,,,,,,,,,,,
,,,,,,,,7,2021-04-18_16h04.27.437,premceCat2_ses-02_part-02_label-phase2,2020.2.10,Win32,60,,,,,right,1.347,2,0.411,0,123,123,22,1,stimuli/objects/umbrella04.jpg,right,new,23,,,,,,,,,,,,,,,
,,,,,,,,7,2021-04-18_16h04.27.437,premceCat2_ses-02_part-02_label-phase2,2020.2.10,Win32,60,,,,,right,1.671,2,0.428,0,124,124,39,1,stimuli/objects/sippycup.jpg,right,new,40,,,,,,,,,,,,,,,
,,,,,,,,7,2021-04-18_16h04.27.437,premceCat2_ses-02_part-02_label-phase2,2020.2.10,Win32,60,,,,,left,1.543,3,0.423,,,,,,,,,,left,1.179,0,0,0,0,1,,,,,,,,
,,,,,,,,7,2021-04-18_16h04.27.437,premceCat2_ses-02_part-02_label-phase2,2020.2.10,Win32,60,,,,,,,,,0,125,125,115,1,stimuli/objects/pipewrench.jpg,left,old,116,,,,,,,,,,,,,,,
,,,,,,,,7,2021-04-18_16h04.27.437,premceCat2_ses-02_part-02_label-phase2,2020.2.10,Win32,60,,,,,left,11.068,3,1.183,,,,,,,,,,right,3.234,0,0,0,0,1,,,,,,,,
,,,,,,,,7,2021-04-18_16h04.27.437,premceCat2_ses-02_part-02_label-phase2,2020.2.10,Win32,60,,,,,,,,,0,126,126,79,1,stimuli/objects/dvdplayer.jpg,left,old,80,,,,,,,,,,,,,,,
,,,,,,,,7,2021-04-18_16h04.27.437,premceCat2_ses-02_part-02_label-phase2,2020.2.10,Win32,60,,,,,left,1.073,2,1.28,,,,,,,,,,left,0.939,0,0,0,0,1,,,,,,,,
,,,,,,,,7,2021-04-18_16h04.27.437,premceCat2_ses-02_part-02_label-phase2,2020.2.10,Win32,60,,,,,,,,,0,127,127,88,1,stimuli/objects/measuringcup01.jpg,left,old,89,,,,,,,,,,,,,,,
,,,,,,,,7,2021-04-18_16h04.27.437,premceCat2_ses-02_part-02_label-phase2,2020.2.10,Win32,60,,,,,right,1.105,2,0.634,0,128,128,65,1,stimuli/objects/squeegee01b.jpg,left,old,66,,,,,,,,,,,,,,,
,,,,,,,,7,2021-04-18_16h04.27.437,premceCat2_ses-02_part-02_label-phase2,2020.2.10,Win32,60,,,,,left,1.459,3,0.365,,,,,,,,,,left,0.787,0,0,0,0,1,,,,,,,,
,,,,,,,,7,2021-04-18_16h04.27.437,premceCat2_ses-02_part-02_label-phase2,2020.2.10,Win32,60,,,,,,,,,0,129,129,15,1,stimuli/objects/watercooler.jpg,left,old,16,,,,,,,,,,,,,,,
,,,,,,,,7,2021-04-18_16h04.27.437,premceCat2_ses-02_part-02_label-phase2,2020.2.10,Win32,60,,,,,left,1.058,1,0.928,,,,,,,,,,right,0.286,0,0,0,0,1,,,,,,,,
,,,,,,,,7,2021-04-18_16h04.27.437,premceCat2_ses-02_part-02_label-phase2,2020.2.10,Win32,60,,,,,,,,,0,130,130,0,1,stimuli/objects/ethernetcable02.jpg,left,old,1,,,,,,,,,,,,,,,
,,,,,,,,7,2021-04-18_16h04.27.437,premceCat2_ses-02_part-02_label-phase2,2020.2.10,Win32,60,,,,,right,2.73,1,1.257,0,131,131,16,1,stimuli/objects/stubbywrench01a.jpg,left,old,17,,,,,,,,,,,,,,,
,,,,,,,,7,2021-04-18_16h04.27.437,premceCat2_ses-02_part-02_label-phase2,2020.2.10,Win32,60,,,,,right,1.496,1,1.311,0,132,132,134,1,stimuli/objects/screwdriver04b.jpg,right,new,135,,,,,,,,,,,,,,,
,,,,,,,,7,2021-04-18_16h04.27.437,premceCat2_ses-02_part-02_label-phase2,2020.2.10,Win32,60,,,,,right,1.547,1,0.324,0,133,133,61,1,stimuli/objects/metalbrush.jpg,left,old,62,,,,,,,,,,,,,,,
,,,,,,,,7,2021-04-18_16h04.27.437,premceCat2_ses-02_part-02_label-phase2,2020.2.10,Win32,60,,,,,right,1.122,1,0.36,0,134,134,136,1,stimuli/objects/battery02b.jpg,right,new,137,,,,,,,,,,,,,,,
,,,,,,,,7,2021-04-18_16h04.27.437,premceCat2_ses-02_part-02_label-phase2,2020.2.10,Win32,60,,,,,right,7.385,2,1.352,0,135,135,46,1,stimuli/objects/walkman.jpg,right,new,47,,,,,,,,,,,,,,,
,,,,,,,,7,2021-04-18_16h04.27.437,premceCat2_ses-02_part-02_label-phase2,2020.2.10,Win32,60,,,,,left,2.195,1,0.171,,,,,,,,,,left,0.457,0,0,0,0,1,,,,,,,,
,,,,,,,,7,2021-04-18_16h04.27.437,premceCat2_ses-02_part-02_label-phase2,2020.2.10,Win32,60,,,,,,,,,0,136,136,72,1,stimuli/objects/cclamp.jpg,right,new,73,,,,,,,,,,,,,,,
,,,,,,,,7,2021-04-18_16h04.27.437,premceCat2_ses-02_part-02_label-phase2,2020.2.10,Win32,60,,,,,right,1.504,1,0.764,0,137,137,116,1,stimuli/objects/radio01.jpg,right,new,117,,,,,,,,,,,,,,,
,,,,,,,,7,2021-04-18_16h04.27.437,premceCat2_ses-02_part-02_label-phase2,2020.2.10,Win32,60,,,,,left,1.039,3,0.389,,,,,,,,,,right,2.423,0,0,0,0,1,,,,,,,,
,,,,,,,,7,2021-04-18_16h04.27.437,premceCat2_ses-02_part-02_label-phase2,2020.2.10,Win32,60,,,,,,,,,0,138,138,7,1,stimuli/objects/puttyknife.jpg,left,old,8,,,,,,,,,,,,,,,
,,,,,,,,7,2021-04-18_16h04.27.437,premceCat2_ses-02_part-02_label-phase2,2020.2.10,Win32,60,,,,,left,1.091,3,0.347,,,,,,,,,,left,0.288,0,0,0,0,1,,,,,,,,
,,,,,,,,7,2021-04-18_16h04.27.437,premceCat2_ses-02_part-02_label-phase2,2020.2.10,Win32,60,,,,,,,,,0,139,139,2,1,stimuli/objects/filmnegative.jpg,left,old,3,,,,,,,,,,,,,,,
,,,,,,,,7,2021-04-18_16h04.27.437,premceCat2_ses-02_part-02_label-phase2,2020.2.10,Win32,60,,,,,right,1.044,2,0.483,0,140,140,24,1,stimuli/objects/skateboard.jpg,right,new,25,,,,,,,,,,,,,,,
,,,,,,,,7,2021-04-18_16h04.27.437,premceCat2_ses-02_part-02_label-phase2,2020.2.10,Win32,60,,,,,left,0.949,4,0.328,,,,,,,,,,right,3.124,0,0,0,0,1,,,,,,,,
,,,,,,,,7,2021-04-18_16h04.27.437,premceCat2_ses-02_part-02_label-phase2,2020.2.10,Win32,60,,,,,,,,,0,141,141,3,1,stimuli/objects/dishrack.jpg,left,old,4,,,,,,,,,,,,,,,
,,,,,,,,7,2021-04-18_16h04.27.437,premceCat2_ses-02_part-02_label-phase2,2020.2.10,Win32,60,,,,,right,2.909,2,0.361,0,142,142,32,1,stimuli/objects/mitresaw.jpg,right,new,33,,,,,,,,,,,,,,,
,,,,,,,,7,2021-04-18_16h04.27.437,premceCat2_ses-02_part-02_label-phase2,2020.2.10,Win32,60,,,,,,,,,,,,,,,,,,,,,,,,,space,18.045,0,0,0,0,1,condition_files/ImagesforRecog4_1.csv
,,,,,,,,7,2021-04-18_16h04.27.437,premceCat2_ses-02_part-02_label-phase2,2020.2.10,Win32,60,,,,,right,3.183,2,0.778,0,0,0,60,1,stimuli/objects/kite.jpg,right,new,204,,,,,,,,,,,,,,,
,,,,,,,,7,2021-04-18_16h04.27.437,premceCat2_ses-02_part-02_label-phase2,2020.2.10,Win32,60,,,,,left,0.967,4,0.581,,,,,,,,,,right,0.825,0,0,0,0,1,,,,,,,,
,,,,,,,,7,2021-04-18_16h04.27.437,premceCat2_ses-02_part-02_label-phase2,2020.2.10,Win32,60,,,,,,,,,0,1,1,119,1,stimuli/objects/servingspoon01.jpg,left,old,263,,,,,,,,,,,,,,,
,,,,,,,,7,2021-04-18_16h04.27.437,premceCat2_ses-02_part-02_label-phase2,2020.2.10,Win32,60,,,,,left,2.579,1,0.55,,,,,,,,,,left,0.933,0,0,0,0,1,,,,,,,,
,,,,,,,,7,2021-04-18_16h04.27.437,premceCat2_ses-02_part-02_label-phase2,2020.2.10,Win32,60,,,,,,,,,0,2,2,33,1,stimuli/objects/scanner.jpg,left,old,177,,,,,,,,,,,,,,,
,,,,,,,,7,2021-04-18_16h04.27.437,premceCat2_ses-02_part-02_label-phase2,2020.2.10,Win32,60,,,,,right,1.131,1,1.104,0,3,3,36,1,stimuli/objects/loppingshears.jpg,right,new,180,,,,,,,,,,,,,,,
,,,,,,,,7,2021-04-18_16h04.27.437,premceCat2_ses-02_part-02_label-phase2,2020.2.10,Win32,60,,,,,right,1.047,1,0.481,0,4,4,12,1,stimuli/objects/fanheater.jpg,right,new,156,,,,,,,,,,,,,,,
,,,,,,,,7,2021-04-18_16h04.27.437,premceCat2_ses-02_part-02_label-phase2,2020.2.10,Win32,60,,,,,right,0.845,1,0.347,0,5,5,18,1,stimuli/objects/fanblades.jpg,left,old,162,,,,,,,,,,,,,,,
,,,,,,,,7,2021-04-18_16h04.27.437,premceCat2_ses-02_part-02_label-phase2,2020.2.10,Win32,60,,,,,right,1.382,2,0.426,0,6,6,42,1,stimuli/objects/tennisracket.jpg,right,new,186,,,,,,,,,,,,,,,
,,,,,,,,7,2021-04-18_16h04.27.437,premceCat2_ses-02_part-02_label-phase2,2020.2.10,Win32,60,,,,,left,2.247,3,1.277,,,,,,,,,,right,3.838,0,0,0,0,1,,,,,,,,
,,,,,,,,7,2021-04-18_16h04.27.437,premceCat2_ses-02_part-02_label-phase2,2020.2.10,Win32,60,,,,,,,,,0,7,7,37,1,stimuli/objects/expansioncard.jpg,left,old,181,,,,,,,,,,,,,,,
,,,,,,,,7,2021-04-18_16h04.27.437,premceCat2_ses-02_part-02_label-phase2,2020.2.10,Win32,60,,,,,right,2.024,2,0.611,0,8,8,123,1,stimuli/objects/jackhammer.jpg,right,new,267,,,,,,,,,,,,,,,
,,,,,,,,7,2021-04-18_16h04.27.437,premceCat2_ses-02_part-02_label-phase2,2020.2.10,Win32,60,,,,,right,1.028,2,1.166,0,9,9,120,1,stimuli/objects/tent.jpg,right,new,264,,,,,,,,,,,,,,,
,,,,,,,,7,2021-04-18_16h04.27.437,premceCat2_ses-02_part-02_label-phase2,2020.2.10,Win32,60,,,,,right,0.99,2,0.368,0,10,10,2,1,stimuli/objects/wetfloorsign.jpg,right,new,146,,,,,,,,,,,,,,,
,,,,,,,,7,2021-04-18_16h04.27.437,premceCat2_ses-02_part-02_label-phase2,2020.2.10,Win32,60,,,,,right,3.282,1,0.563,0,11,11,43,1,stimuli/objects/bowrake.jpg,right,new,187,,,,,,,,,,,,,,,
,,,,,,,,7,2021-04-18_16h04.27.437,premceCat2_ses-02_part-02_label-phase2,2020.2.10,Win32,60,,,,,left,0.96,3,1.336,,,,,,,,,,left,0.869,0,0,0,0,1,,,,,,,,
,,,,,,,,7,2021-04-18_16h04.27.437,premceCat2_ses-02_part-02_label-phase2,2020.2.10,Win32,60,,,,,,,,,0,12,12,126,1,stimuli/objects/bikewheel.jpg,left,old,270,,,,,,,,,,,,,,,
,,,,,,,,7,2021-04-18_16h04.27.437,premceCat2_ses-02_part-02_label-phase2,2020.2.10,Win32,60,,,,,left,1.779,1,0.349,,,,,,,,,,right,0.838,0,0,0,0,1,,,,,,,,
,,,,,,,,7,2021-04-18_16h04.27.437,premceCat2_ses-02_part-02_label-phase2,2020.2.10,Win32,60,,,,,,,,,0,13,13,96,1,stimuli/objects/boltcutter.jpg,left,old,240,,,,,,,,,,,,,,,
,,,,,,,,7,2021-04-18_16h04.27.437,premceCat2_ses-02_part-02_label-phase2,2020.2.10,Win32,60,,,,,left,2.632,1,0.255,,,,,,,,,,left,1.583,0,0,0,0,1,,,,,,,,
,,,,,,,,7,2021-04-18_16h04.27.437,premceCat2_ses-02_part-02_label-phase2,2020.2.10,Win32,60,,,,,,,,,0,14,14,140,1,stimuli/objects/wineglass01.jpg,right,new,284,,,,,,,,,,,,,,,
,,,,,,,,7,2021-04-18_16h04.27.437,premceCat2_ses-02_part-02_label-phase2,2020.2.10,Win32,60,,,,,left,1.383,3,0.814,,,,,,,,,,left,0.918,0,0,0,0,1,,,,,,,,
,,,,,,,,7,2021-04-18_16h04.27.437,premceCat2_ses-02_part-02_label-phase2,2020.2.10,Win32,60,,,,,,,,,0,15,15,28,1,stimuli/objects/oven.jpg,left,old,172,,,,,,,,,,,,,,,
,,,,,,,,7,2021-04-18_16h04.27.437,premceCat2_ses-02_part-02_label-phase2,2020.2.10,Win32,60,,,,,left,2.593,2,0.812,,,,,,,,,,right,0.417,0,0,0,0,1,,,,,,,,
,,,,,,,,7,2021-04-18_16h04.27.437,premceCat2_ses-02_part-02_label-phase2,2020.2.10,Win32,60,,,,,,,,,0,16,16,53,1,stimuli/objects/staplegun.jpg,left,old,197,,,,,,,,,,,,,,,
,,,,,,,,7,2021-04-18_16h04.27.437,premceCat2_ses-02_part-02_label-phase2,2020.2.10,Win32,60,,,,,left,2.181,2,0.956,,,,,,,,,,right,2.199,0,0,0,0,1,,,,,,,,
,,,,,,,,7,2021-04-18_16h04.27.437,premceCat2_ses-02_part-02_label-phase2,2020.2.10,Win32,60,,,,,,,,,0,17,17,20,1,stimuli/objects/treadmill.jpg,left,old,164,,,,,,,,,,,,,,,
,,,,,,,,7,2021-04-18_16h04.27.437,premceCat2_ses-02_part-02_label-phase2,2020.2.10,Win32,60,,,,,right,1.07,2,1.656,0,18,18,138,1,stimuli/objects/beermug01a.jpg,right,new,282,,,,,,,,,,,,,,,
,,,,,,,,7,2021-04-18_16h04.27.437,premceCat2_ses-02_part-02_label-phase2,2020.2.10,Win32,60,,,,,left,1.835,1,0.658,,,,,,,,,,right,1.509,0,0,0,0,1,,,,,,,,
,,,,,,,,7,2021-04-18_16h04.27.437,premceCat2_ses-02_part-02_label-phase2,2020.2.10,Win32,60,,,,,,,,,0,19,19,48,1,stimuli/objects/eggslicer.jpg,right,new,192,,,,,,,,,,,,,,,
,,,,,,,,7,2021-04-18_16h04.27.437,premceCat2_ses-02_part-02_label-phase2,2020.2.10,Win32,60,,,,,right,1.202,2,0.561,0,20,20,82,1,stimuli/objects/shopvac.jpg,right,new,226,,,,,,,,,,,,,,,
,,,,,,,,7,2021-04-18_16h04.27.437,premceCat2_ses-02_part-02_label-phase2,2020.2.10,Win32,60,,,,,right,1.105,2,0.364,0,21,21,13,1,stimuli/objects/gardenshears01a.jpg,left,old,157,,,,,,,,,,,,,,,
,,,,,,,,7,2021-04-18_16h04.27.437,premceCat2_ses-02_part-02_label-phase2,2020.2.10,Win32,60,,,,,left,2.224,1,0.461,,,,,,,,,,right,1.007,0,0,0,0,1,,,,,,,,
,,,,,,,,7,2021-04-18_16h04.27.437,premceCat2_ses-02_part-02_label-phase2,2020.2.10,Win32,60,,,,,,,,,0,22,22,141,1,stimuli/objects/waterbottle03.jpg,left,old,285,,,,,,,,,,,,,,,
,,,,,,,,7,2021-04-18_16h04.27.437,premceCat2_ses-02_part-02_label-phase2,2020.2.10,Win32,60,,,,,left,1.228,3,0.412,,,,,,,,,,left,2.829,0,0,0,0,1,,,,,,,,
,,,,,,,,7,2021-04-18_16h04.27.437,premceCat2_ses-02_part-02_label-phase2,2020.2.10,Win32,60,,,,,,,,,0,23,23,57,1,stimuli/objects/kiddiepool.jpg,left,old,201,,,,,,,,,,,,,,,
,,,,,,,,7,2021-04-18_16h04.27.437,premceCat2_ses-02_part-02_label-phase2,2020.2.10,Win32,60,,,,,left,0.956,3,0.766,,,,,,,,,,right,1.522,0,0,0,0,1,,,,,,,,
,,,,,,,,7,2021-04-18_16h04.27.437,premceCat2_ses-02_part-02_label-phase2,2020.2.10,Win32,60,,,,,,,,,0,24,24,125,1,stimuli/objects/leafrake.jpg,left,old,269,,,,,,,,,,,,,,,
,,,,,,,,7,2021-04-18_16h04.27.437,premceCat2_ses-02_part-02_label-phase2,2020.2.10,Win32,60,,,,,right,1.958,2,1.748,0,25,25,127,1,stimuli/objects/skigoggles01.jpg,right,new,271,,,,,,,,,,,,,,,
,,,,,,,,7,2021-04-18_16h04.27.437,premceCat2_ses-02_part-02_label-phase2,2020.2.10,Win32,60,,,,,right,11.835,2,1.023,0,26,26,5,1,stimuli/objects/pickaxe02.jpg,right,new,149,,,,,,,,,,,,,,,
,,,,,,,,7,2021-04-18_16h04.27.437,premceCat2_ses-02_part-02_label-phase2,2020.2.10,Win32,60,,,,,right,1.508,1,1.74,0,27,27,4,1,stimuli/objects/cassettetape01a.jpg,right,new,148,,,,,,,,,,,,,,,
,,,,,,,,7,2021-04-18_16h04.27.437,premceCat2_ses-02_part-02_label-phase2,2020.2.10,Win32,60,,,,,left,1.113,3,0.262,,,,,,,,,,left,1.426,0,0,0,0,1,,,,,,,,
,,,,,,,,7,2021-04-18_16h04.27.437,premceCat2_ses-02_part-02_label-phase2,2020.2.10,Win32,60,,,,,,,,,0,28,28,45,1,stimuli/objects/charcoalbarbecue.jpg,left,old,189,,,,,,,,,,,,,,,
,,,,,,,,7,2021-04-18_16h04.27.437,premceCat2_ses-02_part-02_label-phase2,2020.2.10,Win32,60,,,,,right,0.973,2,0.524,0,29,29,86,1,stimuli/objects/trampoline.jpg,right,new,230,,,,,,,,,,,,,,,
,,,,,,,,7,2021-04-18_16h04.27.437,premceCat2_ses-02_part-02_label-phase2,2020.2.10,Win32,60,,,,,left,0.852,3,0.909,,,,,,,,,,left,1.018,0,0,0,0,1,,,,,,,,
,,,,,,,,7,2021-04-18_16h04.27.437,premceCat2_ses-02_part-02_label-phase2,2020.2.10,Win32,60,,,,,,,,,0,30,30,10,1,stimuli/objects/sportbag.jpg,left,old,154,,,,,,,,,,,,,,,
,,,,,,,,7,2021-04-18_16h04.27.437,premceCat2_ses-02_part-02_label-phase2,2020.2.10,Win32,60,,,,,right,2.021,1,0.45,0,31,31,89,1,stimuli/objects/rollingpin01a.jpg,left,old,233,,,,,,,,,,,,,,,
,,,,,,,,7,2021-04-18_16h04.27.437,premceCat2_ses-02_part-02_label-phase2,2020.2.10,Win32,60,,,,,left,0.913,3,0.281,,,,,,,,,,right,0.611,0,0,0,0,1,,,,,,,,
,,,,,,,,7,2021-04-18_16h04.27.437,premceCat2_ses-02_part-02_label-phase2,2020.2.10,Win32,60,,,,,,,,,0,32,32,72,1,stimuli/objects/paintroller01.jpg,left,old,216,,,,,,,,,,,,,,,
,,,,,,,,7,2021-04-18_16h04.27.437,premceCat2_ses-02_part-02_label-phase2,2020.2.10,Win32,60,,,,,left,2.193,2,1.205,,,,,,,,,,right,1.675,0,0,0,0,1,,,,,,,,
,,,,,,,,7,2021-04-18_16h04.27.437,premceCat2_ses-02_part-02_label-phase2,2020.2.10,Win32,60,,,,,,,,,0,33,33,67,1,stimuli/objects/desktopcomputer.jpg,left,old,211,,,,,,,,,,,,,,,
,,,,,,,,7,2021-04-18_16h04.27.437,premceCat2_ses-02_part-02_label-phase2,2020.2.10,Win32,60,,,,,left,2.659,1,1.13,,,,,,,,,,left,0.277,0,0,0,0,1,,,,,,,,
,,,,,,,,7,2021-04-18_16h04.27.437,premceCat2_ses-02_part-02_label-phase2,2020.2.10,Win32,60,,,,,,,,,0,34,34,124,1,stimuli/objects/basketball01.jpg,right,new,268,,,,,,,,,,,,,,,
,,,,,,,,7,2021-04-18_16h04.27.437,premceCat2_ses-02_part-02_label-phase2,2020.2.10,Win32,60,,,,,right,1.139,1,0.858,0,35,35,51,1,stimuli/objects/cheeseknife01.jpg,right,new,195,,,,,,,,,,,,,,,
,,,,,,,,7,2021-04-18_16h04.27.437,premceCat2_ses-02_part-02_label-phase2,2020.2.10,Win32,60,,,,,right,1.379,2,0.335,0,36,36,16,1,stimuli/objects/bottleopener01.jpg,right,new,160,,,,,,,,,,,,,,,
,,,,,,,,7,2021-04-18_16h04.27.437,premceCat2_ses-02_part-02_label-phase2,2020.2.10,Win32,60,,,,,left,1.289,2,0.497,,,,,,,,,,right,0.894,0,0,0,0,1,,,,,,,,
,,,,,,,,7,2021-04-18_16h04.27.437,premceCat2_ses-02_part-02_label-phase2,2020.2.10,Win32,60,,,,,,,,,0,37,37,92,1,stimuli/objects/axe01.jpg,left,old,236,,,,,,,,,,,,,,,
,,,,,,,,7,2021-04-18_16h04.27.437,premceCat2_ses-02_part-02_label-phase2,2020.2.10,Win32,60,,,,,left,1.013,3,0.359,,,,,,,,,,left,0.576,0,0,0,0,1,,,,,,,,
,,,,,,,,7,2021-04-18_16h04.27.437,premceCat2_ses-02_part-02_label-phase2,2020.2.10,Win32,60,,,,,,,,,0,38,38,76,1,stimuli/objects/papershredder.jpg,left,old,220,,,,,,,,,,,,,,,
,,,,,,,,7,2021-04-18_16h04.27.437,premceCat2_ses-02_part-02_label-phase2,2020.2.10,Win32,60,,,,,left,0.873,3,0.602,,,,,,,,,,left,0.59,0,0,0,0,1,,,,,,,,
,,,,,,,,7,2021-04-18_16h04.27.437,premceCat2_ses-02_part-02_label-phase2,2020.2.10,Win32,60,,,,,,,,,0,39,39,54,1,stimuli/objects/ladder.jpg,left,old,198,,,,,,,,,,,,,,,
,,,,,,,,7,2021-04-18_16h04.27.437,premceCat2_ses-02_part-02_label-phase2,2020.2.10,Win32,60,,,,,left,0.899,3,0.883,,,,,,,,,,left,1.705,0,0,0,0,1,,,,,,,,
,,,,,,,,7,2021-04-18_16h04.27.437,premceCat2_ses-02_part-02_label-phase2,2020.2.10,Win32,60,,,,,,,,,0,40,40,17,1,stimuli/objects/baseball01a.jpg,left,old,161,,,,,,,,,,,,,,,
,,,,,,,,7,2021-04-18_16h04.27.437,premceCat2_ses-02_part-02_label-phase2,2020.2.10,Win32,60,,,,,left,1.054,2,1.116,,,,,,,,,,right,0.458,0,0,0,0,1,,,,,,,,
,,,,,,,,7,2021-04-18_16h04.27.437,premceCat2_ses-02_part-02_label-phase2,2020.2.10,Win32,60,,,,,,,,,0,41,41,134,1,stimuli/objects/electricoutlet.jpg,left,old,278,,,,,,,,,,,,,,,
,,,,,,,,7,2021-04-18_16h04.27.437,premceCat2_ses-02_part-02_label-phase2,2020.2.10,Win32,60,,,,,right,2.922,1,0.994,0,42,42,83,1,stimuli/objects/icecubetray01a.jpg,right,new,227,,,,,,,,,,,,,,,
,,,,,,,,7,2021-04-18_16h04.27.437,premceCat2_ses-02_part-02_label-phase2,2020.2.10,Win32,60,,,,,left,0.65,3,0.929,,,,,,,,,,left,0.688,0,0,0,0,1,,,,,,,,
,,,,,,,,7,2021-04-18_16h04.27.437,premceCat2_ses-02_part-02_label-phase2,2020.2.10,Win32,60,,,,,,,,,0,43,43,58,1,stimuli/objects/skiboot01a.jpg,left,old,202,,,,,,,,,,,,,,,
,,,,,,,,7,2021-04-18_16h04.27.437,premceCat2_ses-02_part-02_label-phase2,2020.2.10,Win32,60,,,,,right,1.236,2,1.151,0,44,44,40,1,stimuli/objects/tablesaw.jpg,right,new,184,,,,,,,,,,,,,,,
,,,,,,,,7,2021-04-18_16h04.27.437,premceCat2_ses-02_part-02_label-phase2,2020.2.10,Win32,60,,,,,left,0.762,3,0.389,,,,,,,,,,right,0.447,0,0,0,0,1,,,,,,,,
,,,,,,,,7,2021-04-18_16h04.27.437,premceCat2_ses-02_part-02_label-phase2,2020.2.10,Win32,60,,,,,,,,,0,45,45,63,1,stimuli/objects/coffeepot03a.jpg,left,old,207,,,,,,,,,,,,,,,
,,,,,,,,7,2021-04-18_16h04.27.437,premceCat2_ses-02_part-02_label-phase2,2020.2.10,Win32,60,,,,,left,1.481,3,1.773,,,,,,,,,,right,0.303,0,0,0,0,1,,,,,,,,
,,,,,,,,7,2021-04-18_16h04.27.437,premceCat2_ses-02_part-02_label-phase2,2020.2.10,Win32,60,,,,,,,,,0,46,46,128,1,stimuli/objects/hourglass.jpg,left,old,272,,,,,,,,,,,,,,,
,,,,,,,,7,2021-04-18_16h04.27.437,premceCat2_ses-02_part-02_label-phase2,2020.2.10,Win32,60,,,,,left,0.942,2,1.029,,,,,,,,,,left,0.805,0,0,0,0,1,,,,,,,,
,,,,,,,,7,2021-04-18_16h04.27.437,premceCat2_ses-02_part-02_label-phase2,2020.2.10,Win32,60,,,,,,,,,0,47,47,74,1,stimuli/objects/patioumbrella.jpg,left,old,218,,,,,,,,,,,,,,,
,,,,,,,,7,2021-04-18_16h04.27.437,premceCat2_ses-02_part-02_label-phase2,2020.2.10,Win32,60,,,,,left,1.275,3,0.303,,,,,,,,,,left,0.535,0,0,0,0,1,,,,,,,,
,,,,,,,,7,2021-04-18_16h04.27.437,premceCat2_ses-02_part-02_label-phase2,2020.2.10,Win32,60,,,,,,,,,0,48,48,110,1,stimuli/objects/fishingrod.jpg,left,old,254,,,,,,,,,,,,,,,
,,,,,,,,7,2021-04-18_16h04.27.437,premceCat2_ses-02_part-02_label-phase2,2020.2.10,Win32,60,,,,,left,1.027,4,0.78,,,,,,,,,,left,0.394,0,0,0,0,1,,,,,,,,
,,,,,,,,7,2021-04-18_16h04.27.437,premceCat2_ses-02_part-02_label-phase2,2020.2.10,Win32,60,,,,,,,,,0,49,49,14,1,stimuli/objects/weight01.jpg,left,old,158,,,,,,,,,,,,,,,
,,,,,,,,7,2021-04-18_16h04.27.437,premceCat2_ses-02_part-02_label-phase2,2020.2.10,Win32,60,,,,,left,0.911,2,0.309,,,,,,,,,,left,1.336,0,0,0,0,1,,,,,,,,
,,,,,,,,7,2021-04-18_16h04.27.437,premceCat2_ses-02_part-02_label-phase2,2020.2.10,Win32,60,,,,,,,,,0,50,50,93,1,stimuli/objects/lawnmower.jpg,left,old,237,,,,,,,,,,,,,,,
,,,,,,,,7,2021-04-18_16h04.27.437,premceCat2_ses-02_part-02_label-phase2,2020.2.10,Win32,60,,,,,right,1.118,2,0.897,0,51,51,6,1,stimuli/objects/solderingwire.jpg,right,new,150,,,,,,,,,,,,,,,
,,,,,,,,7,2021-04-18_16h04.27.437,premceCat2_ses-02_part-02_label-phase2,2020.2.10,Win32,60,,,,,right,2.273,2,1.132,0,52,52,15,1,stimuli/objects/computermouse06.jpg,right,new,159,,,,,,,,,,,,,,,
,,,,,,,,7,2021-04-18_16h04.27.437,premceCat2_ses-02_part-02_label-phase2,2020.2.10,Win32,60,,,,,right,1.153,2,0.181,0,53,53,91,1,stimuli/objects/cuttingpliers02.jpg,right,new,235,,,,,,,,,,,,,,,
,,,,,,,,7,2021-04-18_16h04.27.437,premceCat2_ses-02_part-02_label-phase2,2020.2.10,Win32,60,,,,,right,1.96,2,0.003,0,54,54,94,1,stimuli/objects/file.jpg,right,new,238,,,,,,,,,,,,,,,
,,,,,,,,7,2021-04-18_16h04.27.437,premceCat2_ses-02_part-02_label-phase2,2020.2.10,Win32,60,,,,,left,1.274,1,0.286,,,,,,,,,,right,0.622,0,0,0,0,1,,,,,,,,
,,,,,,,,7,2021-04-18_16h04.27.437,premceCat2_ses-02_part-02_label-phase2,2020.2.10,Win32,60,,,,,,,,,0,55,55,31,1,stimuli/objects/cooler01.jpg,left,old,175,,,,,,,,,,,,,,,
,,,,,,,,7,2021-04-18_16h04.27.437,premceCat2_ses-02_part-02_label-phase2,2020.2.10,Win32,60,,,,,right,8.035,2,0.751,0,56,56,106,1,stimuli/objects/phonejack.jpg,left,old,250,,,,,,,,,,,,,,,
,,,,,,,,7,2021-04-18_16h04.27.437,premceCat2_ses-02_part-02_label-phase2,2020.2.10,Win32,60,,,,,left,1.139,1,0.684,,,,,,,,,,right,0.639,0,0,0,0,1,,,,,,,,
,,,,,,,,7,2021-04-18_16h04.27.437,premceCat2_ses-02_part-02_label-phase2,2020.2.10,Win32,60,,,,,,,,,0,57,57,9,1,stimuli/objects/alarmsystem.jpg,right,new,153,,,,,,,,,,,,,,,
,,,,,,,,7,2021-04-18_16h04.27.437,premceCat2_ses-02_part-02_label-phase2,2020.2.10,Win32,60,,,,,right,1.132,3,1.25,0,58,58,121,1,stimuli/objects/parachute.jpg,right,new,265,,,,,,,,,,,,,,,
,,,,,,,,7,2021-04-18_16h04.27.437,premceCat2_ses-02_part-02_label-phase2,2020.2.10,Win32,60,,,,,right,3.252,1,0.897,0,59,59,87,1,stimuli/objects/wiicontroller.jpg,right,new,231,,,,,,,,,,,,,,,
,,,,,,,,7,2021-04-18_16h04.27.437,premceCat2_ses-02_part-02_label-phase2,2020.2.10,Win32,60,,,,,left,0.827,2,0.653,,,,,,,,,,right,1.648,0,0,0,0,1,,,,,,,,
,,,,,,,,7,2021-04-18_16h04.27.437,premceCat2_ses-02_part-02_label-phase2,2020.2.10,Win32,60,,,,,,,,,0,60,60,130,1,stimuli/objects/ipad02.jpg,left,old,274,,,,,,,,,,,,,,,
,,,,,,,,7,2021-04-18_16h04.27.437,premceCat2_ses-02_part-02_label-phase2,2020.2.10,Win32,60,,,,,left,1.369,3,1.097,,,,,,,,,,left,0.161,0,0,0,0,1,,,,,,,,
,,,,,,,,7,2021-04-18_16h04.27.437,premceCat2_ses-02_part-02_label-phase2,2020.2.10,Win32,60,,,,,,,,,0,61,61,73,1,stimuli/objects/shinpad.jpg,left,old,217,,,,,,,,,,,,,,,
,,,,,,,,7,2021-04-18_16h04.27.437,premceCat2_ses-02_part-02_label-phase2,2020.2.10,Win32,60,,,,,right,1.608,2,0.943,0,62,62,142,1,stimuli/objects/needlenosepliers01.jpg,right,new,286,,,,,,,,,,,,,,,
,,,,,,,,7,2021-04-18_16h04.27.437,premceCat2_ses-02_part-02_label-phase2,2020.2.10,Win32,60,,,,,left,1.193,3,0.32,,,,,,,,,,right,0.324,0,0,0,0,1,,,,,,,,
,,,,,,,,7,2021-04-18_16h04.27.437,premceCat2_ses-02_part-02_label-phase2,2020.2.10,Win32,60,,,,,,,,,0,63,63,90,1,stimuli/objects/fishinghook03.jpg,left,old,234,,,,,,,,,,,,,,,
,,,,,,,,7,2021-04-18_16h04.27.437,premceCat2_ses-02_part-02_label-phase2,2020.2.10,Win32,60,,,,,right,3.77,2,0.902,0,64,64,81,1,stimuli/objects/grill.jpg,right,new,225,,,,,,,,,,,,,,,
,,,,,,,,7,2021-04-18_16h04.27.437,premceCat2_ses-02_part-02_label-phase2,2020.2.10,Win32,60,,,,,right,0.919,2,0.328,0,65,65,41,1,stimuli/objects/flask.jpg,right,new,185,,,,,,,,,,,,,,,
,,,,,,,,7,2021-04-18_16h04.27.437,premceCat2_ses-02_part-02_label-phase2,2020.2.10,Win32,60,,,,,left,1.169,2,2.974,,,,,,,,,,left,0.595,0,0,0,0,1,,,,,,,,
,,,,,,,,7,2021-04-18_16h04.27.437,premceCat2_ses-02_part-02_label-phase2,2020.2.10,Win32,60,,,,,,,,,0,66,66,84,1,stimuli/objects/hockeygoalieglove.jpg,left,old,228,,,,,,,,,,,,,,,
,,,,,,,,7,2021-04-18_16h04.27.437,premceCat2_ses-02_part-02_label-phase2,2020.2.10,Win32,60,,,,,left,1.805,1,0.327,,,,,,,,,,right,0.285,0,0,0,0,1,,,,,,,,
,,,,,,,,7,2021-04-18_16h04.27.437,premceCat2_ses-02_part-02_label-phase2,2020.2.10,Win32,60,,,,,,,,,0,67,67,50,1,stimuli/objects/boatmotor.jpg,left,old,194,,,,,,,,,,,,,,,
,,,,,,,,7,2021-04-18_16h04.27.437,premceCat2_ses-02_part-02_label-phase2,2020.2.10,Win32,60,,,,,right,1.437,2,0.124,0,68,68,46,1,stimuli/objects/waterbottleholder.jpg,right,new,190,,,,,,,,,,,,,,,
,,,,,,,,7,2021-04-18_16h04.27.437,premceCat2_ses-02_part-02_label-phase2,2020.2.10,Win32,60,,,,,right,0.813,1,1.663,0,69,69,118,1,stimuli/objects/caulking.jpg,left,old,262,,,,,,,,,,,,,,,
,,,,,,,,7,2021-04-18_16h04.27.437,premceCat2_ses-02_part-02_label-phase2,2020.2.10,Win32,60,,,,,left,0.953,2,0.456,,,,,,,,,,right,2.427,0,0,0,0,1,,,,,,,,
,,,,,,,,7,2021-04-18_16h04.27.437,premceCat2_ses-02_part-02_label-phase2,2020.2.10,Win32,60,,,,,,,,,0,70,70,29,1,stimuli/objects/slidetray.jpg,left,old,173,,,,,,,,,,,,,,,
,,,,,,,,7,2021-04-18_16h04.27.437,premceCat2_ses-02_part-02_label-phase2,2020.2.10,Win32,60,,,,,right,3.465,1,1.344,0,71,71,61,1,stimuli/objects/flooringstapler.jpg,left,old,205,,,,,,,,,,,,,,,
,,,,,,,,7,2021-04-18_16h04.27.437,premceCat2_ses-02_part-02_label-phase2,2020.2.10,Win32,60,,,,,right,1.919,1,0.299,0,72,72,70,1,stimuli/objects/shovel01.jpg,right,new,214,,,,,,,,,,,,,,,
,,,,,,,,7,2021-04-18_16h04.27.437,premceCat2_ses-02_part-02_label-phase2,2020.2.10,Win32,60,,,,,left,1.322,2,0.721,,,,,,,,,,left,1.836,0,0,0,0,1,,,,,,,,
,,,,,,,,7,2021-04-18_16h04.27.437,premceCat2_ses-02_part-02_label-phase2,2020.2.10,Win32,60,,,,,,,,,0,73,73,27,1,stimuli/objects/level03a.jpg,left,old,171,,,,,,,,,,,,,,,
,,,,,,,,7,2021-04-18_16h04.27.437,premceCat2_ses-02_part-02_label-phase2,2020.2.10,Win32,60,,,,,left,0.989,3,1.886,,,,,,,,,,left,0.229,0,0,0,0,1,,,,,,,,
,,,,,,,,7,2021-04-18_16h04.27.437,premceCat2_ses-02_part-02_label-phase2,2020.2.10,Win32,60,,,,,,,,,0,74,74,68,1,stimuli/objects/ladle02a.jpg,right,new,212,,,,,,,,,,,,,,,
,,,,,,,,7,2021-04-18_16h04.27.437,premceCat2_ses-02_part-02_label-phase2,2020.2.10,Win32,60,,,,,left,0.972,1,0.893,,,,,,,,,,right,0.48,0,0,0,0,1,,,,,,,,
,,,,,,,,7,2021-04-18_16h04.27.437,premceCat2_ses-02_part-02_label-phase2,2020.2.10,Win32,60,,,,,,,,,0,75,75,47,1,stimuli/objects/plate01b.jpg,right,new,191,,,,,,,,,,,,,,,
,,,,,,,,7,2021-04-18_16h04.27.437,premceCat2_ses-02_part-02_label-phase2,2020.2.10,Win32,60,,,,,left,0.908,3,0.327,,,,,,,,,,right,0.559,0,0,0,0,1,,,,,,,,
,,,,,,,,7,2021-04-18_16h04.27.437,premceCat2_ses-02_part-02_label-phase2,2020.2.10,Win32,60,,,,,,,,,0,76,76,104,1,stimuli/objects/securitycamera.jpg,left,old,248,,,,,,,,,,,,,,,
,,,,,,,,7,2021-04-18_16h04.27.437,premceCat2_ses-02_part-02_label-phase2,2020.2.10,Win32,60,,,,,right,1.711,1,0.292,0,77,77,21,1,stimuli/objects/gluetube.jpg,left,old,165,,,,,,,,,,,,,,,
,,,,,,,,7,2021-04-18_16h04.27.437,premceCat2_ses-02_part-02_label-phase2,2020.2.10,Win32,60,,,,,left,1.955,3,0.761,,,,,,,,,,left,2.246,0,0,0,0,1,,,,,,,,
,,,,,,,,7,2021-04-18_16h04.27.437,premceCat2_ses-02_part-02_label-phase2,2020.2.10,Win32,60,,,,,,,,,0,78,78,105,1,stimuli/objects/spicerack.jpg,left,old,249,,,,,,,,,,,,,,,
,,,,,,,,7,2021-04-18_16h04.27.437,premceCat2_ses-02_part-02_label-phase2,2020.2.10,Win32,60,,,,,right,1.195,1,0.493,0,79,79,26,1,stimuli/objects/flashlight02b.jpg,right,new,170,,,,,,,,,,,,,,,
,,,,,,,,7,2021-04-18_16h04.27.437,premceCat2_ses-02_part-02_label-phase2,2020.2.10,Win32,60,,,,,left,0.917,1,0.582,,,,,,,,,,left,1.523,0,0,0,0,1,,,,,,,,
,,,,,,,,7,2021-04-18_16h04.27.437,premceCat2_ses-02_part-02_label-phase2,2020.2.10,Win32,60,,,,,,,,,0,80,80,129,1,stimuli/objects/bucket02.jpg,left,old,273,,,,,,,,,,,,,,,
,,,,,,,,7,2021-04-18_16h04.27.437,premceCat2_ses-02_part-02_label-phase2,2020.2.10,Win32,60,,,,,right,1.395,2,0.652,0,81,81,137,1,stimuli/objects/nutcracker01.jpg,right,new,281,,,,,,,,,,,,,,,
,,,,,,,,7,2021-04-18_16h04.27.437,premceCat2_ses-02_part-02_label-phase2,2020.2.10,Win32,60,,,,,left,1.036,2,1.105,,,,,,,,,,right,1.073,0,0,0,0,1,,,,,,,,
,,,,,,,,7,2021-04-18_16h04.27.437,premceCat2_ses-02_part-02_label-phase2,2020.2.10,Win32,60,,,,,,,,,0,82,82,32,1,stimuli/objects/travelmug.jpg,left,old,176,,,,,,,,,,,,,,,
,,,,,,,,7,2021-04-18_16h04.27.437,premceCat2_ses-02_part-02_label-phase2,2020.2.10,Win32,60,,,,,left,1.051,2,0.28,,,,,,,,,,left,0.327,0,0,0,0,1,,,,,,,,
,,,,,,,,7,2021-04-18_16h04.27.437,premceCat2_ses-02_part-02_label-phase2,2020.2.10,Win32,60,,,,,,,,,0,83,83,113,1,stimuli/objects/sewingmachine01a.jpg,left,old,257,,,,,,,,,,,,,,,
,,,,,,,,7,2021-04-18_16h04.27.437,premceCat2_ses-02_part-02_label-phase2,2020.2.10,Win32,60,,,,,left,1.277,3,3.179,,,,,,,,,,left,1.347,0,0,0,0,1,,,,,,,,
,,,,,,,,7,2021-04-18_16h04.27.437,premceCat2_ses-02_part-02_label-phase2,2020.2.10,Win32,60,,,,,,,,,0,84,84,79,1,stimuli/objects/bikehelmet.jpg,left,old,223,,,,,,,,,,,,,,,
,,,,,,,,7,2021-04-18_16h04.27.437,premceCat2_ses-02_part-02_label-phase2,2020.2.10,Win32,60,,,,,left,0.9,4,0.285,,,,,,,,,,right,1.017,0,0,0,0,1,,,,,,,,
,,,,,,,,7,2021-04-18_16h04.27.437,premceCat2_ses-02_part-02_label-phase2,2020.2.10,Win32,60,,,,,,,,,0,85,85,7,1,stimuli/objects/bottlecap.jpg,left,old,151,,,,,,,,,,,,,,,
,,,,,,,,7,2021-04-18_16h04.27.437,premceCat2_ses-02_part-02_label-phase2,2020.2.10,Win32,60,,,,,left,0.767,3,0.288,,,,,,,,,,left,0.274,0,0,0,0,1,,,,,,,,
,,,,,,,,7,2021-04-18_16h04.27.437,premceCat2_ses-02_part-02_label-phase2,2020.2.10,Win32,60,,,,,,,,,0,86,86,71,1,stimuli/objects/swimgoggles.jpg,left,old,215,,,,,,,,,,,,,,,
,,,,,,,,7,2021-04-18_16h04.27.437,premceCat2_ses-02_part-02_label-phase2,2020.2.10,Win32,60,,,,,left,0.919,3,1.232,,,,,,,,,,right,0.499,0,0,0,0,1,,,,,,,,
,,,,,,,,7,2021-04-18_16h04.27.437,premceCat2_ses-02_part-02_label-phase2,2020.2.10,Win32,60,,,,,,,,,0,87,87,115,1,stimuli/objects/toothpick02.jpg,left,old,259,,,,,,,,,,,,,,,
,,,,,,,,7,2021-04-18_16h04.27.437,premceCat2_ses-02_part-02_label-phase2,2020.2.10,Win32,60,,,,,right,1.345,1,0.58,0,88,88,98,1,stimuli/objects/cameracase01a.jpg,right,new,242,,,,,,,,,,,,,,,
,,,,,,,,7,2021-04-18_16h04.27.437,premceCat2_ses-02_part-02_label-phase2,2020.2.10,Win32,60,,,,,right,1.022,2,0.177,0,89,89,19,1,stimuli/objects/mug01.jpg,right,new,163,,,,,,,,,,,,,,,
,,,,,,,,7,2021-04-18_16h04.27.437,premceCat2_ses-02_part-02_label-phase2,2020.2.10,Win32,60,,,,,right,2.04,1,0.213,0,90,90,23,1,stimuli/objects/surfboard.jpg,left,old,167,,,,,,,,,,,,,,,
,,,,,,,,7,2021-04-18_16h04.27.437,premceCat2_ses-02_part-02_label-phase2,2020.2.10,Win32,60,,,,,right,1.159,2,0.468,0,91,91,99,1,stimuli/objects/floodlight.jpg,right,new,243,,,,,,,,,,,,,,,
,,,,,,,,7,2021-04-18_16h04.27.437,premceCat2_ses-02_part-02_label-phase2,2020.2.10,Win32,60,,,,,right,2.071,2,0.002,0,92,92,117,1,stimuli/objects/snowboard.jpg,left,old,261,,,,,,,,,,,,,,,
,,,,,,,,7,2021-04-18_16h04.27.437,premceCat2_ses-02_part-02_label-phase2,2020.2.10,Win32,60,,,,,right,0.979,2,0.241,0,93,93,3,1,stimuli/objects/boxingglove01.jpg,right,new,147,,,,,,,,,,,,,,,
,,,,,,,,7,2021-04-18_16h04.27.437,premceCat2_ses-02_part-02_label-phase2,2020.2.10,Win32,60,,,,,left,0.922,2,1.053,,,,,,,,,,right,1.121,0,0,0,0,1,,,,,,,,
,,,,,,,,7,2021-04-18_16h04.27.437,premceCat2_ses-02_part-02_label-phase2,2020.2.10,Win32,60,,,,,,,,,0,94,94,11,1,stimuli/objects/airconditioner.jpg,left,old,155,,,,,,,,,,,,,,,
,,,,,,,,7,2021-04-18_16h04.27.437,premceCat2_ses-02_part-02_label-phase2,2020.2.10,Win32,60,,,,,right,1.637,1,0.515,0,95,95,66,1,stimuli/objects/heatpump.jpg,right,new,210,,,,,,,,,,,,,,,
,,,,,,,,7,2021-04-18_16h04.27.437,premceCat2_ses-02_part-02_label-phase2,2020.2.10,Win32,60,,,,,left,0.947,3,0.186,,,,,,,,,,right,0.468,0,0,0,0,1,,,,,,,,
,,,,,,,,7,2021-04-18_16h04.27.437,premceCat2_ses-02_part-02_label-phase2,2020.2.10,Win32,60,,,,,,,,,0,96,96,62,1,stimuli/objects/shotglass.jpg,left,old,206,,,,,,,,,,,,,,,
,,,,,,,,7,2021-04-18_16h04.27.437,premceCat2_ses-02_part-02_label-phase2,2020.2.10,Win32,60,,,,,left,1.013,2,0.204,,,,,,,,,,left,0.307,0,0,0,0,1,,,,,,,,
,,,,,,,,7,2021-04-18_16h04.27.437,premceCat2_ses-02_part-02_label-phase2,2020.2.10,Win32,60,,,,,,,,,0,97,97,8,1,stimuli/objects/tape02a.jpg,left,old,152,,,,,,,,,,,,,,,
,,,,,,,,7,2021-04-18_16h04.27.437,premceCat2_ses-02_part-02_label-phase2,2020.2.10,Win32,60,,,,,left,0.936,3,0.275,,,,,,,,,,right,1.231,0,0,0,0,1,,,,,,,,
,,,,,,,,7,2021-04-18_16h04.27.437,premceCat2_ses-02_part-02_label-phase2,2020.2.10,Win32,60,,,,,,,,,0,98,98,52,1,stimuli/objects/usbkey.jpg,left,old,196,,,,,,,,,,,,,,,
,,,,,,,,7,2021-04-18_16h04.27.437,premceCat2_ses-02_part-02_label-phase2,2020.2.10,Win32,60,,,,,right,1.333,2,0.502,0,99,99,122,1,stimuli/objects/hockeystick.jpg,right,new,266,,,,,,,,,,,,,,,
,,,,,,,,7,2021-04-18_16h04.27.437,premceCat2_ses-02_part-02_label-phase2,2020.2.10,Win32,60,,,,,right,0.896,2,0.003,0,100,100,0,1,stimuli/objects/smokedetector02.jpg,right,new,144,,,,,,,,,,,,,,,
,,,,,,,,7,2021-04-18_16h04.27.437,premceCat2_ses-02_part-02_label-phase2,2020.2.10,Win32,60,,,,,right,0.969,2,0.024,0,101,101,132,1,stimuli/objects/wirestripper.jpg,right,new,276,,,,,,,,,,,,,,,
,,,,,,,,7,2021-04-18_16h04.27.437,premceCat2_ses-02_part-02_label-phase2,2020.2.10,Win32,60,,,,,left,12.805,3,1.267,,,,,,,,,,right,0.407,0,0,0,0,1,,,,,,,,
,,,,,,,,7,2021-04-18_16h04.27.437,premceCat2_ses-02_part-02_label-phase2,2020.2.10,Win32,60,,,,,,,,,0,102,102,139,1,stimuli/objects/pitcher02b.jpg,left,old,283,,,,,,,,,,,,,,,
,,,,,,,,7,2021-04-18_16h04.27.437,premceCat2_ses-02_part-02_label-phase2,2020.2.10,Win32,60,,,,,left,1.522,3,0.392,,,,,,,,,,left,0.348,0,0,0,0,1,,,,,,,,
,,,,,,,,7,2021-04-18_16h04.27.437,premceCat2_ses-02_part-02_label-phase2,2020.2.10,Win32,60,,,,,,,,,0,103,103,1,1,stimuli/objects/satellitedish01.jpg,left,old,145,,,,,,,,,,,,,,,
,,,,,,,,7,2021-04-18_16h04.27.437,premceCat2_ses-02_part-02_label-phase2,2020.2.10,Win32,60,,,,,left,1.318,3,0.192,,,,,,,,,,right,0.219,0,0,0,0,1,,,,,,,,
,,,,,,,,7,2021-04-18_16h04.27.437,premceCat2_ses-02_part-02_label-phase2,2020.2.10,Win32,60,,,,,,,,,0,104,104,77,1,stimuli/objects/bowl02a.jpg,left,old,221,,,,,,,,,,,,,,,
,,,,,,,,7,2021-04-18_16h04.27.437,premceCat2_ses-02_part-02_label-phase2,2020.2.10,Win32,60,,,,,left,2.274,1,0.182,,,,,,,,,,right,1.633,0,0,0,0,1,,,,,,,,
,,,,,,,,7,2021-04-18_16h04.27.437,premceCat2_ses-02_part-02_label-phase2,2020.2.10,Win32,60,,,,,,,,,0,105,105,85,1,stimuli/objects/lamp04a.jpg,left,old,229,,,,,,,,,,,,,,,
,,,,,,,,7,2021-04-18_16h04.27.437,premceCat2_ses-02_part-02_label-phase2,2020.2.10,Win32,60,,,,,left,1.03,2,0.321,,,,,,,,,,left,0.22,0,0,0,0,1,,,,,,,,
,,,,,,,,7,2021-04-18_16h04.27.437,premceCat2_ses-02_part-02_label-phase2,2020.2.10,Win32,60,,,,,,,,,0,106,106,88,1,stimuli/objects/iceskate.jpg,left,old,232,,,,,,,,,,,,,,,
,,,,,,,,7,2021-04-18_16h04.27.437,premceCat2_ses-02_part-02_label-phase2,2020.2.10,Win32,60,,,,,right,0.968,3,0.446,0,107,107,133,1,stimuli/objects/birdie.jpg,right,new,277,,,,,,,,,,,,,,,
,,,,,,,,7,2021-04-18_16h04.27.437,premceCat2_ses-02_part-02_label-phase2,2020.2.10,Win32,60,,,,,right,1.358,2,0.216,0,108,108,107,1,stimuli/objects/dolly01.jpg,right,new,251,,,,,,,,,,,,,,,
,,,,,,,,7,2021-04-18_16h04.27.437,premceCat2_ses-02_part-02_label-phase2,2020.2.10,Win32,60,,,,,right,1.273,2,0.414,0,109,109,101,1,stimuli/objects/lifejacket.jpg,right,new,245,,,,,,,,,,,,,,,
,,,,,,,,7,2021-04-18_16h04.27.437,premceCat2_ses-02_part-02_label-phase2,2020.2.10,Win32,60,,,,,right,3.361,1,0.208,0,110,110,44,1,stimuli/objects/toaster01.jpg,right,new,188,,,,,,,,,,,,,,,
,,,,,,,,7,2021-04-18_16h04.27.437,premceCat2_ses-02_part-02_label-phase2,2020.2.10,Win32,60,,,,,right,1.088,2,0.817,0,111,111,39,1,stimuli/objects/wafflemaker.jpg,right,new,183,,,,,,,,,,,,,,,
,,,,,,,,7,2021-04-18_16h04.27.437,premceCat2_ses-02_part-02_label-phase2,2020.2.10,Win32,60,,,,,left,1.491,2,0.391,,,,,,,,,,right,0.939,0,0,0,0,1,,,,,,,,
,,,,,,,,7,2021-04-18_16h04.27.437,premceCat2_ses-02_part-02_label-phase2,2020.2.10,Win32,60,,,,,,,,,0,112,112,25,1,stimuli/objects/cowbell.jpg,left,old,169,,,,,,,,,,,,,,,
,,,,,,,,7,2021-04-18_16h04.27.437,premceCat2_ses-02_part-02_label-phase2,2020.2.10,Win32,60,,,,,right,1.381,2,1.102,0,113,113,49,1,stimuli/objects/cakeplatter.jpg,right,new,193,,,,,,,,,,,,,,,
,,,,,,,,7,2021-04-18_16h04.27.437,premceCat2_ses-02_part-02_label-phase2,2020.2.10,Win32,60,,,,,right,1.528,2,0.225,0,114,114,109,1,stimuli/objects/saladspinner.jpg,left,old,253,,,,,,,,,,,,,,,
,,,,,,,,7,2021-04-18_16h04.27.437,premceCat2_ses-02_part-02_label-phase2,2020.2.10,Win32,60,,,,,right,1.246,2,0.164,0,115,115,34,1,stimuli/objects/kneepad01c.jpg,right,new,178,,,,,,,,,,,,,,,
,,,,,,,,7,2021-04-18_16h04.27.437,premceCat2_ses-02_part-02_label-phase2,2020.2.10,Win32,60,,,,,right,1.708,2,0.403,0,116,116,30,1,stimuli/objects/halogenlightbulb.jpg,right,new,174,,,,,,,,,,,,,,,
,,,,,,,,7,2021-04-18_16h04.27.437,premceCat2_ses-02_part-02_label-phase2,2020.2.10,Win32,60,,,,,left,1.845,2,1.085,,,,,,,,,,left,0.655,0,0,0,0,1,,,,,,,,
,,,,,,,,7,2021-04-18_16h04.27.437,premceCat2_ses-02_part-02_label-phase2,2020.2.10,Win32,60,,,,,,,,,0,117,117,102,1,stimuli/objects/beachumbrella01.jpg,right,new,246,,,,,,,,,,,,,,,
,,,,,,,,7,2021-04-18_16h04.27.437,premceCat2_ses-02_part-02_label-phase2,2020.2.10,Win32,60,,,,,right,1.711,1,0.898,0,118,118,59,1,stimuli/objects/speedball.jpg,right,new,203,,,,,,,,,,,,,,,
,,,,,,,,7,2021-04-18_16h04.27.437,premceCat2_ses-02_part-02_label-phase2,2020.2.10,Win32,60,,,,,right,1.392,2,0.646,0,119,119,24,1,stimuli/objects/monitor.jpg,right,new,168,,,,,,,,,,,,,,,
,,,,,,,,7,2021-04-18_16h04.27.437,premceCat2_ses-02_part-02_label-phase2,2020.2.10,Win32,60,,,,,left,1.159,3,0.84,,,,,,,,,,left,1.135,0,0,0,0,1,,,,,,,,
,,,,,,,,7,2021-04-18_16h04.27.437,premceCat2_ses-02_part-02_label-phase2,2020.2.10,Win32,60,,,,,,,,,0,120,120,75,1,stimuli/objects/painttray.jpg,left,old,219,,,,,,,,,,,,,,,
,,,,,,,,7,2021-04-18_16h04.27.437,premceCat2_ses-02_part-02_label-phase2,2020.2.10,Win32,60,,,,,right,1.263,1,0.985,0,121,121,80,1,stimuli/objects/barbecue03.jpg,right,new,224,,,,,,,,,,,,,,,
,,,,,,,,7,2021-04-18_16h04.27.437,premceCat2_ses-02_part-02_label-phase2,2020.2.10,Win32,60,,,,,right,1.049,2,0.152,0,122,122,111,1,stimuli/objects/diaperbag.jpg,right,new,255,,,,,,,,,,,,,,,
,,,,,,,,7,2021-04-18_16h04.27.437,premceCat2_ses-02_part-02_label-phase2,2020.2.10,Win32,60,,,,,right,4.084,2,0.47,0,123,123,65,1,stimuli/objects/gastank.jpg,left,old,209,,,,,,,,,,,,,,,
,,,,,,,,7,2021-04-18_16h04.27.437,premceCat2_ses-02_part-02_label-phase2,2020.2.10,Win32,60,,,,,right,1.128,2,1.047,0,124,124,135,1,stimuli/objects/mortarandpestle.jpg,right,new,279,,,,,,,,,,,,,,,
,,,,,,,,7,2021-04-18_16h04.27.437,premceCat2_ses-02_part-02_label-phase2,2020.2.10,Win32,60,,,,,right,1.184,2,0.988,0,125,125,69,1,stimuli/objects/straw.jpg,right,new,213,,,,,,,,,,,,,,,
,,,,,,,,7,2021-04-18_16h04.27.437,premceCat2_ses-02_part-02_label-phase2,2020.2.10,Win32,60,,,,,left,1.106,3,0.294,,,,,,,,,,right,0.409,0,0,0,0,1,,,,,,,,
,,,,,,,,7,2021-04-18_16h04.27.437,premceCat2_ses-02_part-02_label-phase2,2020.2.10,Win32,60,,,,,,,,,0,126,126,97,1,stimuli/objects/peeler01.jpg,left,old,241,,,,,,,,,,,,,,,
,,,,,,,,7,2021-04-18_16h04.27.437,premceCat2_ses-02_part-02_label-phase2,2020.2.10,Win32,60,,,,,left,1.147,3,0.249,,,,,,,,,,left,0.298,0,0,0,0,1,,,,,,,,
,,,,,,,,7,2021-04-18_16h04.27.437,premceCat2_ses-02_part-02_label-phase2,2020.2.10,Win32,60,,,,,,,,,0,127,127,100,1,stimuli/objects/setsquare.jpg,left,old,244,,,,,,,,,,,,,,,
,,,,,,,,7,2021-04-18_16h04.27.437,premceCat2_ses-02_part-02_label-phase2,2020.2.10,Win32,60,,,,,left,1.275,3,0.622,,,,,,,,,,right,0.754,0,0,0,0,1,,,,,,,,
,,,,,,,,7,2021-04-18_16h04.27.437,premceCat2_ses-02_part-02_label-phase2,2020.2.10,Win32,60,,,,,,,,,0,128,128,56,1,stimuli/objects/cork02.jpg,left,old,200,,,,,,,,,,,,,,,
,,,,,,,,7,2021-04-18_16h04.27.437,premceCat2_ses-02_part-02_label-phase2,2020.2.10,Win32,60,,,,,right,0.968,2,0.325,0,129,129,35,1,stimuli/objects/stroller.jpg,right,new,179,,,,,,,,,,,,,,,
,,,,,,,,7,2021-04-18_16h04.27.437,premceCat2_ses-02_part-02_label-phase2,2020.2.10,Win32,60,,,,,right,0.928,2,0.226,0,130,130,22,1,stimuli/objects/aircompressor.jpg,left,old,166,,,,,,,,,,,,,,,
,,,,,,,,7,2021-04-18_16h04.27.437,premceCat2_ses-02_part-02_label-phase2,2020.2.10,Win32,60,,,,,right,1.112,2,0.349,0,131,131,136,1,stimuli/objects/skihelmet01.jpg,left,old,280,,,,,,,,,,,,,,,
,,,,,,,,7,2021-04-18_16h04.27.437,premceCat2_ses-02_part-02_label-phase2,2020.2.10,Win32,60,,,,,right,1.788,1,0.615,0,132,132,114,1,stimuli/objects/drinkshaker.jpg,right,new,258,,,,,,,,,,,,,,,
,,,,,,,,7,2021-04-18_16h04.27.437,premceCat2_ses-02_part-02_label-phase2,2020.2.10,Win32,60,,,,,right,1.456,1,0.147,0,133,133,38,1,stimuli/objects/contactlens.jpg,left,old,182,,,,,,,,,,,,,,,
,,,,,,,,7,2021-04-18_16h04.27.437,premceCat2_ses-02_part-02_label-phase2,2020.2.10,Win32,60,,,,,right,1.192,1,1.938,0,134,134,103,1,stimuli/objects/swissarmyknife01a.jpg,right,new,247,,,,,,,,,,,,,,,
,,,,,,,,7,2021-04-18_16h04.27.437,premceCat2_ses-02_part-02_label-phase2,2020.2.10,Win32,60,,,,,right,1.521,2,0.447,0,135,135,78,1,stimuli/objects/lightswitch01.jpg,right,new,222,,,,,,,,,,,,,,,
,,,,,,,,7,2021-04-18_16h04.27.437,premceCat2_ses-02_part-02_label-phase2,2020.2.10,Win32,60,,,,,right,1.059,2,0.025,0,136,136,131,1,stimuli/objects/handblender.jpg,right,new,275,,,,,,,,,,,,,,,
,,,,,,,,7,2021-04-18_16h04.27.437,premceCat2_ses-02_part-02_label-phase2,2020.2.10,Win32,60,,,,,left,1.503,1,0.229,,,,,,,,,,right,0.494,0,0,0,0,1,,,,,,,,
,,,,,,,,7,2021-04-18_16h04.27.437,premceCat2_ses-02_part-02_label-phase2,2020.2.10,Win32,60,,,,,,,,,0,137,137,108,1,stimuli/objects/outletadapter.jpg,left,old,252,,,,,,,,,,,,,,,
,,,,,,,,7,2021-04-18_16h04.27.437,premceCat2_ses-02_part-02_label-phase2,2020.2.10,Win32,60,,,,,right,1.604,1,0.308,0,138,138,116,1,stimuli/objects/lockingplier.jpg,right,new,260,,,,,,,,,,,,,,,
,,,,,,,,7,2021-04-18_16h04.27.437,premceCat2_ses-02_part-02_label-phase2,2020.2.10,Win32,60,,,,,left,1.192,2,0.74,,,,,,,,,,left,0.452,0,0,0,0,1,,,,,,,,
,,,,,,,,7,2021-04-18_16h04.27.437,premceCat2_ses-02_part-02_label-phase2,2020.2.10,Win32,60,,,,,,,,,0,139,139,64,1,stimuli/objects/exercisemachine.jpg,left,old,208,,,,,,,,,,,,,,,
,,,,,,,,7,2021-04-18_16h04.27.437,premceCat2_ses-02_part-02_label-phase2,2020.2.10,Win32,60,,,,,right,1.214,1,0.612,0,140,140,95,1,stimuli/objects/tennisball01b.jpg,right,new,239,,,,,,,,,,,,,,,
,,,,,,,,7,2021-04-18_16h04.27.437,premceCat2_ses-02_part-02_label-phase2,2020.2.10,Win32,60,,,,,left,1.107,3,0.466,,,,,,,,,,right,1.018,0,0,0,0,1,,,,,,,,
,,,,,,,,7,2021-04-18_16h04.27.437,premceCat2_ses-02_part-02_label-phase2,2020.2.10,Win32,60,,,,,,,,,0,141,141,112,1,stimuli/objects/wire.jpg,left,old,256,,,,,,,,,,,,,,,
,,,,,,,,7,2021-04-18_16h04.27.437,premceCat2_ses-02_part-02_label-phase2,2020.2.10,Win32,60,,,,,right,1.669,1,0.209,0,142,142,55,1,stimuli/objects/fonduefork01.jpg,right,new,199,,,,,,,,,,,,,,,
,,,,,,,,7,2021-04-18_16h04.27.437,premceCat2_ses-02_part-02_label-phase2,2020.2.10,Win32,60,,,,,,,,,,,,,,,,,,,,,,,,,space,3.219,0,1,1,1,1,condition_files/ImagesforRecog4_2.csv
