myownaccuracy,respcorrs,minNrPractice,considerNrTrials,Instr_resp.keys,Instr_resp.rt,taskGoresp.keys,taskGoresp.rt,warmup_resp.keys,warmup_resp.corr,warmup_resp.rt,myownaccuracyCORR,trials.thisRepN,trials.thisTrialN,trials.thisN,trials.thisIndex,trials.ran,first_character,second_character,Cue,left_categ,centleft_categ,centright_categ,right_categ,corr_ans,trial_cond,switch_cond,cuedCharacter,obj_category,image,participant,date,expName,psychopyVersion,OS,frameRate,task_resp.keys,task_resp.corr,task_resp.rt,task_loop.thisRepN,task_loop.thisTrialN,task_loop.thisN,task_loop.thisIndex,task_loop.ran,list_loop.thisRepN,list_loop.thisTrialN,list_loop.thisN,list_loop.thisIndex,list_loop.ran,conditions
1,[],10,10,space,20.254,space,6.622,2,1,3.692,1,0,0,0,0,1,stimuli/m5.jpg,stimuli/m2.jpg,1,stimuli/Outdoor activity & sport item.png,stimuli/Hand labour tool & accessory.png,stimuli/Kitchen & utensil.png,stimuli/Electronic device & accessory.png,2,1,1,stimuli/m5.jpg,Hand labour tool & accessory,stimuli/objects/handrake01a.jpg,7,2021-04-18_15h32.44.031,premceCat2_ses-02_part-01_label-phase1,2020.2.9,Win32,60,,,,,,,,,,,,,,
1,[],,,,,,,4,1,1.453,1,0,1,1,1,1,stimuli/m2.jpg,stimuli/m5.jpg,2,stimuli/Outdoor activity & sport item.png,stimuli/Electronic device & accessory.png,stimuli/Kitchen & utensil.png,stimuli/Hand labour tool & accessory.png,4,1,1,stimuli/m5.jpg,Hand labour tool & accessory,stimuli/objects/jumpingjack.jpg,7,2021-04-18_15h32.44.031,premceCat2_ses-02_part-01_label-phase1,2020.2.9,Win32,60,,,,,,,,,,,,,,
1,[],,,,,,,3,1,1.208,1,0,2,2,2,1,stimuli/m2.jpg,stimuli/m5.jpg,1,stimuli/Kitchen & utensil.png,stimuli/Hand labour tool & accessory.png,stimuli/Outdoor activity & sport item.png,stimuli/Electronic device & accessory.png,3,1,1,stimuli/m2.jpg,Outdoor activity & sport item,stimuli/objects/racquetballracket.jpg,7,2021-04-18_15h32.44.031,premceCat2_ses-02_part-01_label-phase1,2020.2.9,Win32,60,,,,,,,,,,,,,,
1,[],,,,,,,4,1,1.375,1,0,3,3,3,1,stimuli/m2.jpg,stimuli/m5.jpg,1,stimuli/Electronic device & accessory.png,stimuli/Hand labour tool & accessory.png,stimuli/Kitchen & utensil.png,stimuli/Outdoor activity & sport item.png,4,1,1,stimuli/m2.jpg,Outdoor activity & sport item,stimuli/objects/racquetballracket.jpg,7,2021-04-18_15h32.44.031,premceCat2_ses-02_part-01_label-phase1,2020.2.9,Win32,60,,,,,,,,,,,,,,
1,[],,,,,,,1,1,1.44,1,0,4,4,4,1,stimuli/m2.jpg,stimuli/m5.jpg,1,stimuli/Outdoor activity & sport item.png,stimuli/Kitchen & utensil.png,stimuli/Hand labour tool & accessory.png,stimuli/Electronic device & accessory.png,1,1,1,stimuli/m2.jpg,Outdoor activity & sport item,stimuli/objects/crosscountryski.jpg,7,2021-04-18_15h32.44.031,premceCat2_ses-02_part-01_label-phase1,2020.2.9,Win32,60,,,,,,,,,,,,,,
1,[],,,,,,,1,1,1.158,1,0,5,5,5,1,stimuli/m2.jpg,stimuli/m5.jpg,1,stimuli/Outdoor activity & sport item.png,stimuli/Electronic device & accessory.png,stimuli/Hand labour tool & accessory.png,stimuli/Kitchen & utensil.png,1,1,1,stimuli/m2.jpg,Outdoor activity & sport item,stimuli/objects/crosscountryski.jpg,7,2021-04-18_15h32.44.031,premceCat2_ses-02_part-01_label-phase1,2020.2.9,Win32,60,,,,,,,,,,,,,,
1,[],,,,,,,3,1,0.821,1,0,6,6,6,1,stimuli/m5.jpg,stimuli/m2.jpg,1,stimuli/Outdoor activity & sport item.png,stimuli/Electronic device & accessory.png,stimuli/Hand labour tool & accessory.png,stimuli/Kitchen & utensil.png,3,1,1,stimuli/m5.jpg,Hand labour tool & accessory,stimuli/objects/jumpingjack.jpg,7,2021-04-18_15h32.44.031,premceCat2_ses-02_part-01_label-phase1,2020.2.9,Win32,60,,,,,,,,,,,,,,
0,[],,,,,,,3,0,1.066,1,0,7,7,7,1,stimuli/m2.jpg,stimuli/m5.jpg,2,stimuli/Outdoor activity & sport item.png,stimuli/Electronic device & accessory.png,stimuli/Hand labour tool & accessory.png,stimuli/Kitchen & utensil.png,4,0,1,stimuli/m5.jpg,Kitchen & utensil,stimuli/objects/jug.jpg,7,2021-04-18_15h32.44.031,premceCat2_ses-02_part-01_label-phase1,2020.2.9,Win32,60,,,,,,,,,,,,,,
1,[],,,,,,,2,1,1.427,1,0,8,8,8,1,stimuli/m5.jpg,stimuli/m2.jpg,1,stimuli/Outdoor activity & sport item.png,stimuli/Hand labour tool & accessory.png,stimuli/Electronic device & accessory.png,stimuli/Kitchen & utensil.png,2,1,1,stimuli/m5.jpg,Hand labour tool & accessory,stimuli/objects/pitchfork.jpg,7,2021-04-18_15h32.44.031,premceCat2_ses-02_part-01_label-phase1,2020.2.9,Win32,60,,,,,,,,,,,,,,
0,[],,,,,,,4,0,1.369,1,0,9,9,9,1,stimuli/m5.jpg,stimuli/m2.jpg,2,stimuli/Kitchen & utensil.png,stimuli/Hand labour tool & accessory.png,stimuli/Electronic device & accessory.png,stimuli/Outdoor activity & sport item.png,2,0,1,stimuli/m2.jpg,Hand labour tool & accessory,stimuli/objects/boxcutter03a.jpg,7,2021-04-18_15h32.44.031,premceCat2_ses-02_part-01_label-phase1,2020.2.9,Win32,60,,,,,,,,,,,,,,
1,[],,,,,,,4,1,2.235,1,0,10,10,10,1,stimuli/m5.jpg,stimuli/m2.jpg,1,stimuli/Kitchen & utensil.png,stimuli/Outdoor activity & sport item.png,stimuli/Electronic device & accessory.png,stimuli/Hand labour tool & accessory.png,4,1,1,stimuli/m5.jpg,Hand labour tool & accessory,stimuli/objects/gavel.jpg,7,2021-04-18_15h32.44.031,premceCat2_ses-02_part-01_label-phase1,2020.2.9,Win32,60,,,,,,,,,,,,,,
0,[],,,,,,,2,0,0.871,1,0,11,11,11,1,stimuli/m5.jpg,stimuli/m2.jpg,1,stimuli/Kitchen & utensil.png,stimuli/Hand labour tool & accessory.png,stimuli/Electronic device & accessory.png,stimuli/Outdoor activity & sport item.png,4,0,1,stimuli/m5.jpg,Outdoor activity & sport item,stimuli/objects/swing.jpg,7,2021-04-18_15h32.44.031,premceCat2_ses-02_part-01_label-phase1,2020.2.9,Win32,60,,,,,,,,,,,,,,
1,[],,,,,,,1,1,0.959,1,0,12,12,12,1,stimuli/m5.jpg,stimuli/m2.jpg,2,stimuli/Outdoor activity & sport item.png,stimuli/Electronic device & accessory.png,stimuli/Kitchen & utensil.png,stimuli/Hand labour tool & accessory.png,1,1,1,stimuli/m2.jpg,Outdoor activity & sport item,stimuli/objects/bicycle.jpg,7,2021-04-18_15h32.44.031,premceCat2_ses-02_part-01_label-phase1,2020.2.9,Win32,60,,,,,,,,,,,,,,
1,[],,,,,,,2,1,1.742,1,0,13,13,13,1,stimuli/m2.jpg,stimuli/m5.jpg,1,stimuli/Electronic device & accessory.png,stimuli/Outdoor activity & sport item.png,stimuli/Hand labour tool & accessory.png,stimuli/Kitchen & utensil.png,2,1,1,stimuli/m2.jpg,Outdoor activity & sport item,stimuli/objects/racquetballracket.jpg,7,2021-04-18_15h32.44.031,premceCat2_ses-02_part-01_label-phase1,2020.2.9,Win32,60,,,,,,,,,,,,,,
0,[],,,,,,,1,0,1.399,1,0,14,14,14,1,stimuli/m5.jpg,stimuli/m2.jpg,1,stimuli/Hand labour tool & accessory.png,stimuli/Outdoor activity & sport item.png,stimuli/Kitchen & utensil.png,stimuli/Electronic device & accessory.png,3,0,1,stimuli/m5.jpg,Kitchen & utensil,stimuli/objects/freezer02.jpg,7,2021-04-18_15h32.44.031,premceCat2_ses-02_part-01_label-phase1,2020.2.9,Win32,60,,,,,,,,,,,,,,
1,[],,,,,,,2,1,0.961,1,0,15,15,15,1,stimuli/m2.jpg,stimuli/m5.jpg,1,stimuli/Kitchen & utensil.png,stimuli/Hand labour tool & accessory.png,stimuli/Electronic device & accessory.png,stimuli/Outdoor activity & sport item.png,2,0,1,stimuli/m2.jpg,Hand labour tool & accessory,stimuli/objects/handrake01a.jpg,7,2021-04-18_15h32.44.031,premceCat2_ses-02_part-01_label-phase1,2020.2.9,Win32,60,,,,,,,,,,,,,,
1,[],,,,,,,2,1,3.374,1,0,16,16,16,1,stimuli/m5.jpg,stimuli/m2.jpg,2,stimuli/Hand labour tool & accessory.png,stimuli/Outdoor activity & sport item.png,stimuli/Kitchen & utensil.png,stimuli/Electronic device & accessory.png,2,1,1,stimuli/m2.jpg,Outdoor activity & sport item,stimuli/objects/rollerblade.jpg,7,2021-04-18_15h32.44.031,premceCat2_ses-02_part-01_label-phase1,2020.2.9,Win32,60,,,,,,,,,,,,,,
1,[],,,,,,,1,1,0.69,1,0,17,17,17,1,stimuli/m2.jpg,stimuli/m5.jpg,2,stimuli/Hand labour tool & accessory.png,stimuli/Kitchen & utensil.png,stimuli/Electronic device & accessory.png,stimuli/Outdoor activity & sport item.png,1,1,1,stimuli/m5.jpg,Hand labour tool & accessory,stimuli/objects/hedgetrimmer.jpg,7,2021-04-18_15h32.44.031,premceCat2_ses-02_part-01_label-phase1,2020.2.9,Win32,60,,,,,,,,,,,,,,
1,[],,,,,,,1,1,1.035,1,0,18,18,18,1,stimuli/m5.jpg,stimuli/m2.jpg,1,stimuli/Hand labour tool & accessory.png,stimuli/Outdoor activity & sport item.png,stimuli/Electronic device & accessory.png,stimuli/Kitchen & utensil.png,1,1,1,stimuli/m5.jpg,Hand labour tool & accessory,stimuli/objects/jumpingjack.jpg,7,2021-04-18_15h32.44.031,premceCat2_ses-02_part-01_label-phase1,2020.2.9,Win32,60,,,,,,,,,,,,,,
0,[],,,,,,,,,,1,,,,,,stimuli/m2.jpg,stimuli/m5.jpg,2,stimuli/Electronic device & accessory.png,stimuli/Kitchen & utensil.png,stimuli/Hand labour tool & accessory.png,stimuli/Outdoor activity & sport item.png,2,0,2,stimuli/m5.jpg,Kitchen & utensil,stimuli/objects/jar02.jpg,7,2021-04-18_15h32.44.031,premceCat2_ses-02_part-01_label-phase1,2020.2.9,Win32,60,3,0,1.706,0,0,0,0,1,,,,,,
1,[],,,,,,,,,,1,,,,,,stimuli/m2.jpg,stimuli/m5.jpg,1,stimuli/Kitchen & utensil.png,stimuli/Outdoor activity & sport item.png,stimuli/Electronic device & accessory.png,stimuli/Hand labour tool & accessory.png,2,1,2,stimuli/m2.jpg,Outdoor activity & sport item,stimuli/objects/skiboot01a.jpg,7,2021-04-18_15h32.44.031,premceCat2_ses-02_part-01_label-phase1,2020.2.9,Win32,60,2,1,1.16,0,1,1,1,1,,,,,,
0,[1],,,,,,,,,,1,,,,,,stimuli/m2.jpg,stimuli/m5.jpg,2,stimuli/Electronic device & accessory.png,stimuli/Hand labour tool & accessory.png,stimuli/Outdoor activity & sport item.png,stimuli/Kitchen & utensil.png,3,0,2,stimuli/m5.jpg,Outdoor activity & sport item,stimuli/objects/bikepump01.jpg,7,2021-04-18_15h32.44.031,premceCat2_ses-02_part-01_label-phase1,2020.2.9,Win32,60,4,0,1.349,0,2,2,2,1,,,,,,
1,[1],,,,,,,,,,1,,,,,,stimuli/m2.jpg,stimuli/m5.jpg,2,stimuli/Kitchen & utensil.png,stimuli/Hand labour tool & accessory.png,stimuli/Electronic device & accessory.png,stimuli/Outdoor activity & sport item.png,2,1,2,stimuli/m5.jpg,Hand labour tool & accessory,stimuli/objects/sledgehammer.jpg,7,2021-04-18_15h32.44.031,premceCat2_ses-02_part-01_label-phase1,2020.2.9,Win32,60,2,1,0.779,0,3,3,3,1,,,,,,
0,"[1,1]",,,,,,,,,,1,,,,,,stimuli/m2.jpg,stimuli/m5.jpg,1,stimuli/Kitchen & utensil.png,stimuli/Hand labour tool & accessory.png,stimuli/Electronic device & accessory.png,stimuli/Outdoor activity & sport item.png,3,0,2,stimuli/m2.jpg,Electronic device & accessory,stimuli/objects/fuse.jpg,7,2021-04-18_15h32.44.031,premceCat2_ses-02_part-01_label-phase1,2020.2.9,Win32,60,4,0,1.138,0,4,4,4,1,,,,,,
1,"[1,1]",,,,,,,,,,1,,,,,,stimuli/m5.jpg,stimuli/m2.jpg,2,stimuli/Hand labour tool & accessory.png,stimuli/Electronic device & accessory.png,stimuli/Kitchen & utensil.png,stimuli/Outdoor activity & sport item.png,4,1,2,stimuli/m2.jpg,Outdoor activity & sport item,stimuli/objects/hockeygoalieglove.jpg,7,2021-04-18_15h32.44.031,premceCat2_ses-02_part-01_label-phase1,2020.2.9,Win32,60,4,1,0.791,0,5,5,5,1,,,,,,
0,"[1,1,1]",,,,,,,,,,1,,,,,,stimuli/m5.jpg,stimuli/m2.jpg,1,stimuli/Electronic device & accessory.png,stimuli/Outdoor activity & sport item.png,stimuli/Kitchen & utensil.png,stimuli/Hand labour tool & accessory.png,1,0,2,stimuli/m5.jpg,Electronic device & accessory,stimuli/objects/vhstape.jpg,7,2021-04-18_15h32.44.031,premceCat2_ses-02_part-01_label-phase1,2020.2.9,Win32,60,4,0,1.399,0,6,6,6,1,,,,,,
0,"[1,1,1]",,,,,,,,,,1,,,,,,stimuli/m2.jpg,stimuli/m5.jpg,2,stimuli/Electronic device & accessory.png,stimuli/Kitchen & utensil.png,stimuli/Outdoor activity & sport item.png,stimuli/Hand labour tool & accessory.png,2,0,2,stimuli/m5.jpg,Kitchen & utensil,stimuli/objects/handmixer01d.jpg,7,2021-04-18_15h32.44.031,premceCat2_ses-02_part-01_label-phase1,2020.2.9,Win32,60,4,0,1.027,0,7,7,7,1,,,,,,
1,"[1,1,1]",,,,,,,,,,1,,,,,,stimuli/m5.jpg,stimuli/m2.jpg,2,stimuli/Outdoor activity & sport item.png,stimuli/Hand labour tool & accessory.png,stimuli/Kitchen & utensil.png,stimuli/Electronic device & accessory.png,1,1,2,stimuli/m2.jpg,Outdoor activity & sport item,stimuli/objects/handgripper.jpg,7,2021-04-18_15h32.44.031,premceCat2_ses-02_part-01_label-phase1,2020.2.9,Win32,60,1,1,1.108,0,8,8,8,1,,,,,,
1,"[1,1,1,1]",,,,,,,,,,1,,,,,,stimuli/m2.jpg,stimuli/m5.jpg,1,stimuli/Electronic device & accessory.png,stimuli/Hand labour tool & accessory.png,stimuli/Kitchen & utensil.png,stimuli/Outdoor activity & sport item.png,4,1,2,stimuli/m2.jpg,Outdoor activity & sport item,stimuli/objects/treadmill.jpg,7,2021-04-18_15h32.44.031,premceCat2_ses-02_part-01_label-phase1,2020.2.9,Win32,60,4,1,1.227,0,9,9,9,1,,,,,,
1,"[1,1,1,1,1]",,,,,,,,,,1,,,,,,stimuli/m2.jpg,stimuli/m5.jpg,1,stimuli/Electronic device & accessory.png,stimuli/Outdoor activity & sport item.png,stimuli/Hand labour tool & accessory.png,stimuli/Kitchen & utensil.png,2,1,2,stimuli/m2.jpg,Outdoor activity & sport item,stimuli/objects/catchermask.jpg,7,2021-04-18_15h32.44.031,premceCat2_ses-02_part-01_label-phase1,2020.2.9,Win32,60,2,1,0.951,0,10,10,10,1,,,,,,
1,"[1,1,1,1,1,1]",,,,,,,,,,1,,,,,,stimuli/m5.jpg,stimuli/m2.jpg,1,stimuli/Electronic device & accessory.png,stimuli/Outdoor activity & sport item.png,stimuli/Hand labour tool & accessory.png,stimuli/Kitchen & utensil.png,3,1,2,stimuli/m5.jpg,Hand labour tool & accessory,stimuli/objects/axe01.jpg,7,2021-04-18_15h32.44.031,premceCat2_ses-02_part-01_label-phase1,2020.2.9,Win32,60,3,1,1.751,0,11,11,11,1,,,,,,
1,"[1,1,1,1,1,1,1]",,,,,,,,,,1,,,,,,stimuli/m2.jpg,stimuli/m5.jpg,2,stimuli/Kitchen & utensil.png,stimuli/Hand labour tool & accessory.png,stimuli/Outdoor activity & sport item.png,stimuli/Electronic device & accessory.png,2,1,2,stimuli/m5.jpg,Hand labour tool & accessory,stimuli/objects/pliers02b.jpg,7,2021-04-18_15h32.44.031,premceCat2_ses-02_part-01_label-phase1,2020.2.9,Win32,60,2,1,0.703,0,12,12,12,1,,,,,,
1,"[1,1,1,1,1,1,1,1]",,,,,,,,,,1,,,,,,stimuli/m5.jpg,stimuli/m2.jpg,2,stimuli/Kitchen & utensil.png,stimuli/Outdoor activity & sport item.png,stimuli/Hand labour tool & accessory.png,stimuli/Electronic device & accessory.png,2,1,2,stimuli/m2.jpg,Outdoor activity & sport item,stimuli/objects/badmintonracket.jpg,7,2021-04-18_15h32.44.031,premceCat2_ses-02_part-01_label-phase1,2020.2.9,Win32,60,2,1,1.273,0,13,13,13,1,,,,,,
0,"[1,1,1,1,1,1,1,1,1]",,,,,,,,,,1,,,,,,stimuli/m2.jpg,stimuli/m5.jpg,1,stimuli/Outdoor activity & sport item.png,stimuli/Kitchen & utensil.png,stimuli/Hand labour tool & accessory.png,stimuli/Electronic device & accessory.png,2,0,2,stimuli/m2.jpg,Kitchen & utensil,stimuli/objects/cookiecutter.jpg,7,2021-04-18_15h32.44.031,premceCat2_ses-02_part-01_label-phase1,2020.2.9,Win32,60,1,0,0.849,0,14,14,14,1,,,,,,
1,"[1,1,1,1,1,1,1,1,1]",,,,,,,,,,1,,,,,,stimuli/m2.jpg,stimuli/m5.jpg,1,stimuli/Electronic device & accessory.png,stimuli/Hand labour tool & accessory.png,stimuli/Outdoor activity & sport item.png,stimuli/Kitchen & utensil.png,4,0,2,stimuli/m2.jpg,Kitchen & utensil,stimuli/objects/espressomachine.jpg,7,2021-04-18_15h32.44.031,premceCat2_ses-02_part-01_label-phase1,2020.2.9,Win32,60,4,1,0.998,0,15,15,15,1,,,,,,
1,"[1,1,1,1,1,1,1,1,1]",,,,,,,,,,1,,,,,,stimuli/m5.jpg,stimuli/m2.jpg,1,stimuli/Kitchen & utensil.png,stimuli/Outdoor activity & sport item.png,stimuli/Hand labour tool & accessory.png,stimuli/Electronic device & accessory.png,3,1,2,stimuli/m5.jpg,Hand labour tool & accessory,stimuli/objects/leafrake.jpg,7,2021-04-18_15h32.44.031,premceCat2_ses-02_part-01_label-phase1,2020.2.9,Win32,60,3,1,0.894,0,16,16,16,1,,,,,,
0,"[1,1,1,1,1,1,1,1,1,1]",,,,,,,,,,1,,,,,,stimuli/m2.jpg,stimuli/m5.jpg,2,stimuli/Outdoor activity & sport item.png,stimuli/Electronic device & accessory.png,stimuli/Hand labour tool & accessory.png,stimuli/Kitchen & utensil.png,2,0,2,stimuli/m5.jpg,Electronic device & accessory,stimuli/objects/payphone.jpg,7,2021-04-18_15h32.44.031,premceCat2_ses-02_part-01_label-phase1,2020.2.9,Win32,60,3,0,0.921,0,17,17,17,1,,,,,,
0,"[1,1,1,1,1,1,1,1,1,1]",,,,,,,,,,0,,,,,,stimuli/m5.jpg,stimuli/m2.jpg,2,stimuli/Electronic device & accessory.png,stimuli/Outdoor activity & sport item.png,stimuli/Kitchen & utensil.png,stimuli/Hand labour tool & accessory.png,2,1,2,stimuli/m2.jpg,Outdoor activity & sport item,stimuli/objects/weight01.jpg,7,2021-04-18_15h32.44.031,premceCat2_ses-02_part-01_label-phase1,2020.2.9,Win32,60,3,0,1.325,0,18,18,18,1,,,,,,
1,"[1,1,1,1,1,1,1,1,1,1,0]",,,,,,,,,,1,,,,,,stimuli/m2.jpg,stimuli/m5.jpg,2,stimuli/Hand labour tool & accessory.png,stimuli/Outdoor activity & sport item.png,stimuli/Kitchen & utensil.png,stimuli/Electronic device & accessory.png,1,1,2,stimuli/m5.jpg,Hand labour tool & accessory,stimuli/objects/knifesharpener.jpg,7,2021-04-18_15h32.44.031,premceCat2_ses-02_part-01_label-phase1,2020.2.9,Win32,60,1,1,3.114,0,19,19,19,1,,,,,,
1,"[1,1,1,1,1,1,1,1,1,1,0,1]",,,,,,,,,,1,,,,,,stimuli/m2.jpg,stimuli/m5.jpg,1,stimuli/Hand labour tool & accessory.png,stimuli/Electronic device & accessory.png,stimuli/Outdoor activity & sport item.png,stimuli/Kitchen & utensil.png,3,1,2,stimuli/m2.jpg,Outdoor activity & sport item,stimuli/objects/hockeygoaliemask.jpg,7,2021-04-18_15h32.44.031,premceCat2_ses-02_part-01_label-phase1,2020.2.9,Win32,60,3,1,2.308,0,20,20,20,1,,,,,,
1,"[1,1,1,1,1,1,1,1,1,1,0,1,1]",,,,,,,,,,1,,,,,,stimuli/m5.jpg,stimuli/m2.jpg,1,stimuli/Electronic device & accessory.png,stimuli/Kitchen & utensil.png,stimuli/Outdoor activity & sport item.png,stimuli/Hand labour tool & accessory.png,4,1,2,stimuli/m5.jpg,Hand labour tool & accessory,stimuli/objects/staplegun.jpg,7,2021-04-18_15h32.44.031,premceCat2_ses-02_part-01_label-phase1,2020.2.9,Win32,60,4,1,1.18,0,21,21,21,1,,,,,,
1,"[1,1,1,1,1,1,1,1,1,1,0,1,1,1]",,,,,,,,,,1,,,,,,stimuli/m2.jpg,stimuli/m5.jpg,1,stimuli/Hand labour tool & accessory.png,stimuli/Kitchen & utensil.png,stimuli/Electronic device & accessory.png,stimuli/Outdoor activity & sport item.png,4,1,2,stimuli/m2.jpg,Outdoor activity & sport item,stimuli/objects/charcoalbarbecue.jpg,7,2021-04-18_15h32.44.031,premceCat2_ses-02_part-01_label-phase1,2020.2.9,Win32,60,4,1,1.087,0,22,22,22,1,,,,,,
1,"[1,1,1,1,1,1,1,1,1,1,0,1,1,1,1]",,,,,,,,,,1,,,,,,stimuli/m2.jpg,stimuli/m5.jpg,2,stimuli/Kitchen & utensil.png,stimuli/Electronic device & accessory.png,stimuli/Hand labour tool & accessory.png,stimuli/Outdoor activity & sport item.png,3,1,2,stimuli/m5.jpg,Hand labour tool & accessory,stimuli/objects/setsquare.jpg,7,2021-04-18_15h32.44.031,premceCat2_ses-02_part-01_label-phase1,2020.2.9,Win32,60,3,1,1.352,0,23,23,23,1,,,,,,
0,"[1,1,1,1,1,1,1,1,1,1,0,1,1,1,1,1]",,,,,,,,,,1,,,,,,stimuli/m5.jpg,stimuli/m2.jpg,2,stimuli/Electronic device & accessory.png,stimuli/Hand labour tool & accessory.png,stimuli/Kitchen & utensil.png,stimuli/Outdoor activity & sport item.png,1,0,2,stimuli/m2.jpg,Electronic device & accessory,stimuli/objects/alarmclock01.jpg,7,2021-04-18_15h32.44.031,premceCat2_ses-02_part-01_label-phase1,2020.2.9,Win32,60,4,0,1.207,0,24,24,24,1,,,,,,
1,"[1,1,1,1,1,1,1,1,1,1,0,1,1,1,1,1]",,,,,,,,,,1,,,,,,stimuli/m2.jpg,stimuli/m5.jpg,2,stimuli/Hand labour tool & accessory.png,stimuli/Outdoor activity & sport item.png,stimuli/Electronic device & accessory.png,stimuli/Kitchen & utensil.png,1,1,2,stimuli/m5.jpg,Hand labour tool & accessory,stimuli/objects/gluetube.jpg,7,2021-04-18_15h32.44.031,premceCat2_ses-02_part-01_label-phase1,2020.2.9,Win32,60,1,1,0.931,0,25,25,25,1,,,,,,
1,"[1,1,1,1,1,1,1,1,1,1,0,1,1,1,1,1,1]",,,,,,,,,,1,,,,,,stimuli/m5.jpg,stimuli/m2.jpg,1,stimuli/Kitchen & utensil.png,stimuli/Hand labour tool & accessory.png,stimuli/Outdoor activity & sport item.png,stimuli/Electronic device & accessory.png,2,1,2,stimuli/m5.jpg,Hand labour tool & accessory,stimuli/objects/sewingmachine01a.jpg,7,2021-04-18_15h32.44.031,premceCat2_ses-02_part-01_label-phase1,2020.2.9,Win32,60,2,1,0.855,0,26,26,26,1,,,,,,
0,"[1,1,1,1,1,1,1,1,1,1,0,1,1,1,1,1,1,1]",,,,,,,,,,0,,,,,,stimuli/m5.jpg,stimuli/m2.jpg,2,stimuli/Kitchen & utensil.png,stimuli/Hand labour tool & accessory.png,stimuli/Electronic device & accessory.png,stimuli/Outdoor activity & sport item.png,4,1,2,stimuli/m2.jpg,Outdoor activity & sport item,stimuli/objects/exercisemachine.jpg,7,2021-04-18_15h32.44.031,premceCat2_ses-02_part-01_label-phase1,2020.2.9,Win32,60,3,0,1.384,0,27,27,27,1,,,,,,
1,"[1,1,1,1,1,1,1,1,1,1,0,1,1,1,1,1,1,1,0]",,,,,,,,,,1,,,,,,stimuli/m2.jpg,stimuli/m5.jpg,1,stimuli/Hand labour tool & accessory.png,stimuli/Kitchen & utensil.png,stimuli/Outdoor activity & sport item.png,stimuli/Electronic device & accessory.png,3,1,2,stimuli/m2.jpg,Outdoor activity & sport item,stimuli/objects/hockeypuck.jpg,7,2021-04-18_15h32.44.031,premceCat2_ses-02_part-01_label-phase1,2020.2.9,Win32,60,3,1,0.85,0,28,28,28,1,,,,,,
1,"[1,1,1,1,1,1,1,1,1,1,0,1,1,1,1,1,1,1,0,1]",,,,,,,,,,1,,,,,,stimuli/m5.jpg,stimuli/m2.jpg,2,stimuli/Electronic device & accessory.png,stimuli/Outdoor activity & sport item.png,stimuli/Hand labour tool & accessory.png,stimuli/Kitchen & utensil.png,2,1,2,stimuli/m2.jpg,Outdoor activity & sport item,stimuli/objects/cooler01.jpg,7,2021-04-18_15h32.44.031,premceCat2_ses-02_part-01_label-phase1,2020.2.9,Win32,60,2,1,2.065,0,29,29,29,1,,,,,,
1,"[1,1,1,1,1,1,1,1,1,1,0,1,1,1,1,1,1,1,0,1,1]",,,,,,,,,,1,,,,,,stimuli/m2.jpg,stimuli/m5.jpg,2,stimuli/Kitchen & utensil.png,stimuli/Outdoor activity & sport item.png,stimuli/Electronic device & accessory.png,stimuli/Hand labour tool & accessory.png,4,1,2,stimuli/m5.jpg,Hand labour tool & accessory,stimuli/objects/bungeecord02.jpg,7,2021-04-18_15h32.44.031,premceCat2_ses-02_part-01_label-phase1,2020.2.9,Win32,60,4,1,1.171,0,30,30,30,1,,,,,,
1,"[1,1,1,1,1,1,1,1,1,1,0,1,1,1,1,1,1,1,0,1,1,1]",,,,,,,,,,1,,,,,,stimuli/m2.jpg,stimuli/m5.jpg,2,stimuli/Hand labour tool & accessory.png,stimuli/Kitchen & utensil.png,stimuli/Outdoor activity & sport item.png,stimuli/Electronic device & accessory.png,1,1,2,stimuli/m5.jpg,Hand labour tool & accessory,stimuli/objects/pipewrench.jpg,7,2021-04-18_15h32.44.031,premceCat2_ses-02_part-01_label-phase1,2020.2.9,Win32,60,1,1,1.127,0,31,31,31,1,,,,,,
0,"[1,1,1,1,1,1,1,1,1,1,0,1,1,1,1,1,1,1,0,1,1,1,1]",,,,,,,,,,1,,,,,,stimuli/m5.jpg,stimuli/m2.jpg,2,stimuli/Kitchen & utensil.png,stimuli/Hand labour tool & accessory.png,stimuli/Outdoor activity & sport item.png,stimuli/Electronic device & accessory.png,2,0,2,stimuli/m2.jpg,Hand labour tool & accessory,stimuli/objects/jumpercables.jpg,7,2021-04-18_15h32.44.031,premceCat2_ses-02_part-01_label-phase1,2020.2.9,Win32,60,3,0,1.475,0,32,32,32,1,,,,,,
1,"[1,1,1,1,1,1,1,1,1,1,0,1,1,1,1,1,1,1,0,1,1,1,1]",,,,,,,,,,1,,,,,,stimuli/m5.jpg,stimuli/m2.jpg,1,stimuli/Outdoor activity & sport item.png,stimuli/Hand labour tool & accessory.png,stimuli/Kitchen & utensil.png,stimuli/Electronic device & accessory.png,2,1,2,stimuli/m5.jpg,Hand labour tool & accessory,stimuli/objects/tape02a.jpg,7,2021-04-18_15h32.44.031,premceCat2_ses-02_part-01_label-phase1,2020.2.9,Win32,60,2,1,1.081,0,33,33,33,1,,,,,,
1,"[1,1,1,1,1,1,1,1,1,1,0,1,1,1,1,1,1,1,0,1,1,1,1,1]",,,,,,,,,,1,,,,,,stimuli/m5.jpg,stimuli/m2.jpg,1,stimuli/Electronic device & accessory.png,stimuli/Hand labour tool & accessory.png,stimuli/Kitchen & utensil.png,stimuli/Outdoor activity & sport item.png,2,1,2,stimuli/m5.jpg,Hand labour tool & accessory,stimuli/objects/wheelbarrow01.jpg,7,2021-04-18_15h32.44.031,premceCat2_ses-02_part-01_label-phase1,2020.2.9,Win32,60,2,1,1.176,0,34,34,34,1,,,,,,
0,"[1,1,1,1,1,1,1,1,1,1,0,1,1,1,1,1,1,1,0,1,1,1,1,1,1]",,,,,,,,,,1,,,,,,stimuli/m5.jpg,stimuli/m2.jpg,1,stimuli/Outdoor activity & sport item.png,stimuli/Hand labour tool & accessory.png,stimuli/Electronic device & accessory.png,stimuli/Kitchen & utensil.png,1,0,2,stimuli/m5.jpg,Outdoor activity & sport item,stimuli/objects/baseballbat.jpg,7,2021-04-18_15h32.44.031,premceCat2_ses-02_part-01_label-phase1,2020.2.9,Win32,60,2,0,0.788,0,35,35,35,1,,,,,,
0,"[1,1,1,1,1,1,1,1,1,1,0,1,1,1,1,1,1,1,0,1,1,1,1,1,1]",,,,,,,,,,0,,,,,,stimuli/m2.jpg,stimuli/m5.jpg,1,stimuli/Outdoor activity & sport item.png,stimuli/Electronic device & accessory.png,stimuli/Kitchen & utensil.png,stimuli/Hand labour tool & accessory.png,1,1,2,stimuli/m2.jpg,Outdoor activity & sport item,stimuli/objects/volleyball.jpg,7,2021-04-18_15h32.44.031,premceCat2_ses-02_part-01_label-phase1,2020.2.9,Win32,60,4,0,1.966,0,36,36,36,1,,,,,,
1,"[1,1,1,1,1,1,1,1,1,1,0,1,1,1,1,1,1,1,0,1,1,1,1,1,1,0]",,,,,,,,,,1,,,,,,stimuli/m5.jpg,stimuli/m2.jpg,2,stimuli/Hand labour tool & accessory.png,stimuli/Outdoor activity & sport item.png,stimuli/Kitchen & utensil.png,stimuli/Electronic device & accessory.png,2,1,2,stimuli/m2.jpg,Outdoor activity & sport item,stimuli/objects/baseball01a.jpg,7,2021-04-18_15h32.44.031,premceCat2_ses-02_part-01_label-phase1,2020.2.9,Win32,60,2,1,0.787,0,37,37,37,1,,,,,,
1,"[1,1,1,1,1,1,1,1,1,1,0,1,1,1,1,1,1,1,0,1,1,1,1,1,1,0,1]",,,,,,,,,,1,,,,,,stimuli/m5.jpg,stimuli/m2.jpg,2,stimuli/Outdoor activity & sport item.png,stimuli/Electronic device & accessory.png,stimuli/Hand labour tool & accessory.png,stimuli/Kitchen & utensil.png,1,1,2,stimuli/m2.jpg,Outdoor activity & sport item,stimuli/objects/skihelmet01.jpg,7,2021-04-18_15h32.44.031,premceCat2_ses-02_part-01_label-phase1,2020.2.9,Win32,60,1,1,1.668,0,38,38,38,1,,,,,,
1,"[1,1,1,1,1,1,1,1,1,1,0,1,1,1,1,1,1,1,0,1,1,1,1,1,1,0,1,1]",,,,,,,,,,1,,,,,,stimuli/m2.jpg,stimuli/m5.jpg,1,stimuli/Hand labour tool & accessory.png,stimuli/Outdoor activity & sport item.png,stimuli/Electronic device & accessory.png,stimuli/Kitchen & utensil.png,2,1,2,stimuli/m2.jpg,Outdoor activity & sport item,stimuli/objects/shinpad.jpg,7,2021-04-18_15h32.44.031,premceCat2_ses-02_part-01_label-phase1,2020.2.9,Win32,60,2,1,1.02,0,39,39,39,1,,,,,,
0,"[1,1,1,1,1,1,1,1,1,1,0,1,1,1,1,1,1,1,0,1,1,1,1,1,1,0,1,1,1]",,,,,,,,,,0,,,,,,stimuli/m5.jpg,stimuli/m2.jpg,1,stimuli/Outdoor activity & sport item.png,stimuli/Electronic device & accessory.png,stimuli/Kitchen & utensil.png,stimuli/Hand labour tool & accessory.png,4,1,2,stimuli/m5.jpg,Hand labour tool & accessory,stimuli/objects/chainsaw.jpg,7,2021-04-18_15h32.44.031,premceCat2_ses-02_part-01_label-phase1,2020.2.9,Win32,60,1,0,0.627,0,40,40,40,1,,,,,,
1,"[1,1,1,1,1,1,1,1,1,1,0,1,1,1,1,1,1,1,0,1,1,1,1,1,1,0,1,1,1,0]",,,,,,,,,,0,,,,,,stimuli/m2.jpg,stimuli/m5.jpg,1,stimuli/Kitchen & utensil.png,stimuli/Hand labour tool & accessory.png,stimuli/Outdoor activity & sport item.png,stimuli/Electronic device & accessory.png,2,0,2,stimuli/m2.jpg,Hand labour tool & accessory,stimuli/objects/hedgeshears.jpg,7,2021-04-18_15h32.44.031,premceCat2_ses-02_part-01_label-phase1,2020.2.9,Win32,60,2,1,1.625,0,41,41,41,1,,,,,,
1,"[1,1,1,1,1,1,1,1,1,1,0,1,1,1,1,1,1,1,0,1,1,1,1,1,1,0,1,1,1,0]",,,,,,,,,,1,,,,,,stimuli/m2.jpg,stimuli/m5.jpg,2,stimuli/Outdoor activity & sport item.png,stimuli/Hand labour tool & accessory.png,stimuli/Kitchen & utensil.png,stimuli/Electronic device & accessory.png,2,1,2,stimuli/m5.jpg,Hand labour tool & accessory,stimuli/objects/toyhardhat.jpg,7,2021-04-18_15h32.44.031,premceCat2_ses-02_part-01_label-phase1,2020.2.9,Win32,60,2,1,0.954,0,42,42,42,1,,,,,,
0,"[1,1,1,1,1,1,1,1,1,1,0,1,1,1,1,1,1,1,0,1,1,1,1,1,1,0,1,1,1,0,1]",,,,,,,,,,0,,,,,,stimuli/m5.jpg,stimuli/m2.jpg,2,stimuli/Electronic device & accessory.png,stimuli/Kitchen & utensil.png,stimuli/Outdoor activity & sport item.png,stimuli/Hand labour tool & accessory.png,3,1,2,stimuli/m2.jpg,Outdoor activity & sport item,stimuli/objects/fishinghook03.jpg,7,2021-04-18_15h32.44.031,premceCat2_ses-02_part-01_label-phase1,2020.2.9,Win32,60,4,0,2.033,0,43,43,43,1,,,,,,
1,"[1,1,1,1,1,1,1,1,1,1,0,1,1,1,1,1,1,1,0,1,1,1,1,1,1,0,1,1,1,0,1,0]",,,,,,,,,,1,,,,,,stimuli/m2.jpg,stimuli/m5.jpg,2,stimuli/Outdoor activity & sport item.png,stimuli/Electronic device & accessory.png,stimuli/Kitchen & utensil.png,stimuli/Hand labour tool & accessory.png,4,1,2,stimuli/m5.jpg,Hand labour tool & accessory,stimuli/objects/level03a.jpg,7,2021-04-18_15h32.44.031,premceCat2_ses-02_part-01_label-phase1,2020.2.9,Win32,60,4,1,0.967,0,44,44,44,1,,,,,,
1,"[1,1,1,1,1,1,1,1,1,1,0,1,1,1,1,1,1,1,0,1,1,1,1,1,1,0,1,1,1,0,1,0,1]",,,,,,,,,,1,,,,,,stimuli/m2.jpg,stimuli/m5.jpg,2,stimuli/Electronic device & accessory.png,stimuli/Hand labour tool & accessory.png,stimuli/Kitchen & utensil.png,stimuli/Outdoor activity & sport item.png,2,1,2,stimuli/m5.jpg,Hand labour tool & accessory,stimuli/objects/hoe.jpg,7,2021-04-18_15h32.44.031,premceCat2_ses-02_part-01_label-phase1,2020.2.9,Win32,60,2,1,1.846,0,45,45,45,1,,,,,,
0,"[1,1,1,1,1,1,1,1,1,1,0,1,1,1,1,1,1,1,0,1,1,1,1,1,1,0,1,1,1,0,1,0,1,1]",,,,,,,,,,0,,,,,,stimuli/m5.jpg,stimuli/m2.jpg,2,stimuli/Electronic device & accessory.png,stimuli/Kitchen & utensil.png,stimuli/Hand labour tool & accessory.png,stimuli/Outdoor activity & sport item.png,4,1,2,stimuli/m2.jpg,Outdoor activity & sport item,stimuli/objects/kiddiepool.jpg,7,2021-04-18_15h32.44.031,premceCat2_ses-02_part-01_label-phase1,2020.2.9,Win32,60,3,0,0.824,0,46,46,46,1,,,,,,
1,"[1,1,1,1,1,1,1,1,1,1,0,1,1,1,1,1,1,1,0,1,1,1,1,1,1,0,1,1,1,0,1,0,1,1,0]",,,,,,,,,,1,,,,,,stimuli/m5.jpg,stimuli/m2.jpg,1,stimuli/Hand labour tool & accessory.png,stimuli/Electronic device & accessory.png,stimuli/Kitchen & utensil.png,stimuli/Outdoor activity & sport item.png,1,1,2,stimuli/m5.jpg,Hand labour tool & accessory,stimuli/objects/paintroller01.jpg,7,2021-04-18_15h32.44.031,premceCat2_ses-02_part-01_label-phase1,2020.2.9,Win32,60,1,1,1.141,0,47,47,47,1,,,,,,
,,,,,,,,,,,,,,,,,,,,,,,,,,,,,,7,2021-04-18_15h32.44.031,premceCat2_ses-02_part-01_label-phase1,2020.2.9,Win32,60,,,,,,,,,0,0,0,0,1,condition_files/tasklistAplus4.csv
0,"[1,1,1,1,1,1,1,1,1,1,0,1,1,1,1,1,1,1,0,1,1,1,1,1,1,0,1,1,1,0,1,0,1,1,0,1]",,,,,,,,,,0,,,,,,stimuli/m2.jpg,stimuli/m5.jpg,2,stimuli/Outdoor activity & sport item.png,stimuli/Hand labour tool & accessory.png,stimuli/Electronic device & accessory.png,stimuli/Kitchen & utensil.png,4,1,3,stimuli/m5.jpg,Kitchen & utensil,stimuli/objects/pitcher02b.jpg,7,2021-04-18_15h32.44.031,premceCat2_ses-02_part-01_label-phase1,2020.2.9,Win32,60,2,0,0.939,0,0,0,0,1,,,,,,
1,"[1,1,1,1,1,1,1,1,1,1,0,1,1,1,1,1,1,1,0,1,1,1,1,1,1,0,1,1,1,0,1,0,1,1,0,1,0]",,,,,,,,,,1,,,,,,stimuli/m5.jpg,stimuli/m2.jpg,1,stimuli/Electronic device & accessory.png,stimuli/Kitchen & utensil.png,stimuli/Outdoor activity & sport item.png,stimuli/Hand labour tool & accessory.png,2,1,3,stimuli/m5.jpg,Kitchen & utensil,stimuli/objects/coffeepot03a.jpg,7,2021-04-18_15h32.44.031,premceCat2_ses-02_part-01_label-phase1,2020.2.9,Win32,60,2,1,2.638,0,1,1,1,1,,,,,,
0,"[1,1,1,1,1,1,1,1,1,1,0,1,1,1,1,1,1,1,0,1,1,1,1,1,1,0,1,1,1,0,1,0,1,1,0,1,0,1]",,,,,,,,,,1,,,,,,stimuli/m5.jpg,stimuli/m2.jpg,1,stimuli/Hand labour tool & accessory.png,stimuli/Kitchen & utensil.png,stimuli/Electronic device & accessory.png,stimuli/Outdoor activity & sport item.png,4,0,3,stimuli/m5.jpg,Outdoor activity & sport item,stimuli/objects/ellipticalmachine.jpg,7,2021-04-18_15h32.44.031,premceCat2_ses-02_part-01_label-phase1,2020.2.9,Win32,60,2,0,0.679,0,2,2,2,1,,,,,,
0,"[1,1,1,1,1,1,1,1,1,1,0,1,1,1,1,1,1,1,0,1,1,1,1,1,1,0,1,1,1,0,1,0,1,1,0,1,0,1]",,,,,,,,,,0,,,,,,stimuli/m5.jpg,stimuli/m2.jpg,1,stimuli/Electronic device & accessory.png,stimuli/Outdoor activity & sport item.png,stimuli/Hand labour tool & accessory.png,stimuli/Kitchen & utensil.png,4,1,3,stimuli/m5.jpg,Kitchen & utensil,stimuli/objects/measuringcup01.jpg,7,2021-04-18_15h32.44.031,premceCat2_ses-02_part-01_label-phase1,2020.2.9,Win32,60,2,0,1.991,0,3,3,3,1,,,,,,
0,"[1,1,1,1,1,1,1,1,1,1,0,1,1,1,1,1,1,1,0,1,1,1,1,1,1,0,1,1,1,0,1,0,1,1,0,1,0,1,0]",,,,,,,,,,0,,,,,,stimuli/m2.jpg,stimuli/m5.jpg,1,stimuli/Hand labour tool & accessory.png,stimuli/Electronic device & accessory.png,stimuli/Outdoor activity & sport item.png,stimuli/Kitchen & utensil.png,2,1,3,stimuli/m2.jpg,Electronic device & accessory,stimuli/objects/telephone01b.jpg,7,2021-04-18_15h32.44.031,premceCat2_ses-02_part-01_label-phase1,2020.2.9,Win32,60,3,0,1.513,0,4,4,4,1,,,,,,
1,"[1,1,1,1,1,1,1,1,1,1,0,1,1,1,1,1,1,1,0,1,1,1,1,1,1,0,1,1,1,0,1,0,1,1,0,1,0,1,0,0]",,,,,,,,,,1,,,,,,stimuli/m2.jpg,stimuli/m5.jpg,2,stimuli/Hand labour tool & accessory.png,stimuli/Kitchen & utensil.png,stimuli/Electronic device & accessory.png,stimuli/Outdoor activity & sport item.png,2,1,3,stimuli/m5.jpg,Kitchen & utensil,stimuli/objects/peeler01.jpg,7,2021-04-18_15h32.44.031,premceCat2_ses-02_part-01_label-phase1,2020.2.9,Win32,60,2,1,2.86,0,5,5,5,1,,,,,,
1,"[1,1,1,1,1,1,1,1,1,1,0,1,1,1,1,1,1,1,0,1,1,1,1,1,1,0,1,1,1,0,1,0,1,1,0,1,0,1,0,0,1]",,,,,,,,,,1,,,,,,stimuli/m5.jpg,stimuli/m2.jpg,2,stimuli/Electronic device & accessory.png,stimuli/Kitchen & utensil.png,stimuli/Hand labour tool & accessory.png,stimuli/Outdoor activity & sport item.png,1,1,3,stimuli/m2.jpg,Electronic device & accessory,stimuli/objects/atm.jpg,7,2021-04-18_15h32.44.031,premceCat2_ses-02_part-01_label-phase1,2020.2.9,Win32,60,1,1,2.632,0,6,6,6,1,,,,,,
1,"[1,1,1,1,1,1,1,1,1,1,0,1,1,1,1,1,1,1,0,1,1,1,1,1,1,0,1,1,1,0,1,0,1,1,0,1,0,1,0,0,1,1]",,,,,,,,,,1,,,,,,stimuli/m2.jpg,stimuli/m5.jpg,2,stimuli/Outdoor activity & sport item.png,stimuli/Hand labour tool & accessory.png,stimuli/Kitchen & utensil.png,stimuli/Electronic device & accessory.png,3,1,3,stimuli/m5.jpg,Kitchen & utensil,stimuli/objects/bottlecap.jpg,7,2021-04-18_15h32.44.031,premceCat2_ses-02_part-01_label-phase1,2020.2.9,Win32,60,3,1,0.87,0,7,7,7,1,,,,,,
0,"[1,1,1,1,1,1,1,1,1,1,0,1,1,1,1,1,1,1,0,1,1,1,1,1,1,0,1,1,1,0,1,0,1,1,0,1,0,1,0,0,1,1,1]",,,,,,,,,,1,,,,,,stimuli/m5.jpg,stimuli/m2.jpg,2,stimuli/Kitchen & utensil.png,stimuli/Outdoor activity & sport item.png,stimuli/Hand labour tool & accessory.png,stimuli/Electronic device & accessory.png,2,0,3,stimuli/m2.jpg,Outdoor activity & sport item,stimuli/objects/canoepaddle02.jpg,7,2021-04-18_15h32.44.031,premceCat2_ses-02_part-01_label-phase1,2020.2.9,Win32,60,4,0,1.354,0,8,8,8,1,,,,,,
1,"[1,1,1,1,1,1,1,1,1,1,0,1,1,1,1,1,1,1,0,1,1,1,1,1,1,0,1,1,1,0,1,0,1,1,0,1,0,1,0,0,1,1,1]",,,,,,,,,,1,,,,,,stimuli/m5.jpg,stimuli/m2.jpg,1,stimuli/Outdoor activity & sport item.png,stimuli/Hand labour tool & accessory.png,stimuli/Kitchen & utensil.png,stimuli/Electronic device & accessory.png,3,1,3,stimuli/m5.jpg,Kitchen & utensil,stimuli/objects/waterbottle03.jpg,7,2021-04-18_15h32.44.031,premceCat2_ses-02_part-01_label-phase1,2020.2.9,Win32,60,3,1,0.887,0,9,9,9,1,,,,,,
0,"[1,1,1,1,1,1,1,1,1,1,0,1,1,1,1,1,1,1,0,1,1,1,1,1,1,0,1,1,1,0,1,0,1,1,0,1,0,1,0,0,1,1,1,1]",,,,,,,,,,1,,,,,,stimuli/m5.jpg,stimuli/m2.jpg,2,stimuli/Kitchen & utensil.png,stimuli/Hand labour tool & accessory.png,stimuli/Electronic device & accessory.png,stimuli/Outdoor activity & sport item.png,2,0,3,stimuli/m2.jpg,Hand labour tool & accessory,stimuli/objects/wheel01.jpg,7,2021-04-18_15h32.44.031,premceCat2_ses-02_part-01_label-phase1,2020.2.9,Win32,60,4,0,1.17,0,10,10,10,1,,,,,,
0,"[1,1,1,1,1,1,1,1,1,1,0,1,1,1,1,1,1,1,0,1,1,1,1,1,1,0,1,1,1,0,1,0,1,1,0,1,0,1,0,0,1,1,1,1]",,,,,,,,,,0,,,,,,stimuli/m5.jpg,stimuli/m2.jpg,2,stimuli/Outdoor activity & sport item.png,stimuli/Hand labour tool & accessory.png,stimuli/Electronic device & accessory.png,stimuli/Kitchen & utensil.png,3,1,3,stimuli/m2.jpg,Electronic device & accessory,stimuli/objects/lamp04a.jpg,7,2021-04-18_15h32.44.031,premceCat2_ses-02_part-01_label-phase1,2020.2.9,Win32,60,4,0,2.389,0,11,11,11,1,,,,,,
1,"[1,1,1,1,1,1,1,1,1,1,0,1,1,1,1,1,1,1,0,1,1,1,1,1,1,0,1,1,1,0,1,0,1,1,0,1,0,1,0,0,1,1,1,1,0]",,,,,,,,,,1,,,,,,stimuli/m5.jpg,stimuli/m2.jpg,2,stimuli/Kitchen & utensil.png,stimuli/Hand labour tool & accessory.png,stimuli/Outdoor activity & sport item.png,stimuli/Electronic device & accessory.png,4,1,3,stimuli/m2.jpg,Electronic device & accessory,stimuli/objects/usbkey.jpg,7,2021-04-18_15h32.44.031,premceCat2_ses-02_part-01_label-phase1,2020.2.9,Win32,60,4,1,1.587,0,12,12,12,1,,,,,,
0,"[1,1,1,1,1,1,1,1,1,1,0,1,1,1,1,1,1,1,0,1,1,1,1,1,1,0,1,1,1,0,1,0,1,1,0,1,0,1,0,0,1,1,1,1,0,1]",,,,,,,,,,1,,,,,,stimuli/m2.jpg,stimuli/m5.jpg,2,stimuli/Electronic device & accessory.png,stimuli/Hand labour tool & accessory.png,stimuli/Kitchen & utensil.png,stimuli/Outdoor activity & sport item.png,1,0,3,stimuli/m5.jpg,Electronic device & accessory,stimuli/objects/filmroll.jpg,7,2021-04-18_15h32.44.031,premceCat2_ses-02_part-01_label-phase1,2020.2.9,Win32,60,3,0,1.502,0,13,13,13,1,,,,,,
0,"[1,1,1,1,1,1,1,1,1,1,0,1,1,1,1,1,1,1,0,1,1,1,1,1,1,0,1,1,1,0,1,0,1,1,0,1,0,1,0,0,1,1,1,1,0,1]",,,,,,,,,,0,,,,,,stimuli/m2.jpg,stimuli/m5.jpg,1,stimuli/Outdoor activity & sport item.png,stimuli/Hand labour tool & accessory.png,stimuli/Kitchen & utensil.png,stimuli/Electronic device & accessory.png,4,1,3,stimuli/m2.jpg,Electronic device & accessory,stimuli/objects/photocopier.jpg,7,2021-04-18_15h32.44.031,premceCat2_ses-02_part-01_label-phase1,2020.2.9,Win32,60,3,0,2.248,0,14,14,14,1,,,,,,
1,"[1,1,1,1,1,1,1,1,1,1,0,1,1,1,1,1,1,1,0,1,1,1,1,1,1,0,1,1,1,0,1,0,1,1,0,1,0,1,0,0,1,1,1,1,0,1,0]",,,,,,,,,,1,,,,,,stimuli/m5.jpg,stimuli/m2.jpg,2,stimuli/Outdoor activity & sport item.png,stimuli/Kitchen & utensil.png,stimuli/Hand labour tool & accessory.png,stimuli/Electronic device & accessory.png,4,1,3,stimuli/m2.jpg,Electronic device & accessory,stimuli/objects/fluorescentlightbulb.jpg,7,2021-04-18_15h32.44.031,premceCat2_ses-02_part-01_label-phase1,2020.2.9,Win32,60,4,1,1.292,0,15,15,15,1,,,,,,
0,"[1,1,1,1,1,1,1,1,1,1,0,1,1,1,1,1,1,1,0,1,1,1,1,1,1,0,1,1,1,0,1,0,1,1,0,1,0,1,0,0,1,1,1,1,0,1,0,1]",,,,,,,,,,1,,,,,,stimuli/m2.jpg,stimuli/m5.jpg,1,stimuli/Kitchen & utensil.png,stimuli/Hand labour tool & accessory.png,stimuli/Electronic device & accessory.png,stimuli/Outdoor activity & sport item.png,2,0,3,stimuli/m2.jpg,Hand labour tool & accessory,stimuli/objects/hammer01.jpg,7,2021-04-18_15h32.44.031,premceCat2_ses-02_part-01_label-phase1,2020.2.9,Win32,60,3,0,1.122,0,16,16,16,1,,,,,,
0,"[1,1,1,1,1,1,1,1,1,1,0,1,1,1,1,1,1,1,0,1,1,1,1,1,1,0,1,1,1,0,1,0,1,1,0,1,0,1,0,0,1,1,1,1,0,1,0,1]",,,,,,,,,,0,,,,,,stimuli/m5.jpg,stimuli/m2.jpg,2,stimuli/Outdoor activity & sport item.png,stimuli/Electronic device & accessory.png,stimuli/Hand labour tool & accessory.png,stimuli/Kitchen & utensil.png,2,1,3,stimuli/m2.jpg,Electronic device & accessory,stimuli/objects/djmixer02.jpg,7,2021-04-18_15h32.44.031,premceCat2_ses-02_part-01_label-phase1,2020.2.9,Win32,60,3,0,1.125,0,17,17,17,1,,,,,,
0,"[1,1,1,1,1,1,1,1,1,1,0,1,1,1,1,1,1,1,0,1,1,1,1,1,1,0,1,1,1,0,1,0,1,1,0,1,0,1,0,0,1,1,1,1,0,1,0,1,0]",,,,,,,,,,0,,,,,,stimuli/m5.jpg,stimuli/m2.jpg,1,stimuli/Electronic device & accessory.png,stimuli/Hand labour tool & accessory.png,stimuli/Outdoor activity & sport item.png,stimuli/Kitchen & utensil.png,4,1,3,stimuli/m5.jpg,Kitchen & utensil,stimuli/objects/spoon01.jpg,7,2021-04-18_15h32.44.031,premceCat2_ses-02_part-01_label-phase1,2020.2.9,Win32,60,2,0,2.388,0,18,18,18,1,,,,,,
1,"[1,1,1,1,1,1,1,1,1,1,0,1,1,1,1,1,1,1,0,1,1,1,1,1,1,0,1,1,1,0,1,0,1,1,0,1,0,1,0,0,1,1,1,1,0,1,0,1,0,0]",,,,,,,,,,1,,,,,,stimuli/m2.jpg,stimuli/m5.jpg,1,stimuli/Kitchen & utensil.png,stimuli/Outdoor activity & sport item.png,stimuli/Hand labour tool & accessory.png,stimuli/Electronic device & accessory.png,4,1,3,stimuli/m2.jpg,Electronic device & accessory,stimuli/objects/headphones02b.jpg,7,2021-04-18_15h32.44.031,premceCat2_ses-02_part-01_label-phase1,2020.2.9,Win32,60,4,1,1.514,0,19,19,19,1,,,,,,
1,"[1,1,1,1,1,1,1,1,1,1,0,1,1,1,1,1,1,1,0,1,1,1,1,1,1,0,1,1,1,0,1,0,1,1,0,1,0,1,0,0,1,1,1,1,0,1,0,1,0,0,1]",,,,,,,,,,1,,,,,,stimuli/m5.jpg,stimuli/m2.jpg,2,stimuli/Electronic device & accessory.png,stimuli/Hand labour tool & accessory.png,stimuli/Kitchen & utensil.png,stimuli/Outdoor activity & sport item.png,1,1,3,stimuli/m2.jpg,Electronic device & accessory,stimuli/objects/ethernetcable02.jpg,7,2021-04-18_15h32.44.031,premceCat2_ses-02_part-01_label-phase1,2020.2.9,Win32,60,1,1,0.641,0,20,20,20,1,,,,,,
1,"[1,1,1,1,1,1,1,1,1,1,0,1,1,1,1,1,1,1,0,1,1,1,1,1,1,0,1,1,1,0,1,0,1,1,0,1,0,1,0,0,1,1,1,1,0,1,0,1,0,0,1,1]",,,,,,,,,,1,,,,,,stimuli/m2.jpg,stimuli/m5.jpg,2,stimuli/Hand labour tool & accessory.png,stimuli/Kitchen & utensil.png,stimuli/Outdoor activity & sport item.png,stimuli/Electronic device & accessory.png,2,1,3,stimuli/m5.jpg,Kitchen & utensil,stimuli/objects/spatula04.jpg,7,2021-04-18_15h32.44.031,premceCat2_ses-02_part-01_label-phase1,2020.2.9,Win32,60,2,1,1.076,0,21,21,21,1,,,,,,
0,"[1,1,1,1,1,1,1,1,1,1,0,1,1,1,1,1,1,1,0,1,1,1,1,1,1,0,1,1,1,0,1,0,1,1,0,1,0,1,0,0,1,1,1,1,0,1,0,1,0,0,1,1,1]",,,,,,,,,,0,,,,,,stimuli/m2.jpg,stimuli/m5.jpg,2,stimuli/Electronic device & accessory.png,stimuli/Hand labour tool & accessory.png,stimuli/Outdoor activity & sport item.png,stimuli/Kitchen & utensil.png,4,1,3,stimuli/m5.jpg,Kitchen & utensil,stimuli/objects/corkscrew03a.jpg,7,2021-04-18_15h32.44.031,premceCat2_ses-02_part-01_label-phase1,2020.2.9,Win32,60,2,0,1.69,0,22,22,22,1,,,,,,
1,"[1,1,1,1,1,1,1,1,1,1,0,1,1,1,1,1,1,1,0,1,1,1,1,1,1,0,1,1,1,0,1,0,1,1,0,1,0,1,0,0,1,1,1,1,0,1,0,1,0,0,1,1,1,0]",,,,,,,,,,1,,,,,,stimuli/m2.jpg,stimuli/m5.jpg,1,stimuli/Electronic device & accessory.png,stimuli/Outdoor activity & sport item.png,stimuli/Hand labour tool & accessory.png,stimuli/Kitchen & utensil.png,1,1,3,stimuli/m2.jpg,Electronic device & accessory,stimuli/objects/phonejack.jpg,7,2021-04-18_15h32.44.031,premceCat2_ses-02_part-01_label-phase1,2020.2.9,Win32,60,1,1,0.64,0,23,23,23,1,,,,,,
1,"[1,1,1,1,1,1,1,1,1,1,0,1,1,1,1,1,1,1,0,1,1,1,1,1,1,0,1,1,1,0,1,0,1,1,0,1,0,1,0,0,1,1,1,1,0,1,0,1,0,0,1,1,1,0,1]",,,,,,,,,,1,,,,,,stimuli/m2.jpg,stimuli/m5.jpg,2,stimuli/Outdoor activity & sport item.png,stimuli/Electronic device & accessory.png,stimuli/Hand labour tool & accessory.png,stimuli/Kitchen & utensil.png,4,1,3,stimuli/m5.jpg,Kitchen & utensil,stimuli/objects/dishrack.jpg,7,2021-04-18_15h32.44.031,premceCat2_ses-02_part-01_label-phase1,2020.2.9,Win32,60,4,1,1.541,0,24,24,24,1,,,,,,
1,"[1,1,1,1,1,1,1,1,1,1,0,1,1,1,1,1,1,1,0,1,1,1,1,1,1,0,1,1,1,0,1,0,1,1,0,1,0,1,0,0,1,1,1,1,0,1,0,1,0,0,1,1,1,0,1,1]",,,,,,,,,,1,,,,,,stimuli/m2.jpg,stimuli/m5.jpg,1,stimuli/Outdoor activity & sport item.png,stimuli/Electronic device & accessory.png,stimuli/Kitchen & utensil.png,stimuli/Hand labour tool & accessory.png,3,0,3,stimuli/m2.jpg,Kitchen & utensil,stimuli/objects/fryingpan02a.jpg,7,2021-04-18_15h32.44.031,premceCat2_ses-02_part-01_label-phase1,2020.2.9,Win32,60,3,1,3.038,0,25,25,25,1,,,,,,
0,"[1,1,1,1,1,1,1,1,1,1,0,1,1,1,1,1,1,1,0,1,1,1,1,1,1,0,1,1,1,0,1,0,1,1,0,1,0,1,0,0,1,1,1,1,0,1,0,1,0,0,1,1,1,0,1,1]",,,,,,,,,,0,,,,,,stimuli/m2.jpg,stimuli/m5.jpg,1,stimuli/Outdoor activity & sport item.png,stimuli/Electronic device & accessory.png,stimuli/Hand labour tool & accessory.png,stimuli/Kitchen & utensil.png,2,1,3,stimuli/m2.jpg,Electronic device & accessory,stimuli/objects/fanblades.jpg,7,2021-04-18_15h32.44.031,premceCat2_ses-02_part-01_label-phase1,2020.2.9,Win32,60,4,0,1.398,0,26,26,26,1,,,,,,
1,"[1,1,1,1,1,1,1,1,1,1,0,1,1,1,1,1,1,1,0,1,1,1,1,1,1,0,1,1,1,0,1,0,1,1,0,1,0,1,0,0,1,1,1,1,0,1,0,1,0,0,1,1,1,0,1,1,0]",,,,,,,,,,1,,,,,,stimuli/m2.jpg,stimuli/m5.jpg,1,stimuli/Hand labour tool & accessory.png,stimuli/Outdoor activity & sport item.png,stimuli/Kitchen & utensil.png,stimuli/Electronic device & accessory.png,4,1,3,stimuli/m2.jpg,Electronic device & accessory,stimuli/objects/chandelier.jpg,7,2021-04-18_15h32.44.031,premceCat2_ses-02_part-01_label-phase1,2020.2.9,Win32,60,4,1,1.286,0,27,27,27,1,,,,,,
0,"[1,1,1,1,1,1,1,1,1,1,0,1,1,1,1,1,1,1,0,1,1,1,1,1,1,0,1,1,1,0,1,0,1,1,0,1,0,1,0,0,1,1,1,1,0,1,0,1,0,0,1,1,1,0,1,1,0,1]",,,,,,,,,,1,,,,,,stimuli/m5.jpg,stimuli/m2.jpg,1,stimuli/Outdoor activity & sport item.png,stimuli/Electronic device & accessory.png,stimuli/Kitchen & utensil.png,stimuli/Hand labour tool & accessory.png,4,0,3,stimuli/m5.jpg,Hand labour tool & accessory,stimuli/objects/drill01b.jpg,7,2021-04-18_15h32.44.031,premceCat2_ses-02_part-01_label-phase1,2020.2.9,Win32,60,3,0,1.048,0,28,28,28,1,,,,,,
0,"[1,1,1,1,1,1,1,1,1,1,0,1,1,1,1,1,1,1,0,1,1,1,1,1,1,0,1,1,1,0,1,0,1,1,0,1,0,1,0,0,1,1,1,1,0,1,0,1,0,0,1,1,1,0,1,1,0,1]",,,,,,,,,,1,,,,,,stimuli/m5.jpg,stimuli/m2.jpg,1,stimuli/Hand labour tool & accessory.png,stimuli/Electronic device & accessory.png,stimuli/Kitchen & utensil.png,stimuli/Outdoor activity & sport item.png,4,0,3,stimuli/m5.jpg,Outdoor activity & sport item,stimuli/objects/outdoorheater.jpg,7,2021-04-18_15h32.44.031,premceCat2_ses-02_part-01_label-phase1,2020.2.9,Win32,60,2,0,1.937,0,29,29,29,1,,,,,,
0,"[1,1,1,1,1,1,1,1,1,1,0,1,1,1,1,1,1,1,0,1,1,1,1,1,1,0,1,1,1,0,1,0,1,1,0,1,0,1,0,0,1,1,1,1,0,1,0,1,0,0,1,1,1,0,1,1,0,1]",,,,,,,,,,0,,,,,,stimuli/m2.jpg,stimuli/m5.jpg,2,stimuli/Electronic device & accessory.png,stimuli/Outdoor activity & sport item.png,stimuli/Kitchen & utensil.png,stimuli/Hand labour tool & accessory.png,3,1,3,stimuli/m5.jpg,Kitchen & utensil,stimuli/objects/tupperware03a.jpg,7,2021-04-18_15h32.44.031,premceCat2_ses-02_part-01_label-phase1,2020.2.9,Win32,60,2,0,1.643,0,30,30,30,1,,,,,,
1,"[1,1,1,1,1,1,1,1,1,1,0,1,1,1,1,1,1,1,0,1,1,1,1,1,1,0,1,1,1,0,1,0,1,1,0,1,0,1,0,0,1,1,1,1,0,1,0,1,0,0,1,1,1,0,1,1,0,1,0]",,,,,,,,,,1,,,,,,stimuli/m2.jpg,stimuli/m5.jpg,1,stimuli/Electronic device & accessory.png,stimuli/Kitchen & utensil.png,stimuli/Outdoor activity & sport item.png,stimuli/Hand labour tool & accessory.png,1,1,3,stimuli/m2.jpg,Electronic device & accessory,stimuli/objects/scanner.jpg,7,2021-04-18_15h32.44.031,premceCat2_ses-02_part-01_label-phase1,2020.2.9,Win32,60,1,1,2.2,0,31,31,31,1,,,,,,
0,"[1,1,1,1,1,1,1,1,1,1,0,1,1,1,1,1,1,1,0,1,1,1,1,1,1,0,1,1,1,0,1,0,1,1,0,1,0,1,0,0,1,1,1,1,0,1,0,1,0,0,1,1,1,0,1,1,0,1,0,1]",,,,,,,,,,1,,,,,,stimuli/m5.jpg,stimuli/m2.jpg,1,stimuli/Kitchen & utensil.png,stimuli/Outdoor activity & sport item.png,stimuli/Hand labour tool & accessory.png,stimuli/Electronic device & accessory.png,4,0,3,stimuli/m5.jpg,Electronic device & accessory,stimuli/objects/lightbulb01.jpg,7,2021-04-18_15h32.44.031,premceCat2_ses-02_part-01_label-phase1,2020.2.9,Win32,60,3,0,2.32,0,32,32,32,1,,,,,,
0,"[1,1,1,1,1,1,1,1,1,1,0,1,1,1,1,1,1,1,0,1,1,1,1,1,1,0,1,1,1,0,1,0,1,1,0,1,0,1,0,0,1,1,1,1,0,1,0,1,0,0,1,1,1,0,1,1,0,1,0,1]",,,,,,,,,,0,,,,,,stimuli/m5.jpg,stimuli/m2.jpg,1,stimuli/Kitchen & utensil.png,stimuli/Electronic device & accessory.png,stimuli/Outdoor activity & sport item.png,stimuli/Hand labour tool & accessory.png,1,1,3,stimuli/m5.jpg,Kitchen & utensil,stimuli/objects/saladspinner.jpg,7,2021-04-18_15h32.44.031,premceCat2_ses-02_part-01_label-phase1,2020.2.9,Win32,60,2,0,1.058,0,33,33,33,1,,,,,,
1,"[1,1,1,1,1,1,1,1,1,1,0,1,1,1,1,1,1,1,0,1,1,1,1,1,1,0,1,1,1,0,1,0,1,1,0,1,0,1,0,0,1,1,1,1,0,1,0,1,0,0,1,1,1,0,1,1,0,1,0,1,0]",,,,,,,,,,1,,,,,,stimuli/m2.jpg,stimuli/m5.jpg,2,stimuli/Outdoor activity & sport item.png,stimuli/Kitchen & utensil.png,stimuli/Electronic device & accessory.png,stimuli/Hand labour tool & accessory.png,2,1,3,stimuli/m5.jpg,Kitchen & utensil,stimuli/objects/cleaver01.jpg,7,2021-04-18_15h32.44.031,premceCat2_ses-02_part-01_label-phase1,2020.2.9,Win32,60,2,1,1.095,0,34,34,34,1,,,,,,
1,"[1,1,1,1,1,1,1,1,1,1,0,1,1,1,1,1,1,1,0,1,1,1,1,1,1,0,1,1,1,0,1,0,1,1,0,1,0,1,0,0,1,1,1,1,0,1,0,1,0,0,1,1,1,0,1,1,0,1,0,1,0,1]",,,,,,,,,,1,,,,,,stimuli/m5.jpg,stimuli/m2.jpg,2,stimuli/Electronic device & accessory.png,stimuli/Kitchen & utensil.png,stimuli/Outdoor activity & sport item.png,stimuli/Hand labour tool & accessory.png,1,1,3,stimuli/m2.jpg,Electronic device & accessory,stimuli/objects/dvdcase01.jpg,7,2021-04-18_15h32.44.031,premceCat2_ses-02_part-01_label-phase1,2020.2.9,Win32,60,1,1,0.718,0,35,35,35,1,,,,,,
0,"[1,1,1,1,1,1,1,1,1,1,0,1,1,1,1,1,1,1,0,1,1,1,1,1,1,0,1,1,1,0,1,0,1,1,0,1,0,1,0,0,1,1,1,1,0,1,0,1,0,0,1,1,1,0,1,1,0,1,0,1,0,1,1]",,,,,,,,,,0,,,,,,stimuli/m5.jpg,stimuli/m2.jpg,1,stimuli/Outdoor activity & sport item.png,stimuli/Kitchen & utensil.png,stimuli/Hand labour tool & accessory.png,stimuli/Electronic device & accessory.png,2,1,3,stimuli/m5.jpg,Kitchen & utensil,stimuli/objects/cork02.jpg,7,2021-04-18_15h32.44.031,premceCat2_ses-02_part-01_label-phase1,2020.2.9,Win32,60,4,0,2.102,0,36,36,36,1,,,,,,
1,"[1,1,1,1,1,1,1,1,1,1,0,1,1,1,1,1,1,1,0,1,1,1,1,1,1,0,1,1,1,0,1,0,1,1,0,1,0,1,0,0,1,1,1,1,0,1,0,1,0,0,1,1,1,0,1,1,0,1,0,1,0,1,1,0]",,,,,,,,,,1,,,,,,stimuli/m2.jpg,stimuli/m5.jpg,2,stimuli/Outdoor activity & sport item.png,stimuli/Electronic device & accessory.png,stimuli/Kitchen & utensil.png,stimuli/Hand labour tool & accessory.png,3,1,3,stimuli/m5.jpg,Kitchen & utensil,stimuli/objects/contactlens.jpg,7,2021-04-18_15h32.44.031,premceCat2_ses-02_part-01_label-phase1,2020.2.9,Win32,60,3,1,1.235,0,37,37,37,1,,,,,,
1,"[1,1,1,1,1,1,1,1,1,1,0,1,1,1,1,1,1,1,0,1,1,1,1,1,1,0,1,1,1,0,1,0,1,1,0,1,0,1,0,0,1,1,1,1,0,1,0,1,0,0,1,1,1,0,1,1,0,1,0,1,0,1,1,0,1]",,,,,,,,,,1,,,,,,stimuli/m2.jpg,stimuli/m5.jpg,2,stimuli/Hand labour tool & accessory.png,stimuli/Electronic device & accessory.png,stimuli/Outdoor activity & sport item.png,stimuli/Kitchen & utensil.png,4,1,3,stimuli/m5.jpg,Kitchen & utensil,stimuli/objects/martiniglass01b.jpg,7,2021-04-18_15h32.44.031,premceCat2_ses-02_part-01_label-phase1,2020.2.9,Win32,60,4,1,1.335,0,38,38,38,1,,,,,,
1,"[1,1,1,1,1,1,1,1,1,1,0,1,1,1,1,1,1,1,0,1,1,1,1,1,1,0,1,1,1,0,1,0,1,1,0,1,0,1,0,0,1,1,1,1,0,1,0,1,0,0,1,1,1,0,1,1,0,1,0,1,0,1,1,0,1,1]",,,,,,,,,,1,,,,,,stimuli/m2.jpg,stimuli/m5.jpg,2,stimuli/Outdoor activity & sport item.png,stimuli/Kitchen & utensil.png,stimuli/Hand labour tool & accessory.png,stimuli/Electronic device & accessory.png,2,1,3,stimuli/m5.jpg,Kitchen & utensil,stimuli/objects/toothpick02.jpg,7,2021-04-18_15h32.44.031,premceCat2_ses-02_part-01_label-phase1,2020.2.9,Win32,60,2,1,1.018,0,39,39,39,1,,,,,,
0,"[1,1,1,1,1,1,1,1,1,1,0,1,1,1,1,1,1,1,0,1,1,1,1,1,1,0,1,1,1,0,1,0,1,1,0,1,0,1,0,0,1,1,1,1,0,1,0,1,0,0,1,1,1,0,1,1,0,1,0,1,0,1,1,0,1,1,1]",,,,,,,,,,1,,,,,,stimuli/m5.jpg,stimuli/m2.jpg,1,stimuli/Electronic device & accessory.png,stimuli/Hand labour tool & accessory.png,stimuli/Kitchen & utensil.png,stimuli/Outdoor activity & sport item.png,2,0,3,stimuli/m5.jpg,Hand labour tool & accessory,stimuli/objects/saw02b.jpg,7,2021-04-18_15h32.44.031,premceCat2_ses-02_part-01_label-phase1,2020.2.9,Win32,60,3,0,1.009,0,40,40,40,1,,,,,,
1,"[1,1,1,1,1,1,1,1,1,1,0,1,1,1,1,1,1,1,0,1,1,1,1,1,1,0,1,1,1,0,1,0,1,1,0,1,0,1,0,0,1,1,1,1,0,1,0,1,0,0,1,1,1,0,1,1,0,1,0,1,0,1,1,0,1,1,1]",,,,,,,,,,1,,,,,,stimuli/m2.jpg,stimuli/m5.jpg,1,stimuli/Kitchen & utensil.png,stimuli/Outdoor activity & sport item.png,stimuli/Electronic device & accessory.png,stimuli/Hand labour tool & accessory.png,3,1,3,stimuli/m2.jpg,Electronic device & accessory,stimuli/objects/videocamera01a.jpg,7,2021-04-18_15h32.44.031,premceCat2_ses-02_part-01_label-phase1,2020.2.9,Win32,60,3,1,2.228,0,41,41,41,1,,,,,,
1,"[1,1,1,1,1,1,1,1,1,1,0,1,1,1,1,1,1,1,0,1,1,1,1,1,1,0,1,1,1,0,1,0,1,1,0,1,0,1,0,0,1,1,1,1,0,1,0,1,0,0,1,1,1,0,1,1,0,1,0,1,0,1,1,0,1,1,1,1]",,,,,,,,,,1,,,,,,stimuli/m5.jpg,stimuli/m2.jpg,2,stimuli/Outdoor activity & sport item.png,stimuli/Hand labour tool & accessory.png,stimuli/Kitchen & utensil.png,stimuli/Electronic device & accessory.png,4,1,3,stimuli/m2.jpg,Electronic device & accessory,stimuli/objects/computerkeyboard02.jpg,7,2021-04-18_15h32.44.031,premceCat2_ses-02_part-01_label-phase1,2020.2.9,Win32,60,4,1,1.37,0,42,42,42,1,,,,,,
1,"[1,1,1,1,1,1,1,1,1,1,0,1,1,1,1,1,1,1,0,1,1,1,1,1,1,0,1,1,1,0,1,0,1,1,0,1,0,1,0,0,1,1,1,1,0,1,0,1,0,0,1,1,1,0,1,1,0,1,0,1,0,1,1,0,1,1,1,1,1]",,,,,,,,,,1,,,,,,stimuli/m5.jpg,stimuli/m2.jpg,2,stimuli/Electronic device & accessory.png,stimuli/Outdoor activity & sport item.png,stimuli/Hand labour tool & accessory.png,stimuli/Kitchen & utensil.png,1,1,3,stimuli/m2.jpg,Electronic device & accessory,stimuli/objects/coffeemachine.jpg,7,2021-04-18_15h32.44.031,premceCat2_ses-02_part-01_label-phase1,2020.2.9,Win32,60,1,1,1.608,0,43,43,43,1,,,,,,
0,"[1,1,1,1,1,1,1,1,1,1,0,1,1,1,1,1,1,1,0,1,1,1,1,1,1,0,1,1,1,0,1,0,1,1,0,1,0,1,0,0,1,1,1,1,0,1,0,1,0,0,1,1,1,0,1,1,0,1,0,1,0,1,1,0,1,1,1,1,1,1]",,,,,,,,,,0,,,,,,stimuli/m2.jpg,stimuli/m5.jpg,2,stimuli/Electronic device & accessory.png,stimuli/Kitchen & utensil.png,stimuli/Hand labour tool & accessory.png,stimuli/Outdoor activity & sport item.png,2,1,3,stimuli/m5.jpg,Kitchen & utensil,stimuli/objects/thermos.jpg,7,2021-04-18_15h32.44.031,premceCat2_ses-02_part-01_label-phase1,2020.2.9,Win32,60,3,0,3.82,0,44,44,44,1,,,,,,
0,"[1,1,1,1,1,1,1,1,1,1,0,1,1,1,1,1,1,1,0,1,1,1,1,1,1,0,1,1,1,0,1,0,1,1,0,1,0,1,0,0,1,1,1,1,0,1,0,1,0,0,1,1,1,0,1,1,0,1,0,1,0,1,1,0,1,1,1,1,1,1,0]",,,,,,,,,,0,,,,,,stimuli/m5.jpg,stimuli/m2.jpg,2,stimuli/Hand labour tool & accessory.png,stimuli/Outdoor activity & sport item.png,stimuli/Kitchen & utensil.png,stimuli/Electronic device & accessory.png,3,0,3,stimuli/m2.jpg,Kitchen & utensil,stimuli/objects/woodenspoon.jpg,7,2021-04-18_15h32.44.031,premceCat2_ses-02_part-01_label-phase1,2020.2.9,Win32,60,4,0,1.985,0,45,45,45,1,,,,,,
0,"[1,1,1,1,1,1,1,1,1,1,0,1,1,1,1,1,1,1,0,1,1,1,1,1,1,0,1,1,1,0,1,0,1,1,0,1,0,1,0,0,1,1,1,1,0,1,0,1,0,0,1,1,1,0,1,1,0,1,0,1,0,1,1,0,1,1,1,1,1,1,0]",,,,,,,,,,0,,,,,,stimuli/m5.jpg,stimuli/m2.jpg,2,stimuli/Kitchen & utensil.png,stimuli/Electronic device & accessory.png,stimuli/Outdoor activity & sport item.png,stimuli/Hand labour tool & accessory.png,3,0,3,stimuli/m2.jpg,Outdoor activity & sport item,stimuli/objects/poolnet.jpg,7,2021-04-18_15h32.44.031,premceCat2_ses-02_part-01_label-phase1,2020.2.9,Win32,60,1,0,0.635,0,46,46,46,1,,,,,,
0,"[1,1,1,1,1,1,1,1,1,1,0,1,1,1,1,1,1,1,0,1,1,1,1,1,1,0,1,1,1,0,1,0,1,1,0,1,0,1,0,0,1,1,1,1,0,1,0,1,0,0,1,1,1,0,1,1,0,1,0,1,0,1,1,0,1,1,1,1,1,1,0]",,,,,,,,,,0,,,,,,stimuli/m2.jpg,stimuli/m5.jpg,1,stimuli/Hand labour tool & accessory.png,stimuli/Outdoor activity & sport item.png,stimuli/Electronic device & accessory.png,stimuli/Kitchen & utensil.png,3,1,3,stimuli/m2.jpg,Electronic device & accessory,stimuli/objects/fan.jpg,7,2021-04-18_15h32.44.031,premceCat2_ses-02_part-01_label-phase1,2020.2.9,Win32,60,1,0,3.025,0,47,47,47,1,,,,,,
,,,,,,,,,,,,,,,,,,,,,,,,,,,,,,7,2021-04-18_15h32.44.031,premceCat2_ses-02_part-01_label-phase1,2020.2.9,Win32,60,,,,,,,,,0,1,1,1,1,condition_files/tasklistB4.csv
0,"[1,1,1,1,1,1,1,1,1,1,0,1,1,1,1,1,1,1,0,1,1,1,1,1,1,0,1,1,1,0,1,0,1,1,0,1,0,1,0,0,1,1,1,1,0,1,0,1,0,0,1,1,1,0,1,1,0,1,0,1,0,1,1,0,1,1,1,1,1,1,0,0]",,,,,,,,,,0,,,,,,stimuli/m5.jpg,stimuli/m2.jpg,1,stimuli/Electronic device & accessory.png,stimuli/Outdoor activity & sport item.png,stimuli/Kitchen & utensil.png,stimuli/Hand labour tool & accessory.png,2,0,4,stimuli/m5.jpg,Outdoor activity & sport item,stimuli/objects/magneticcompass.jpg,7,2021-04-18_15h32.44.031,premceCat2_ses-02_part-01_label-phase1,2020.2.9,Win32,60,3,0,3.214,0,0,0,0,1,,,,,,
1,"[1,1,1,1,1,1,1,1,1,1,0,1,1,1,1,1,1,1,0,1,1,1,1,1,1,0,1,1,1,0,1,0,1,1,0,1,0,1,0,0,1,1,1,1,0,1,0,1,0,0,1,1,1,0,1,1,0,1,0,1,0,1,1,0,1,1,1,1,1,1,0,0]",,,,,,,,,,1,,,,,,stimuli/m5.jpg,stimuli/m2.jpg,2,stimuli/Outdoor activity & sport item.png,stimuli/Electronic device & accessory.png,stimuli/Kitchen & utensil.png,stimuli/Hand labour tool & accessory.png,3,1,4,stimuli/m2.jpg,Kitchen & utensil,stimuli/objects/spicerack.jpg,7,2021-04-18_15h32.44.031,premceCat2_ses-02_part-01_label-phase1,2020.2.9,Win32,60,3,1,1.004,0,1,1,1,1,,,,,,
1,"[1,1,1,1,1,1,1,1,1,1,0,1,1,1,1,1,1,1,0,1,1,1,1,1,1,0,1,1,1,0,1,0,1,1,0,1,0,1,0,0,1,1,1,1,0,1,0,1,0,0,1,1,1,0,1,1,0,1,0,1,0,1,1,0,1,1,1,1,1,1,0,0,1]",,,,,,,,,,1,,,,,,stimuli/m2.jpg,stimuli/m5.jpg,1,stimuli/Hand labour tool & accessory.png,stimuli/Electronic device & accessory.png,stimuli/Outdoor activity & sport item.png,stimuli/Kitchen & utensil.png,4,1,4,stimuli/m2.jpg,Kitchen & utensil,stimuli/objects/towel01.jpg,7,2021-04-18_15h32.44.031,premceCat2_ses-02_part-01_label-phase1,2020.2.9,Win32,60,4,1,1.252,0,2,2,2,1,,,,,,
1,"[1,1,1,1,1,1,1,1,1,1,0,1,1,1,1,1,1,1,0,1,1,1,1,1,1,0,1,1,1,0,1,0,1,1,0,1,0,1,0,0,1,1,1,1,0,1,0,1,0,0,1,1,1,0,1,1,0,1,0,1,0,1,1,0,1,1,1,1,1,1,0,0,1,1]",,,,,,,,,,1,,,,,,stimuli/m5.jpg,stimuli/m2.jpg,2,stimuli/Hand labour tool & accessory.png,stimuli/Kitchen & utensil.png,stimuli/Electronic device & accessory.png,stimuli/Outdoor activity & sport item.png,2,1,4,stimuli/m2.jpg,Kitchen & utensil,stimuli/objects/shotglass.jpg,7,2021-04-18_15h32.44.031,premceCat2_ses-02_part-01_label-phase1,2020.2.9,Win32,60,2,1,0.956,0,3,3,3,1,,,,,,
1,"[1,1,1,1,1,1,1,1,1,1,0,1,1,1,1,1,1,1,0,1,1,1,1,1,1,0,1,1,1,0,1,0,1,1,0,1,0,1,0,0,1,1,1,1,0,1,0,1,0,0,1,1,1,0,1,1,0,1,0,1,0,1,1,0,1,1,1,1,1,1,0,0,1,1,1]",,,,,,,,,,1,,,,,,stimuli/m2.jpg,stimuli/m5.jpg,1,stimuli/Kitchen & utensil.png,stimuli/Hand labour tool & accessory.png,stimuli/Electronic device & accessory.png,stimuli/Outdoor activity & sport item.png,1,1,4,stimuli/m2.jpg,Kitchen & utensil,stimuli/objects/servingspoon01.jpg,7,2021-04-18_15h32.44.031,premceCat2_ses-02_part-01_label-phase1,2020.2.9,Win32,60,1,1,1.533,0,4,4,4,1,,,,,,
0,"[1,1,1,1,1,1,1,1,1,1,0,1,1,1,1,1,1,1,0,1,1,1,1,1,1,0,1,1,1,0,1,0,1,1,0,1,0,1,0,0,1,1,1,1,0,1,0,1,0,0,1,1,1,0,1,1,0,1,0,1,0,1,1,0,1,1,1,1,1,1,0,0,1,1,1,1]",,,,,,,,,,0,,,,,,stimuli/m5.jpg,stimuli/m2.jpg,1,stimuli/Kitchen & utensil.png,stimuli/Outdoor activity & sport item.png,stimuli/Hand labour tool & accessory.png,stimuli/Electronic device & accessory.png,3,1,4,stimuli/m5.jpg,Hand labour tool & accessory,stimuli/objects/boltcutter.jpg,7,2021-04-18_15h32.44.031,premceCat2_ses-02_part-01_label-phase1,2020.2.9,Win32,60,4,0,1.53,0,5,5,5,1,,,,,,
1,"[1,1,1,1,1,1,1,1,1,1,0,1,1,1,1,1,1,1,0,1,1,1,1,1,1,0,1,1,1,0,1,0,1,1,0,1,0,1,0,0,1,1,1,1,0,1,0,1,0,0,1,1,1,0,1,1,0,1,0,1,0,1,1,0,1,1,1,1,1,1,0,0,1,1,1,1,0]",,,,,,,,,,1,,,,,,stimuli/m2.jpg,stimuli/m5.jpg,2,stimuli/Outdoor activity & sport item.png,stimuli/Hand labour tool & accessory.png,stimuli/Electronic device & accessory.png,stimuli/Kitchen & utensil.png,2,1,4,stimuli/m5.jpg,Hand labour tool & accessory,stimuli/objects/aircompressor.jpg,7,2021-04-18_15h32.44.031,premceCat2_ses-02_part-01_label-phase1,2020.2.9,Win32,60,2,1,0.638,0,6,6,6,1,,,,,,
0,"[1,1,1,1,1,1,1,1,1,1,0,1,1,1,1,1,1,1,0,1,1,1,1,1,1,0,1,1,1,0,1,0,1,1,0,1,0,1,0,0,1,1,1,1,0,1,0,1,0,0,1,1,1,0,1,1,0,1,0,1,0,1,1,0,1,1,1,1,1,1,0,0,1,1,1,1,0,1]",,,,,,,,,,1,,,,,,stimuli/m2.jpg,stimuli/m5.jpg,2,stimuli/Electronic device & accessory.png,stimuli/Outdoor activity & sport item.png,stimuli/Kitchen & utensil.png,stimuli/Hand labour tool & accessory.png,1,0,4,stimuli/m5.jpg,Electronic device & accessory,stimuli/objects/ipod.jpg,7,2021-04-18_15h32.44.031,premceCat2_ses-02_part-01_label-phase1,2020.2.9,Win32,60,4,0,1.052,0,7,7,7,1,,,,,,
1,"[1,1,1,1,1,1,1,1,1,1,0,1,1,1,1,1,1,1,0,1,1,1,1,1,1,0,1,1,1,0,1,0,1,1,0,1,0,1,0,0,1,1,1,1,0,1,0,1,0,0,1,1,1,0,1,1,0,1,0,1,0,1,1,0,1,1,1,1,1,1,0,0,1,1,1,1,0,1]",,,,,,,,,,1,,,,,,stimuli/m2.jpg,stimuli/m5.jpg,1,stimuli/Hand labour tool & accessory.png,stimuli/Electronic device & accessory.png,stimuli/Kitchen & utensil.png,stimuli/Outdoor activity & sport item.png,3,1,4,stimuli/m2.jpg,Kitchen & utensil,stimuli/objects/aluminiumfoil.jpg,7,2021-04-18_15h32.44.031,premceCat2_ses-02_part-01_label-phase1,2020.2.9,Win32,60,3,1,1.068,0,8,8,8,1,,,,,,
0,"[1,1,1,1,1,1,1,1,1,1,0,1,1,1,1,1,1,1,0,1,1,1,1,1,1,0,1,1,1,0,1,0,1,1,0,1,0,1,0,0,1,1,1,1,0,1,0,1,0,0,1,1,1,0,1,1,0,1,0,1,0,1,1,0,1,1,1,1,1,1,0,0,1,1,1,1,0,1,1]",,,,,,,,,,1,,,,,,stimuli/m2.jpg,stimuli/m5.jpg,1,stimuli/Outdoor activity & sport item.png,stimuli/Hand labour tool & accessory.png,stimuli/Electronic device & accessory.png,stimuli/Kitchen & utensil.png,3,0,4,stimuli/m2.jpg,Electronic device & accessory,stimuli/objects/cellphone.jpg,7,2021-04-18_15h32.44.031,premceCat2_ses-02_part-01_label-phase1,2020.2.9,Win32,60,4,0,1.211,0,9,9,9,1,,,,,,
0,"[1,1,1,1,1,1,1,1,1,1,0,1,1,1,1,1,1,1,0,1,1,1,1,1,1,0,1,1,1,0,1,0,1,1,0,1,0,1,0,0,1,1,1,1,0,1,0,1,0,0,1,1,1,0,1,1,0,1,0,1,0,1,1,0,1,1,1,1,1,1,0,0,1,1,1,1,0,1,1]",,,,,,,,,,0,,,,,,stimuli/m2.jpg,stimuli/m5.jpg,1,stimuli/Electronic device & accessory.png,stimuli/Kitchen & utensil.png,stimuli/Hand labour tool & accessory.png,stimuli/Outdoor activity & sport item.png,2,1,4,stimuli/m2.jpg,Kitchen & utensil,stimuli/objects/butterknife.jpg,7,2021-04-18_15h32.44.031,premceCat2_ses-02_part-01_label-phase1,2020.2.9,Win32,60,1,0,0.67,0,10,10,10,1,,,,,,
0,"[1,1,1,1,1,1,1,1,1,1,0,1,1,1,1,1,1,1,0,1,1,1,1,1,1,0,1,1,1,0,1,0,1,1,0,1,0,1,0,0,1,1,1,1,0,1,0,1,0,0,1,1,1,0,1,1,0,1,0,1,0,1,1,0,1,1,1,1,1,1,0,0,1,1,1,1,0,1,1,0]",,,,,,,,,,0,,,,,,stimuli/m5.jpg,stimuli/m2.jpg,1,stimuli/Outdoor activity & sport item.png,stimuli/Electronic device & accessory.png,stimuli/Kitchen & utensil.png,stimuli/Hand labour tool & accessory.png,4,1,4,stimuli/m5.jpg,Hand labour tool & accessory,stimuli/objects/gardenshears01a.jpg,7,2021-04-18_15h32.44.031,premceCat2_ses-02_part-01_label-phase1,2020.2.9,Win32,60,3,0,1.907,0,11,11,11,1,,,,,,
1,"[1,1,1,1,1,1,1,1,1,1,0,1,1,1,1,1,1,1,0,1,1,1,1,1,1,0,1,1,1,0,1,0,1,1,0,1,0,1,0,0,1,1,1,1,0,1,0,1,0,0,1,1,1,0,1,1,0,1,0,1,0,1,1,0,1,1,1,1,1,1,0,0,1,1,1,1,0,1,1,0,0]",,,,,,,,,,1,,,,,,stimuli/m2.jpg,stimuli/m5.jpg,2,stimuli/Kitchen & utensil.png,stimuli/Electronic device & accessory.png,stimuli/Outdoor activity & sport item.png,stimuli/Hand labour tool & accessory.png,4,1,4,stimuli/m5.jpg,Hand labour tool & accessory,stimuli/objects/metalbrush.jpg,7,2021-04-18_15h32.44.031,premceCat2_ses-02_part-01_label-phase1,2020.2.9,Win32,60,4,1,1.157,0,12,12,12,1,,,,,,
1,"[1,1,1,1,1,1,1,1,1,1,0,1,1,1,1,1,1,1,0,1,1,1,1,1,1,0,1,1,1,0,1,0,1,1,0,1,0,1,0,0,1,1,1,1,0,1,0,1,0,0,1,1,1,0,1,1,0,1,0,1,0,1,1,0,1,1,1,1,1,1,0,0,1,1,1,1,0,1,1,0,0,1]",,,,,,,,,,1,,,,,,stimuli/m2.jpg,stimuli/m5.jpg,2,stimuli/Outdoor activity & sport item.png,stimuli/Electronic device & accessory.png,stimuli/Hand labour tool & accessory.png,stimuli/Kitchen & utensil.png,3,1,4,stimuli/m5.jpg,Hand labour tool & accessory,stimuli/objects/puttyknife.jpg,7,2021-04-18_15h32.44.031,premceCat2_ses-02_part-01_label-phase1,2020.2.9,Win32,60,3,1,1.035,0,13,13,13,1,,,,,,
0,"[1,1,1,1,1,1,1,1,1,1,0,1,1,1,1,1,1,1,0,1,1,1,1,1,1,0,1,1,1,0,1,0,1,1,0,1,0,1,0,0,1,1,1,1,0,1,0,1,0,0,1,1,1,0,1,1,0,1,0,1,0,1,1,0,1,1,1,1,1,1,0,0,1,1,1,1,0,1,1,0,0,1,1]",,,,,,,,,,1,,,,,,stimuli/m2.jpg,stimuli/m5.jpg,1,stimuli/Electronic device & accessory.png,stimuli/Hand labour tool & accessory.png,stimuli/Kitchen & utensil.png,stimuli/Outdoor activity & sport item.png,2,0,4,stimuli/m2.jpg,Hand labour tool & accessory,stimuli/objects/adjustablewrench01b.jpg,7,2021-04-18_15h32.44.031,premceCat2_ses-02_part-01_label-phase1,2020.2.9,Win32,60,3,0,1.092,0,14,14,14,1,,,,,,
0,"[1,1,1,1,1,1,1,1,1,1,0,1,1,1,1,1,1,1,0,1,1,1,1,1,1,0,1,1,1,0,1,0,1,1,0,1,0,1,0,0,1,1,1,1,0,1,0,1,0,0,1,1,1,0,1,1,0,1,0,1,0,1,1,0,1,1,1,1,1,1,0,0,1,1,1,1,0,1,1,0,0,1,1]",,,,,,,,,,1,,,,,,stimuli/m2.jpg,stimuli/m5.jpg,2,stimuli/Kitchen & utensil.png,stimuli/Outdoor activity & sport item.png,stimuli/Hand labour tool & accessory.png,stimuli/Electronic device & accessory.png,2,0,4,stimuli/m5.jpg,Outdoor activity & sport item,stimuli/objects/hockeygoaliepad.jpg,7,2021-04-18_15h32.44.031,premceCat2_ses-02_part-01_label-phase1,2020.2.9,Win32,60,3,0,0.942,0,15,15,15,1,,,,,,
1,"[1,1,1,1,1,1,1,1,1,1,0,1,1,1,1,1,1,1,0,1,1,1,1,1,1,0,1,1,1,0,1,0,1,1,0,1,0,1,0,0,1,1,1,1,0,1,0,1,0,0,1,1,1,0,1,1,0,1,0,1,0,1,1,0,1,1,1,1,1,1,0,0,1,1,1,1,0,1,1,0,0,1,1]",,,,,,,,,,1,,,,,,stimuli/m2.jpg,stimuli/m5.jpg,2,stimuli/Hand labour tool & accessory.png,stimuli/Electronic device & accessory.png,stimuli/Outdoor activity & sport item.png,stimuli/Kitchen & utensil.png,1,1,4,stimuli/m5.jpg,Hand labour tool & accessory,stimuli/objects/lawnmower.jpg,7,2021-04-18_15h32.44.031,premceCat2_ses-02_part-01_label-phase1,2020.2.9,Win32,60,1,1,1.873,0,16,16,16,1,,,,,,
0,"[1,1,1,1,1,1,1,1,1,1,0,1,1,1,1,1,1,1,0,1,1,1,1,1,1,0,1,1,1,0,1,0,1,1,0,1,0,1,0,0,1,1,1,1,0,1,0,1,0,0,1,1,1,0,1,1,0,1,0,1,0,1,1,0,1,1,1,1,1,1,0,0,1,1,1,1,0,1,1,0,0,1,1,1]",,,,,,,,,,1,,,,,,stimuli/m5.jpg,stimuli/m2.jpg,1,stimuli/Hand labour tool & accessory.png,stimuli/Kitchen & utensil.png,stimuli/Outdoor activity & sport item.png,stimuli/Electronic device & accessory.png,2,0,4,stimuli/m5.jpg,Kitchen & utensil,stimuli/objects/muffintray01.jpg,7,2021-04-18_15h32.44.031,premceCat2_ses-02_part-01_label-phase1,2020.2.9,Win32,60,4,0,2.832,0,17,17,17,1,,,,,,
0,"[1,1,1,1,1,1,1,1,1,1,0,1,1,1,1,1,1,1,0,1,1,1,1,1,1,0,1,1,1,0,1,0,1,1,0,1,0,1,0,0,1,1,1,1,0,1,0,1,0,0,1,1,1,0,1,1,0,1,0,1,0,1,1,0,1,1,1,1,1,1,0,0,1,1,1,1,0,1,1,0,0,1,1,1]",,,,,,,,,,0,,,,,,stimuli/m5.jpg,stimuli/m2.jpg,2,stimuli/Electronic device & accessory.png,stimuli/Hand labour tool & accessory.png,stimuli/Kitchen & utensil.png,stimuli/Outdoor activity & sport item.png,3,1,4,stimuli/m2.jpg,Kitchen & utensil,stimuli/objects/watercooler.jpg,7,2021-04-18_15h32.44.031,premceCat2_ses-02_part-01_label-phase1,2020.2.9,Win32,60,2,0,2.751,0,18,18,18,1,,,,,,
0,"[1,1,1,1,1,1,1,1,1,1,0,1,1,1,1,1,1,1,0,1,1,1,1,1,1,0,1,1,1,0,1,0,1,1,0,1,0,1,0,0,1,1,1,1,0,1,0,1,0,0,1,1,1,0,1,1,0,1,0,1,0,1,1,0,1,1,1,1,1,1,0,0,1,1,1,1,0,1,1,0,0,1,1,1,0]",,,,,,,,,,0,,,,,,stimuli/m5.jpg,stimuli/m2.jpg,1,stimuli/Kitchen & utensil.png,stimuli/Outdoor activity & sport item.png,stimuli/Electronic device & accessory.png,stimuli/Hand labour tool & accessory.png,4,1,4,stimuli/m5.jpg,Hand labour tool & accessory,stimuli/objects/painttray.jpg,7,2021-04-18_15h32.44.031,premceCat2_ses-02_part-01_label-phase1,2020.2.9,Win32,60,2,0,3.603,0,19,19,19,1,,,,,,
1,"[1,1,1,1,1,1,1,1,1,1,0,1,1,1,1,1,1,1,0,1,1,1,1,1,1,0,1,1,1,0,1,0,1,1,0,1,0,1,0,0,1,1,1,1,0,1,0,1,0,0,1,1,1,0,1,1,0,1,0,1,0,1,1,0,1,1,1,1,1,1,0,0,1,1,1,1,0,1,1,0,0,1,1,1,0,0]",,,,,,,,,,1,,,,,,stimuli/m5.jpg,stimuli/m2.jpg,1,stimuli/Kitchen & utensil.png,stimuli/Electronic device & accessory.png,stimuli/Hand labour tool & accessory.png,stimuli/Outdoor activity & sport item.png,3,1,4,stimuli/m5.jpg,Hand labour tool & accessory,stimuli/objects/gastank.jpg,7,2021-04-18_15h32.44.031,premceCat2_ses-02_part-01_label-phase1,2020.2.9,Win32,60,3,1,0.908,0,20,20,20,1,,,,,,
0,"[1,1,1,1,1,1,1,1,1,1,0,1,1,1,1,1,1,1,0,1,1,1,1,1,1,0,1,1,1,0,1,0,1,1,0,1,0,1,0,0,1,1,1,1,0,1,0,1,0,0,1,1,1,0,1,1,0,1,0,1,0,1,1,0,1,1,1,1,1,1,0,0,1,1,1,1,0,1,1,0,0,1,1,1,0,0,1]",,,,,,,,,,0,,,,,,stimuli/m2.jpg,stimuli/m5.jpg,2,stimuli/Hand labour tool & accessory.png,stimuli/Electronic device & accessory.png,stimuli/Kitchen & utensil.png,stimuli/Outdoor activity & sport item.png,1,1,4,stimuli/m5.jpg,Hand labour tool & accessory,stimuli/objects/wateringcan.jpg,7,2021-04-18_15h32.44.031,premceCat2_ses-02_part-01_label-phase1,2020.2.9,Win32,60,3,0,1.768,0,21,21,21,1,,,,,,
0,"[1,1,1,1,1,1,1,1,1,1,0,1,1,1,1,1,1,1,0,1,1,1,1,1,1,0,1,1,1,0,1,0,1,1,0,1,0,1,0,0,1,1,1,1,0,1,0,1,0,0,1,1,1,0,1,1,0,1,0,1,0,1,1,0,1,1,1,1,1,1,0,0,1,1,1,1,0,1,1,0,0,1,1,1,0,0,1,0]",,,,,,,,,,0,,,,,,stimuli/m5.jpg,stimuli/m2.jpg,1,stimuli/Electronic device & accessory.png,stimuli/Outdoor activity & sport item.png,stimuli/Hand labour tool & accessory.png,stimuli/Kitchen & utensil.png,3,1,4,stimuli/m5.jpg,Hand labour tool & accessory,stimuli/objects/ladder.jpg,7,2021-04-18_15h32.44.031,premceCat2_ses-02_part-01_label-phase1,2020.2.9,Win32,60,2,0,1.743,0,22,22,22,1,,,,,,
0,"[1,1,1,1,1,1,1,1,1,1,0,1,1,1,1,1,1,1,0,1,1,1,1,1,1,0,1,1,1,0,1,0,1,1,0,1,0,1,0,0,1,1,1,1,0,1,0,1,0,0,1,1,1,0,1,1,0,1,0,1,0,1,1,0,1,1,1,1,1,1,0,0,1,1,1,1,0,1,1,0,0,1,1,1,0,0,1,0,0]",,,,,,,,,,0,,,,,,stimuli/m2.jpg,stimuli/m5.jpg,1,stimuli/Outdoor activity & sport item.png,stimuli/Kitchen & utensil.png,stimuli/Hand labour tool & accessory.png,stimuli/Electronic device & accessory.png,2,1,4,stimuli/m2.jpg,Kitchen & utensil,stimuli/objects/cowbell.jpg,7,2021-04-18_15h32.44.031,premceCat2_ses-02_part-01_label-phase1,2020.2.9,Win32,60,4,0,2.138,0,23,23,23,1,,,,,,
0,"[1,1,1,1,1,1,1,1,1,1,0,1,1,1,1,1,1,1,0,1,1,1,1,1,1,0,1,1,1,0,1,0,1,1,0,1,0,1,0,0,1,1,1,1,0,1,0,1,0,0,1,1,1,0,1,1,0,1,0,1,0,1,1,0,1,1,1,1,1,1,0,0,1,1,1,1,0,1,1,0,0,1,1,1,0,0,1,0,0,0]",,,,,,,,,,0,,,,,,stimuli/m2.jpg,stimuli/m5.jpg,2,stimuli/Hand labour tool & accessory.png,stimuli/Outdoor activity & sport item.png,stimuli/Kitchen & utensil.png,stimuli/Electronic device & accessory.png,1,1,4,stimuli/m5.jpg,Hand labour tool & accessory,stimuli/objects/squeegee01b.jpg,7,2021-04-18_15h32.44.031,premceCat2_ses-02_part-01_label-phase1,2020.2.9,Win32,60,2,0,0.87,0,24,24,24,1,,,,,,
0,"[1,1,1,1,1,1,1,1,1,1,0,1,1,1,1,1,1,1,0,1,1,1,1,1,1,0,1,1,1,0,1,0,1,1,0,1,0,1,0,0,1,1,1,1,0,1,0,1,0,0,1,1,1,0,1,1,0,1,0,1,0,1,1,0,1,1,1,1,1,1,0,0,1,1,1,1,0,1,1,0,0,1,1,1,0,0,1,0,0,0,0]",,,,,,,,,,0,,,,,,stimuli/m5.jpg,stimuli/m2.jpg,1,stimuli/Hand labour tool & accessory.png,stimuli/Electronic device & accessory.png,stimuli/Kitchen & utensil.png,stimuli/Outdoor activity & sport item.png,3,0,4,stimuli/m5.jpg,Kitchen & utensil,stimuli/objects/tray.jpg,7,2021-04-18_15h32.44.031,premceCat2_ses-02_part-01_label-phase1,2020.2.9,Win32,60,4,0,3.184,0,25,25,25,1,,,,,,
0,"[1,1,1,1,1,1,1,1,1,1,0,1,1,1,1,1,1,1,0,1,1,1,1,1,1,0,1,1,1,0,1,0,1,1,0,1,0,1,0,0,1,1,1,1,0,1,0,1,0,0,1,1,1,0,1,1,0,1,0,1,0,1,1,0,1,1,1,1,1,1,0,0,1,1,1,1,0,1,1,0,0,1,1,1,0,0,1,0,0,0,0]",,,,,,,,,,0,,,,,,stimuli/m5.jpg,stimuli/m2.jpg,2,stimuli/Kitchen & utensil.png,stimuli/Hand labour tool & accessory.png,stimuli/Electronic device & accessory.png,stimuli/Outdoor activity & sport item.png,4,0,4,stimuli/m2.jpg,Outdoor activity & sport item,stimuli/objects/lifesaver.jpg,7,2021-04-18_15h32.44.031,premceCat2_ses-02_part-01_label-phase1,2020.2.9,Win32,60,2,0,2.902,0,26,26,26,1,,,,,,
0,"[1,1,1,1,1,1,1,1,1,1,0,1,1,1,1,1,1,1,0,1,1,1,1,1,1,0,1,1,1,0,1,0,1,1,0,1,0,1,0,0,1,1,1,1,0,1,0,1,0,0,1,1,1,0,1,1,0,1,0,1,0,1,1,0,1,1,1,1,1,1,0,0,1,1,1,1,0,1,1,0,0,1,1,1,0,0,1,0,0,0,0]",,,,,,,,,,0,,,,,,stimuli/m2.jpg,stimuli/m5.jpg,1,stimuli/Outdoor activity & sport item.png,stimuli/Hand labour tool & accessory.png,stimuli/Kitchen & utensil.png,stimuli/Electronic device & accessory.png,3,1,4,stimuli/m2.jpg,Kitchen & utensil,stimuli/objects/rollingpin01a.jpg,7,2021-04-18_15h32.44.031,premceCat2_ses-02_part-01_label-phase1,2020.2.9,Win32,60,1,0,1.56,0,27,27,27,1,,,,,,
0,"[1,1,1,1,1,1,1,1,1,1,0,1,1,1,1,1,1,1,0,1,1,1,1,1,1,0,1,1,1,0,1,0,1,1,0,1,0,1,0,0,1,1,1,1,0,1,0,1,0,0,1,1,1,0,1,1,0,1,0,1,0,1,1,0,1,1,1,1,1,1,0,0,1,1,1,1,0,1,1,0,0,1,1,1,0,0,1,0,0,0,0,0]",,,,,,,,,,0,,,,,,stimuli/m5.jpg,stimuli/m2.jpg,1,stimuli/Electronic device & accessory.png,stimuli/Hand labour tool & accessory.png,stimuli/Outdoor activity & sport item.png,stimuli/Kitchen & utensil.png,2,1,4,stimuli/m5.jpg,Hand labour tool & accessory,stimuli/objects/stubbywrench01a.jpg,7,2021-04-18_15h32.44.031,premceCat2_ses-02_part-01_label-phase1,2020.2.9,Win32,60,3,0,2.615,0,28,28,28,1,,,,,,
0,"[1,1,1,1,1,1,1,1,1,1,0,1,1,1,1,1,1,1,0,1,1,1,1,1,1,0,1,1,1,0,1,0,1,1,0,1,0,1,0,0,1,1,1,1,0,1,0,1,0,0,1,1,1,0,1,1,0,1,0,1,0,1,1,0,1,1,1,1,1,1,0,0,1,1,1,1,0,1,1,0,0,1,1,1,0,0,1,0,0,0,0,0,0]",,,,,,,,,,0,,,,,,stimuli/m2.jpg,stimuli/m5.jpg,1,stimuli/Kitchen & utensil.png,stimuli/Electronic device & accessory.png,stimuli/Hand labour tool & accessory.png,stimuli/Outdoor activity & sport item.png,4,0,4,stimuli/m2.jpg,Outdoor activity & sport item,stimuli/objects/downhillski.jpg,7,2021-04-18_15h32.44.031,premceCat2_ses-02_part-01_label-phase1,2020.2.9,Win32,60,3,0,1.489,0,29,29,29,1,,,,,,
0,"[1,1,1,1,1,1,1,1,1,1,0,1,1,1,1,1,1,1,0,1,1,1,1,1,1,0,1,1,1,0,1,0,1,1,0,1,0,1,0,0,1,1,1,1,0,1,0,1,0,0,1,1,1,0,1,1,0,1,0,1,0,1,1,0,1,1,1,1,1,1,0,0,1,1,1,1,0,1,1,0,0,1,1,1,0,0,1,0,0,0,0,0,0]",,,,,,,,,,0,,,,,,stimuli/m5.jpg,stimuli/m2.jpg,2,stimuli/Electronic device & accessory.png,stimuli/Outdoor activity & sport item.png,stimuli/Hand labour tool & accessory.png,stimuli/Kitchen & utensil.png,4,1,4,stimuli/m2.jpg,Kitchen & utensil,stimuli/objects/gasburner.jpg,7,2021-04-18_15h32.44.031,premceCat2_ses-02_part-01_label-phase1,2020.2.9,Win32,60,2,0,0.645,0,30,30,30,1,,,,,,
0,"[1,1,1,1,1,1,1,1,1,1,0,1,1,1,1,1,1,1,0,1,1,1,1,1,1,0,1,1,1,0,1,0,1,1,0,1,0,1,0,0,1,1,1,1,0,1,0,1,0,0,1,1,1,0,1,1,0,1,0,1,0,1,1,0,1,1,1,1,1,1,0,0,1,1,1,1,0,1,1,0,0,1,1,1,0,0,1,0,0,0,0,0,0,0]",,,,,,,,,,0,,,,,,stimuli/m5.jpg,stimuli/m2.jpg,2,stimuli/Hand labour tool & accessory.png,stimuli/Kitchen & utensil.png,stimuli/Outdoor activity & sport item.png,stimuli/Electronic device & accessory.png,2,1,4,stimuli/m2.jpg,Kitchen & utensil,stimuli/objects/canister.jpg,7,2021-04-18_15h32.44.031,premceCat2_ses-02_part-01_label-phase1,2020.2.9,Win32,60,3,0,0.855,0,31,31,31,1,,,,,,
0,"[1,1,1,1,1,1,1,1,1,1,0,1,1,1,1,1,1,1,0,1,1,1,1,1,1,0,1,1,1,0,1,0,1,1,0,1,0,1,0,0,1,1,1,1,0,1,0,1,0,0,1,1,1,0,1,1,0,1,0,1,0,1,1,0,1,1,1,1,1,1,0,0,1,1,1,1,0,1,1,0,0,1,1,1,0,0,1,0,0,0,0,0,0,0,0]",,,,,,,,,,0,,,,,,stimuli/m5.jpg,stimuli/m2.jpg,1,stimuli/Outdoor activity & sport item.png,stimuli/Electronic device & accessory.png,stimuli/Hand labour tool & accessory.png,stimuli/Kitchen & utensil.png,3,1,4,stimuli/m5.jpg,Hand labour tool & accessory,stimuli/objects/flooringstapler.jpg,7,2021-04-18_15h32.44.031,premceCat2_ses-02_part-01_label-phase1,2020.2.9,Win32,60,1,0,2.934,0,32,32,32,1,,,,,,
0,"[1,1,1,1,1,1,1,1,1,1,0,1,1,1,1,1,1,1,0,1,1,1,1,1,1,0,1,1,1,0,1,0,1,1,0,1,0,1,0,0,1,1,1,1,0,1,0,1,0,0,1,1,1,0,1,1,0,1,0,1,0,1,1,0,1,1,1,1,1,1,0,0,1,1,1,1,0,1,1,0,0,1,1,1,0,0,1,0,0,0,0,0,0,0,0,0]",,,,,,,,,,0,,,,,,stimuli/m5.jpg,stimuli/m2.jpg,1,stimuli/Kitchen & utensil.png,stimuli/Hand labour tool & accessory.png,stimuli/Electronic device & accessory.png,stimuli/Outdoor activity & sport item.png,2,1,4,stimuli/m5.jpg,Hand labour tool & accessory,stimuli/objects/caulking.jpg,7,2021-04-18_15h32.44.031,premceCat2_ses-02_part-01_label-phase1,2020.2.9,Win32,60,4,0,1.418,0,33,33,33,1,,,,,,
1,"[1,1,1,1,1,1,1,1,1,1,0,1,1,1,1,1,1,1,0,1,1,1,1,1,1,0,1,1,1,0,1,0,1,1,0,1,0,1,0,0,1,1,1,1,0,1,0,1,0,0,1,1,1,0,1,1,0,1,0,1,0,1,1,0,1,1,1,1,1,1,0,0,1,1,1,1,0,1,1,0,0,1,1,1,0,0,1,0,0,0,0,0,0,0,0,0,0]",,,,,,,,,,1,,,,,,stimuli/m2.jpg,stimuli/m5.jpg,1,stimuli/Kitchen & utensil.png,stimuli/Outdoor activity & sport item.png,stimuli/Electronic device & accessory.png,stimuli/Hand labour tool & accessory.png,1,1,4,stimuli/m2.jpg,Kitchen & utensil,stimuli/objects/oven.jpg,7,2021-04-18_15h32.44.031,premceCat2_ses-02_part-01_label-phase1,2020.2.9,Win32,60,1,1,2.141,0,34,34,34,1,,,,,,
1,"[1,1,1,1,1,1,1,1,1,1,0,1,1,1,1,1,1,1,0,1,1,1,1,1,1,0,1,1,1,0,1,0,1,1,0,1,0,1,0,0,1,1,1,1,0,1,0,1,0,0,1,1,1,0,1,1,0,1,0,1,0,1,1,0,1,1,1,1,1,1,0,0,1,1,1,1,0,1,1,0,0,1,1,1,0,0,1,0,0,0,0,0,0,0,0,0,0,1]",,,,,,,,,,1,,,,,,stimuli/m5.jpg,stimuli/m2.jpg,2,stimuli/Hand labour tool & accessory.png,stimuli/Outdoor activity & sport item.png,stimuli/Kitchen & utensil.png,stimuli/Electronic device & accessory.png,3,1,4,stimuli/m2.jpg,Kitchen & utensil,stimuli/objects/bowl02a.jpg,7,2021-04-18_15h32.44.031,premceCat2_ses-02_part-01_label-phase1,2020.2.9,Win32,60,3,1,1.015,0,35,35,35,1,,,,,,
1,"[1,1,1,1,1,1,1,1,1,1,0,1,1,1,1,1,1,1,0,1,1,1,1,1,1,0,1,1,1,0,1,0,1,1,0,1,0,1,0,0,1,1,1,1,0,1,0,1,0,0,1,1,1,0,1,1,0,1,0,1,0,1,1,0,1,1,1,1,1,1,0,0,1,1,1,1,0,1,1,0,0,1,1,1,0,0,1,0,0,0,0,0,0,0,0,0,0,1,1]",,,,,,,,,,1,,,,,,stimuli/m2.jpg,stimuli/m5.jpg,1,stimuli/Hand labour tool & accessory.png,stimuli/Outdoor activity & sport item.png,stimuli/Kitchen & utensil.png,stimuli/Electronic device & accessory.png,3,1,4,stimuli/m2.jpg,Kitchen & utensil,stimuli/objects/breadknife.jpg,7,2021-04-18_15h32.44.031,premceCat2_ses-02_part-01_label-phase1,2020.2.9,Win32,60,3,1,0.959,0,36,36,36,1,,,,,,
1,"[1,1,1,1,1,1,1,1,1,1,0,1,1,1,1,1,1,1,0,1,1,1,1,1,1,0,1,1,1,0,1,0,1,1,0,1,0,1,0,0,1,1,1,1,0,1,0,1,0,0,1,1,1,0,1,1,0,1,0,1,0,1,1,0,1,1,1,1,1,1,0,0,1,1,1,1,0,1,1,0,0,1,1,1,0,0,1,0,0,0,0,0,0,0,0,0,0,1,1,1]",,,,,,,,,,1,,,,,,stimuli/m2.jpg,stimuli/m5.jpg,1,stimuli/Hand labour tool & accessory.png,stimuli/Outdoor activity & sport item.png,stimuli/Electronic device & accessory.png,stimuli/Kitchen & utensil.png,4,1,4,stimuli/m2.jpg,Kitchen & utensil,stimuli/objects/hourglass.jpg,7,2021-04-18_15h32.44.031,premceCat2_ses-02_part-01_label-phase1,2020.2.9,Win32,60,4,1,1.04,0,37,37,37,1,,,,,,
0,"[1,1,1,1,1,1,1,1,1,1,0,1,1,1,1,1,1,1,0,1,1,1,1,1,1,0,1,1,1,0,1,0,1,1,0,1,0,1,0,0,1,1,1,1,0,1,0,1,0,0,1,1,1,0,1,1,0,1,0,1,0,1,1,0,1,1,1,1,1,1,0,0,1,1,1,1,0,1,1,0,0,1,1,1,0,0,1,0,0,0,0,0,0,0,0,0,0,1,1,1,1]",,,,,,,,,,0,,,,,,stimuli/m5.jpg,stimuli/m2.jpg,1,stimuli/Hand labour tool & accessory.png,stimuli/Outdoor activity & sport item.png,stimuli/Electronic device & accessory.png,stimuli/Kitchen & utensil.png,1,1,4,stimuli/m5.jpg,Hand labour tool & accessory,stimuli/objects/mallet01b.jpg,7,2021-04-18_15h32.44.031,premceCat2_ses-02_part-01_label-phase1,2020.2.9,Win32,60,4,0,0.62,0,38,38,38,1,,,,,,
1,"[1,1,1,1,1,1,1,1,1,1,0,1,1,1,1,1,1,1,0,1,1,1,1,1,1,0,1,1,1,0,1,0,1,1,0,1,0,1,0,0,1,1,1,1,0,1,0,1,0,0,1,1,1,0,1,1,0,1,0,1,0,1,1,0,1,1,1,1,1,1,0,0,1,1,1,1,0,1,1,0,0,1,1,1,0,0,1,0,0,0,0,0,0,0,0,0,0,1,1,1,1,0]",,,,,,,,,,1,,,,,,stimuli/m5.jpg,stimuli/m2.jpg,1,stimuli/Hand labour tool & accessory.png,stimuli/Outdoor activity & sport item.png,stimuli/Kitchen & utensil.png,stimuli/Electronic device & accessory.png,1,1,4,stimuli/m5.jpg,Hand labour tool & accessory,stimuli/objects/pressurewasher.jpg,7,2021-04-18_15h32.44.031,premceCat2_ses-02_part-01_label-phase1,2020.2.9,Win32,60,1,1,0.732,0,39,39,39,1,,,,,,
1,"[1,1,1,1,1,1,1,1,1,1,0,1,1,1,1,1,1,1,0,1,1,1,1,1,1,0,1,1,1,0,1,0,1,1,0,1,0,1,0,0,1,1,1,1,0,1,0,1,0,0,1,1,1,0,1,1,0,1,0,1,0,1,1,0,1,1,1,1,1,1,0,0,1,1,1,1,0,1,1,0,0,1,1,1,0,0,1,0,0,0,0,0,0,0,0,0,0,1,1,1,1,0,1]",,,,,,,,,,1,,,,,,stimuli/m5.jpg,stimuli/m2.jpg,2,stimuli/Kitchen & utensil.png,stimuli/Hand labour tool & accessory.png,stimuli/Outdoor activity & sport item.png,stimuli/Electronic device & accessory.png,1,1,4,stimuli/m2.jpg,Kitchen & utensil,stimuli/objects/potatomasher03b.jpg,7,2021-04-18_15h32.44.031,premceCat2_ses-02_part-01_label-phase1,2020.2.9,Win32,60,1,1,1.256,0,40,40,40,1,,,,,,
0,"[1,1,1,1,1,1,1,1,1,1,0,1,1,1,1,1,1,1,0,1,1,1,1,1,1,0,1,1,1,0,1,0,1,1,0,1,0,1,0,0,1,1,1,1,0,1,0,1,0,0,1,1,1,0,1,1,0,1,0,1,0,1,1,0,1,1,1,1,1,1,0,0,1,1,1,1,0,1,1,0,0,1,1,1,0,0,1,0,0,0,0,0,0,0,0,0,0,1,1,1,1,0,1,1]",,,,,,,,,,1,,,,,,stimuli/m2.jpg,stimuli/m5.jpg,2,stimuli/Outdoor activity & sport item.png,stimuli/Kitchen & utensil.png,stimuli/Hand labour tool & accessory.png,stimuli/Electronic device & accessory.png,4,0,4,stimuli/m5.jpg,Electronic device & accessory,stimuli/objects/floppydisk02a.jpg,7,2021-04-18_15h32.44.031,premceCat2_ses-02_part-01_label-phase1,2020.2.9,Win32,60,3,0,1.424,0,41,41,41,1,,,,,,
1,"[1,1,1,1,1,1,1,1,1,1,0,1,1,1,1,1,1,1,0,1,1,1,1,1,1,0,1,1,1,0,1,0,1,1,0,1,0,1,0,0,1,1,1,1,0,1,0,1,0,0,1,1,1,0,1,1,0,1,0,1,0,1,1,0,1,1,1,1,1,1,0,0,1,1,1,1,0,1,1,0,0,1,1,1,0,0,1,0,0,0,0,0,0,0,0,0,0,1,1,1,1,0,1,1]",,,,,,,,,,1,,,,,,stimuli/m5.jpg,stimuli/m2.jpg,2,stimuli/Outdoor activity & sport item.png,stimuli/Hand labour tool & accessory.png,stimuli/Kitchen & utensil.png,stimuli/Electronic device & accessory.png,3,1,4,stimuli/m2.jpg,Kitchen & utensil,stimuli/objects/pot01.jpg,7,2021-04-18_15h32.44.031,premceCat2_ses-02_part-01_label-phase1,2020.2.9,Win32,60,3,1,1.29,0,42,42,42,1,,,,,,
0,"[1,1,1,1,1,1,1,1,1,1,0,1,1,1,1,1,1,1,0,1,1,1,1,1,1,0,1,1,1,0,1,0,1,1,0,1,0,1,0,0,1,1,1,1,0,1,0,1,0,0,1,1,1,0,1,1,0,1,0,1,0,1,1,0,1,1,1,1,1,1,0,0,1,1,1,1,0,1,1,0,0,1,1,1,0,0,1,0,0,0,0,0,0,0,0,0,0,1,1,1,1,0,1,1,1]",,,,,,,,,,1,,,,,,stimuli/m2.jpg,stimuli/m5.jpg,1,stimuli/Outdoor activity & sport item.png,stimuli/Electronic device & accessory.png,stimuli/Hand labour tool & accessory.png,stimuli/Kitchen & utensil.png,3,0,4,stimuli/m2.jpg,Hand labour tool & accessory,stimuli/objects/weedwacker.jpg,7,2021-04-18_15h32.44.031,premceCat2_ses-02_part-01_label-phase1,2020.2.9,Win32,60,4,0,1.503,0,43,43,43,1,,,,,,
1,"[1,1,1,1,1,1,1,1,1,1,0,1,1,1,1,1,1,1,0,1,1,1,1,1,1,0,1,1,1,0,1,0,1,1,0,1,0,1,0,0,1,1,1,1,0,1,0,1,0,0,1,1,1,0,1,1,0,1,0,1,0,1,1,0,1,1,1,1,1,1,0,0,1,1,1,1,0,1,1,0,0,1,1,1,0,0,1,0,0,0,0,0,0,0,0,0,0,1,1,1,1,0,1,1,1]",,,,,,,,,,1,,,,,,stimuli/m2.jpg,stimuli/m5.jpg,2,stimuli/Outdoor activity & sport item.png,stimuli/Hand labour tool & accessory.png,stimuli/Kitchen & utensil.png,stimuli/Electronic device & accessory.png,2,1,4,stimuli/m5.jpg,Hand labour tool & accessory,stimuli/objects/bucket02.jpg,7,2021-04-18_15h32.44.031,premceCat2_ses-02_part-01_label-phase1,2020.2.9,Win32,60,2,1,1.419,0,44,44,44,1,,,,,,
1,"[1,1,1,1,1,1,1,1,1,1,0,1,1,1,1,1,1,1,0,1,1,1,1,1,1,0,1,1,1,0,1,0,1,1,0,1,0,1,0,0,1,1,1,1,0,1,0,1,0,0,1,1,1,0,1,1,0,1,0,1,0,1,1,0,1,1,1,1,1,1,0,0,1,1,1,1,0,1,1,0,0,1,1,1,0,0,1,0,0,0,0,0,0,0,0,0,0,1,1,1,1,0,1,1,1,1]",,,,,,,,,,1,,,,,,stimuli/m2.jpg,stimuli/m5.jpg,2,stimuli/Electronic device & accessory.png,stimuli/Kitchen & utensil.png,stimuli/Outdoor activity & sport item.png,stimuli/Hand labour tool & accessory.png,4,1,4,stimuli/m5.jpg,Hand labour tool & accessory,stimuli/objects/snowblower.jpg,7,2021-04-18_15h32.44.031,premceCat2_ses-02_part-01_label-phase1,2020.2.9,Win32,60,4,1,1.044,0,45,45,45,1,,,,,,
0,"[1,1,1,1,1,1,1,1,1,1,0,1,1,1,1,1,1,1,0,1,1,1,1,1,1,0,1,1,1,0,1,0,1,1,0,1,0,1,0,0,1,1,1,1,0,1,0,1,0,0,1,1,1,0,1,1,0,1,0,1,0,1,1,0,1,1,1,1,1,1,0,0,1,1,1,1,0,1,1,0,0,1,1,1,0,0,1,0,0,0,0,0,0,0,0,0,0,1,1,1,1,0,1,1,1,1,1]",,,,,,,,,,0,,,,,,stimuli/m5.jpg,stimuli/m2.jpg,2,stimuli/Outdoor activity & sport item.png,stimuli/Kitchen & utensil.png,stimuli/Electronic device & accessory.png,stimuli/Hand labour tool & accessory.png,2,1,4,stimuli/m2.jpg,Kitchen & utensil,stimuli/objects/travelmug.jpg,7,2021-04-18_15h32.44.031,premceCat2_ses-02_part-01_label-phase1,2020.2.9,Win32,60,4,0,0.782,0,46,46,46,1,,,,,,
0,"[1,1,1,1,1,1,1,1,1,1,0,1,1,1,1,1,1,1,0,1,1,1,1,1,1,0,1,1,1,0,1,0,1,1,0,1,0,1,0,0,1,1,1,1,0,1,0,1,0,0,1,1,1,0,1,1,0,1,0,1,0,1,1,0,1,1,1,1,1,1,0,0,1,1,1,1,0,1,1,0,0,1,1,1,0,0,1,0,0,0,0,0,0,0,0,0,0,1,1,1,1,0,1,1,1,1,1,0]",,,,,,,,,,0,,,,,,stimuli/m5.jpg,stimuli/m2.jpg,2,stimuli/Kitchen & utensil.png,stimuli/Outdoor activity & sport item.png,stimuli/Hand labour tool & accessory.png,stimuli/Electronic device & accessory.png,4,0,4,stimuli/m2.jpg,Electronic device & accessory,stimuli/objects/nintendods.jpg,7,2021-04-18_15h32.44.031,premceCat2_ses-02_part-01_label-phase1,2020.2.9,Win32,60,1,0,1.294,0,47,47,47,1,,,,,,
,,,,,,,,,,,,,,,,,,,,,,,,,,,,,,7,2021-04-18_15h32.44.031,premceCat2_ses-02_part-01_label-phase1,2020.2.9,Win32,60,,,,,,,,,0,2,2,2,1,condition_files/tasklistC4.csv
0,"[1,1,1,1,1,1,1,1,1,1,0,1,1,1,1,1,1,1,0,1,1,1,1,1,1,0,1,1,1,0,1,0,1,1,0,1,0,1,0,0,1,1,1,1,0,1,0,1,0,0,1,1,1,0,1,1,0,1,0,1,0,1,1,0,1,1,1,1,1,1,0,0,1,1,1,1,0,1,1,0,0,1,1,1,0,0,1,0,0,0,0,0,0,0,0,0,0,1,1,1,1,0,1,1,1,1,1,0]",,,,,,,,,,0,,,,,,stimuli/m2.jpg,stimuli/m5.jpg,1,stimuli/Kitchen & utensil.png,stimuli/Hand labour tool & accessory.png,stimuli/Electronic device & accessory.png,stimuli/Outdoor activity & sport item.png,4,1,5,stimuli/m2.jpg,Outdoor activity & sport item,stimuli/objects/bikewheel.jpg,7,2021-04-18_15h32.44.031,premceCat2_ses-02_part-01_label-phase1,2020.2.9,Win32,60,3,0,0.792,0,0,0,0,1,,,,,,
0,"[1,1,1,1,1,1,1,1,1,1,0,1,1,1,1,1,1,1,0,1,1,1,1,1,1,0,1,1,1,0,1,0,1,1,0,1,0,1,0,0,1,1,1,1,0,1,0,1,0,0,1,1,1,0,1,1,0,1,0,1,0,1,1,0,1,1,1,1,1,1,0,0,1,1,1,1,0,1,1,0,0,1,1,1,0,0,1,0,0,0,0,0,0,0,0,0,0,1,1,1,1,0,1,1,1,1,1,0,0]",,,,,,,,,,0,,,,,,stimuli/m5.jpg,stimuli/m2.jpg,2,stimuli/Kitchen & utensil.png,stimuli/Hand labour tool & accessory.png,stimuli/Outdoor activity & sport item.png,stimuli/Electronic device & accessory.png,4,0,5,stimuli/m2.jpg,Electronic device & accessory,stimuli/objects/antenna.jpg,7,2021-04-18_15h32.44.031,premceCat2_ses-02_part-01_label-phase1,2020.2.9,Win32,60,3,0,1.171,0,1,1,1,1,,,,,,
1,"[1,1,1,1,1,1,1,1,1,1,0,1,1,1,1,1,1,1,0,1,1,1,1,1,1,0,1,1,1,0,1,0,1,1,0,1,0,1,0,0,1,1,1,1,0,1,0,1,0,0,1,1,1,0,1,1,0,1,0,1,0,1,1,0,1,1,1,1,1,1,0,0,1,1,1,1,0,1,1,0,0,1,1,1,0,0,1,0,0,0,0,0,0,0,0,0,0,1,1,1,1,0,1,1,1,1,1,0,0]",,,,,,,,,,1,,,,,,stimuli/m5.jpg,stimuli/m2.jpg,2,stimuli/Electronic device & accessory.png,stimuli/Kitchen & utensil.png,stimuli/Hand labour tool & accessory.png,stimuli/Outdoor activity & sport item.png,4,1,5,stimuli/m2.jpg,Outdoor activity & sport item,stimuli/objects/patioumbrella.jpg,7,2021-04-18_15h32.44.031,premceCat2_ses-02_part-01_label-phase1,2020.2.9,Win32,60,4,1,2.315,0,2,2,2,1,,,,,,
0,"[1,1,1,1,1,1,1,1,1,1,0,1,1,1,1,1,1,1,0,1,1,1,1,1,1,0,1,1,1,0,1,0,1,1,0,1,0,1,0,0,1,1,1,1,0,1,0,1,0,0,1,1,1,0,1,1,0,1,0,1,0,1,1,0,1,1,1,1,1,1,0,0,1,1,1,1,0,1,1,0,0,1,1,1,0,0,1,0,0,0,0,0,0,0,0,0,0,1,1,1,1,0,1,1,1,1,1,0,0,1]",,,,,,,,,,0,,,,,,stimuli/m5.jpg,stimuli/m2.jpg,2,stimuli/Hand labour tool & accessory.png,stimuli/Outdoor activity & sport item.png,stimuli/Kitchen & utensil.png,stimuli/Electronic device & accessory.png,2,1,5,stimuli/m2.jpg,Outdoor activity & sport item,stimuli/objects/exercisebike.jpg,7,2021-04-18_15h32.44.031,premceCat2_ses-02_part-01_label-phase1,2020.2.9,Win32,60,4,0,1.218,0,3,3,3,1,,,,,,
0,"[1,1,1,1,1,1,1,1,1,1,0,1,1,1,1,1,1,1,0,1,1,1,1,1,1,0,1,1,1,0,1,0,1,1,0,1,0,1,0,0,1,1,1,1,0,1,0,1,0,0,1,1,1,0,1,1,0,1,0,1,0,1,1,0,1,1,1,1,1,1,0,0,1,1,1,1,0,1,1,0,0,1,1,1,0,0,1,0,0,0,0,0,0,0,0,0,0,1,1,1,1,0,1,1,1,1,1,0,0,1,0]",,,,,,,,,,0,,,,,,stimuli/m2.jpg,stimuli/m5.jpg,2,stimuli/Outdoor activity & sport item.png,stimuli/Kitchen & utensil.png,stimuli/Electronic device & accessory.png,stimuli/Hand labour tool & accessory.png,3,1,5,stimuli/m5.jpg,Electronic device & accessory,stimuli/objects/crocodileclips.jpg,7,2021-04-18_15h32.44.031,premceCat2_ses-02_part-01_label-phase1,2020.2.9,Win32,60,4,0,2.856,0,4,4,4,1,,,,,,
0,"[1,1,1,1,1,1,1,1,1,1,0,1,1,1,1,1,1,1,0,1,1,1,1,1,1,0,1,1,1,0,1,0,1,1,0,1,0,1,0,0,1,1,1,1,0,1,0,1,0,0,1,1,1,0,1,1,0,1,0,1,0,1,1,0,1,1,1,1,1,1,0,0,1,1,1,1,0,1,1,0,0,1,1,1,0,0,1,0,0,0,0,0,0,0,0,0,0,1,1,1,1,0,1,1,1,1,1,0,0,1,0,0]",,,,,,,,,,0,,,,,,stimuli/m5.jpg,stimuli/m2.jpg,2,stimuli/Hand labour tool & accessory.png,stimuli/Kitchen & utensil.png,stimuli/Outdoor activity & sport item.png,stimuli/Electronic device & accessory.png,1,0,5,stimuli/m2.jpg,Hand labour tool & accessory,stimuli/objects/drillbit03a.jpg,7,2021-04-18_15h32.44.031,premceCat2_ses-02_part-01_label-phase1,2020.2.9,Win32,60,3,0,1.066,0,5,5,5,1,,,,,,
0,"[1,1,1,1,1,1,1,1,1,1,0,1,1,1,1,1,1,1,0,1,1,1,1,1,1,0,1,1,1,0,1,0,1,1,0,1,0,1,0,0,1,1,1,1,0,1,0,1,0,0,1,1,1,0,1,1,0,1,0,1,0,1,1,0,1,1,1,1,1,1,0,0,1,1,1,1,0,1,1,0,0,1,1,1,0,0,1,0,0,0,0,0,0,0,0,0,0,1,1,1,1,0,1,1,1,1,1,0,0,1,0,0]",,,,,,,,,,0,,,,,,stimuli/m5.jpg,stimuli/m2.jpg,2,stimuli/Electronic device & accessory.png,stimuli/Outdoor activity & sport item.png,stimuli/Hand labour tool & accessory.png,stimuli/Kitchen & utensil.png,3,0,5,stimuli/m2.jpg,Hand labour tool & accessory,stimuli/objects/jigsaw.jpg,7,2021-04-18_15h32.44.031,premceCat2_ses-02_part-01_label-phase1,2020.2.9,Win32,60,1,0,1.788,0,6,6,6,1,,,,,,
1,"[1,1,1,1,1,1,1,1,1,1,0,1,1,1,1,1,1,1,0,1,1,1,1,1,1,0,1,1,1,0,1,0,1,1,0,1,0,1,0,0,1,1,1,1,0,1,0,1,0,0,1,1,1,0,1,1,0,1,0,1,0,1,1,0,1,1,1,1,1,1,0,0,1,1,1,1,0,1,1,0,0,1,1,1,0,0,1,0,0,0,0,0,0,0,0,0,0,1,1,1,1,0,1,1,1,1,1,0,0,1,0,0]",,,,,,,,,,1,,,,,,stimuli/m5.jpg,stimuli/m2.jpg,1,stimuli/Outdoor activity & sport item.png,stimuli/Kitchen & utensil.png,stimuli/Hand labour tool & accessory.png,stimuli/Electronic device & accessory.png,4,1,5,stimuli/m5.jpg,Electronic device & accessory,stimuli/objects/ipad02.jpg,7,2021-04-18_15h32.44.031,premceCat2_ses-02_part-01_label-phase1,2020.2.9,Win32,60,4,1,0.934,0,7,7,7,1,,,,,,
0,"[1,1,1,1,1,1,1,1,1,1,0,1,1,1,1,1,1,1,0,1,1,1,1,1,1,0,1,1,1,0,1,0,1,1,0,1,0,1,0,0,1,1,1,1,0,1,0,1,0,0,1,1,1,0,1,1,0,1,0,1,0,1,1,0,1,1,1,1,1,1,0,0,1,1,1,1,0,1,1,0,0,1,1,1,0,0,1,0,0,0,0,0,0,0,0,0,0,1,1,1,1,0,1,1,1,1,1,0,0,1,0,0,1]",,,,,,,,,,0,,,,,,stimuli/m2.jpg,stimuli/m5.jpg,1,stimuli/Kitchen & utensil.png,stimuli/Electronic device & accessory.png,stimuli/Hand labour tool & accessory.png,stimuli/Outdoor activity & sport item.png,4,1,5,stimuli/m2.jpg,Outdoor activity & sport item,stimuli/objects/snowboard.jpg,7,2021-04-18_15h32.44.031,premceCat2_ses-02_part-01_label-phase1,2020.2.9,Win32,60,3,0,1.653,0,8,8,8,1,,,,,,
1,"[1,1,1,1,1,1,1,1,1,1,0,1,1,1,1,1,1,1,0,1,1,1,1,1,1,0,1,1,1,0,1,0,1,1,0,1,0,1,0,0,1,1,1,1,0,1,0,1,0,0,1,1,1,0,1,1,0,1,0,1,0,1,1,0,1,1,1,1,1,1,0,0,1,1,1,1,0,1,1,0,0,1,1,1,0,0,1,0,0,0,0,0,0,0,0,0,0,1,1,1,1,0,1,1,1,1,1,0,0,1,0,0,1,0]",,,,,,,,,,1,,,,,,stimuli/m5.jpg,stimuli/m2.jpg,2,stimuli/Electronic device & accessory.png,stimuli/Kitchen & utensil.png,stimuli/Outdoor activity & sport item.png,stimuli/Hand labour tool & accessory.png,3,1,5,stimuli/m2.jpg,Outdoor activity & sport item,stimuli/objects/boatmotor.jpg,7,2021-04-18_15h32.44.031,premceCat2_ses-02_part-01_label-phase1,2020.2.9,Win32,60,3,1,1.341,0,9,9,9,1,,,,,,
1,"[1,1,1,1,1,1,1,1,1,1,0,1,1,1,1,1,1,1,0,1,1,1,1,1,1,0,1,1,1,0,1,0,1,1,0,1,0,1,0,0,1,1,1,1,0,1,0,1,0,0,1,1,1,0,1,1,0,1,0,1,0,1,1,0,1,1,1,1,1,1,0,0,1,1,1,1,0,1,1,0,0,1,1,1,0,0,1,0,0,0,0,0,0,0,0,0,0,1,1,1,1,0,1,1,1,1,1,0,0,1,0,0,1,0,1]",,,,,,,,,,1,,,,,,stimuli/m5.jpg,stimuli/m2.jpg,1,stimuli/Outdoor activity & sport item.png,stimuli/Electronic device & accessory.png,stimuli/Hand labour tool & accessory.png,stimuli/Kitchen & utensil.png,2,1,5,stimuli/m5.jpg,Electronic device & accessory,stimuli/objects/desktopcomputer.jpg,7,2021-04-18_15h32.44.031,premceCat2_ses-02_part-01_label-phase1,2020.2.9,Win32,60,2,1,1.741,0,10,10,10,1,,,,,,
0,"[1,1,1,1,1,1,1,1,1,1,0,1,1,1,1,1,1,1,0,1,1,1,1,1,1,0,1,1,1,0,1,0,1,1,0,1,0,1,0,0,1,1,1,1,0,1,0,1,0,0,1,1,1,0,1,1,0,1,0,1,0,1,1,0,1,1,1,1,1,1,0,0,1,1,1,1,0,1,1,0,0,1,1,1,0,0,1,0,0,0,0,0,0,0,0,0,0,1,1,1,1,0,1,1,1,1,1,0,0,1,0,0,1,0,1,1]",,,,,,,,,,1,,,,,,stimuli/m5.jpg,stimuli/m2.jpg,2,stimuli/Electronic device & accessory.png,stimuli/Hand labour tool & accessory.png,stimuli/Kitchen & utensil.png,stimuli/Outdoor activity & sport item.png,3,0,5,stimuli/m2.jpg,Kitchen & utensil,stimuli/objects/gravyboat.jpg,7,2021-04-18_15h32.44.031,premceCat2_ses-02_part-01_label-phase1,2020.2.9,Win32,60,4,0,1.488,0,11,11,11,1,,,,,,
1,"[1,1,1,1,1,1,1,1,1,1,0,1,1,1,1,1,1,1,0,1,1,1,1,1,1,0,1,1,1,0,1,0,1,1,0,1,0,1,0,0,1,1,1,1,0,1,0,1,0,0,1,1,1,0,1,1,0,1,0,1,0,1,1,0,1,1,1,1,1,1,0,0,1,1,1,1,0,1,1,0,0,1,1,1,0,0,1,0,0,0,0,0,0,0,0,0,0,1,1,1,1,0,1,1,1,1,1,0,0,1,0,0,1,0,1,1]",,,,,,,,,,1,,,,,,stimuli/m2.jpg,stimuli/m5.jpg,2,stimuli/Kitchen & utensil.png,stimuli/Hand labour tool & accessory.png,stimuli/Electronic device & accessory.png,stimuli/Outdoor activity & sport item.png,3,1,5,stimuli/m5.jpg,Electronic device & accessory,stimuli/objects/electricoutlet.jpg,7,2021-04-18_15h32.44.031,premceCat2_ses-02_part-01_label-phase1,2020.2.9,Win32,60,3,1,1.482,0,12,12,12,1,,,,,,
0,"[1,1,1,1,1,1,1,1,1,1,0,1,1,1,1,1,1,1,0,1,1,1,1,1,1,0,1,1,1,0,1,0,1,1,0,1,0,1,0,0,1,1,1,1,0,1,0,1,0,0,1,1,1,0,1,1,0,1,0,1,0,1,1,0,1,1,1,1,1,1,0,0,1,1,1,1,0,1,1,0,0,1,1,1,0,0,1,0,0,0,0,0,0,0,0,0,0,1,1,1,1,0,1,1,1,1,1,0,0,1,0,0,1,0,1,1,1]",,,,,,,,,,0,,,,,,stimuli/m5.jpg,stimuli/m2.jpg,2,stimuli/Kitchen & utensil.png,stimuli/Electronic device & accessory.png,stimuli/Hand labour tool & accessory.png,stimuli/Outdoor activity & sport item.png,4,1,5,stimuli/m2.jpg,Outdoor activity & sport item,stimuli/objects/soccerball.jpg,7,2021-04-18_15h32.44.031,premceCat2_ses-02_part-01_label-phase1,2020.2.9,Win32,60,1,0,0.707,0,13,13,13,1,,,,,,
1,"[1,1,1,1,1,1,1,1,1,1,0,1,1,1,1,1,1,1,0,1,1,1,1,1,1,0,1,1,1,0,1,0,1,1,0,1,0,1,0,0,1,1,1,1,0,1,0,1,0,0,1,1,1,0,1,1,0,1,0,1,0,1,1,0,1,1,1,1,1,1,0,0,1,1,1,1,0,1,1,0,0,1,1,1,0,0,1,0,0,0,0,0,0,0,0,0,0,1,1,1,1,0,1,1,1,1,1,0,0,1,0,0,1,0,1,1,1,0]",,,,,,,,,,1,,,,,,stimuli/m2.jpg,stimuli/m5.jpg,2,stimuli/Electronic device & accessory.png,stimuli/Outdoor activity & sport item.png,stimuli/Hand labour tool & accessory.png,stimuli/Kitchen & utensil.png,1,1,5,stimuli/m5.jpg,Electronic device & accessory,stimuli/objects/carantenna.jpg,7,2021-04-18_15h32.44.031,premceCat2_ses-02_part-01_label-phase1,2020.2.9,Win32,60,1,1,1.943,0,14,14,14,1,,,,,,
1,"[1,1,1,1,1,1,1,1,1,1,0,1,1,1,1,1,1,1,0,1,1,1,1,1,1,0,1,1,1,0,1,0,1,1,0,1,0,1,0,0,1,1,1,1,0,1,0,1,0,0,1,1,1,0,1,1,0,1,0,1,0,1,1,0,1,1,1,1,1,1,0,0,1,1,1,1,0,1,1,0,0,1,1,1,0,0,1,0,0,0,0,0,0,0,0,0,0,1,1,1,1,0,1,1,1,1,1,0,0,1,0,0,1,0,1,1,1,0,1]",,,,,,,,,,1,,,,,,stimuli/m5.jpg,stimuli/m2.jpg,2,stimuli/Hand labour tool & accessory.png,stimuli/Electronic device & accessory.png,stimuli/Kitchen & utensil.png,stimuli/Outdoor activity & sport item.png,4,1,5,stimuli/m2.jpg,Outdoor activity & sport item,stimuli/objects/reflector.jpg,7,2021-04-18_15h32.44.031,premceCat2_ses-02_part-01_label-phase1,2020.2.9,Win32,60,4,1,1.07,0,15,15,15,1,,,,,,
0,"[1,1,1,1,1,1,1,1,1,1,0,1,1,1,1,1,1,1,0,1,1,1,1,1,1,0,1,1,1,0,1,0,1,1,0,1,0,1,0,0,1,1,1,1,0,1,0,1,0,0,1,1,1,0,1,1,0,1,0,1,0,1,1,0,1,1,1,1,1,1,0,0,1,1,1,1,0,1,1,0,0,1,1,1,0,0,1,0,0,0,0,0,0,0,0,0,0,1,1,1,1,0,1,1,1,1,1,0,0,1,0,0,1,0,1,1,1,0,1,1]",,,,,,,,,,0,,,,,,stimuli/m2.jpg,stimuli/m5.jpg,2,stimuli/Hand labour tool & accessory.png,stimuli/Kitchen & utensil.png,stimuli/Electronic device & accessory.png,stimuli/Outdoor activity & sport item.png,3,1,5,stimuli/m5.jpg,Electronic device & accessory,stimuli/objects/slidetray.jpg,7,2021-04-18_15h32.44.031,premceCat2_ses-02_part-01_label-phase1,2020.2.9,Win32,60,1,0,1.499,0,16,16,16,1,,,,,,
1,"[1,1,1,1,1,1,1,1,1,1,0,1,1,1,1,1,1,1,0,1,1,1,1,1,1,0,1,1,1,0,1,0,1,1,0,1,0,1,0,0,1,1,1,1,0,1,0,1,0,0,1,1,1,0,1,1,0,1,0,1,0,1,1,0,1,1,1,1,1,1,0,0,1,1,1,1,0,1,1,0,0,1,1,1,0,0,1,0,0,0,0,0,0,0,0,0,0,1,1,1,1,0,1,1,1,1,1,0,0,1,0,0,1,0,1,1,1,0,1,1,0]",,,,,,,,,,1,,,,,,stimuli/m2.jpg,stimuli/m5.jpg,1,stimuli/Outdoor activity & sport item.png,stimuli/Electronic device & accessory.png,stimuli/Hand labour tool & accessory.png,stimuli/Kitchen & utensil.png,1,1,5,stimuli/m2.jpg,Outdoor activity & sport item,stimuli/objects/iceskate.jpg,7,2021-04-18_15h32.44.031,premceCat2_ses-02_part-01_label-phase1,2020.2.9,Win32,60,1,1,2.522,0,17,17,17,1,,,,,,
1,"[1,1,1,1,1,1,1,1,1,1,0,1,1,1,1,1,1,1,0,1,1,1,1,1,1,0,1,1,1,0,1,0,1,1,0,1,0,1,0,0,1,1,1,1,0,1,0,1,0,0,1,1,1,0,1,1,0,1,0,1,0,1,1,0,1,1,1,1,1,1,0,0,1,1,1,1,0,1,1,0,0,1,1,1,0,0,1,0,0,0,0,0,0,0,0,0,0,1,1,1,1,0,1,1,1,1,1,0,0,1,0,0,1,0,1,1,1,0,1,1,0,1]",,,,,,,,,,1,,,,,,stimuli/m5.jpg,stimuli/m2.jpg,2,stimuli/Hand labour tool & accessory.png,stimuli/Electronic device & accessory.png,stimuli/Outdoor activity & sport item.png,stimuli/Kitchen & utensil.png,3,1,5,stimuli/m2.jpg,Outdoor activity & sport item,stimuli/objects/toyhockeystick01.jpg,7,2021-04-18_15h32.44.031,premceCat2_ses-02_part-01_label-phase1,2020.2.9,Win32,60,3,1,1.154,0,18,18,18,1,,,,,,
1,"[1,1,1,1,1,1,1,1,1,1,0,1,1,1,1,1,1,1,0,1,1,1,1,1,1,0,1,1,1,0,1,0,1,1,0,1,0,1,0,0,1,1,1,1,0,1,0,1,0,0,1,1,1,0,1,1,0,1,0,1,0,1,1,0,1,1,1,1,1,1,0,0,1,1,1,1,0,1,1,0,0,1,1,1,0,0,1,0,0,0,0,0,0,0,0,0,0,1,1,1,1,0,1,1,1,1,1,0,0,1,0,0,1,0,1,1,1,0,1,1,0,1,1]",,,,,,,,,,1,,,,,,stimuli/m2.jpg,stimuli/m5.jpg,1,stimuli/Hand labour tool & accessory.png,stimuli/Outdoor activity & sport item.png,stimuli/Electronic device & accessory.png,stimuli/Kitchen & utensil.png,2,1,5,stimuli/m2.jpg,Outdoor activity & sport item,stimuli/objects/swimgoggles.jpg,7,2021-04-18_15h32.44.031,premceCat2_ses-02_part-01_label-phase1,2020.2.9,Win32,60,2,1,0.645,0,19,19,19,1,,,,,,
1,"[1,1,1,1,1,1,1,1,1,1,0,1,1,1,1,1,1,1,0,1,1,1,1,1,1,0,1,1,1,0,1,0,1,1,0,1,0,1,0,0,1,1,1,1,0,1,0,1,0,0,1,1,1,0,1,1,0,1,0,1,0,1,1,0,1,1,1,1,1,1,0,0,1,1,1,1,0,1,1,0,0,1,1,1,0,0,1,0,0,0,0,0,0,0,0,0,0,1,1,1,1,0,1,1,1,1,1,0,0,1,0,0,1,0,1,1,1,0,1,1,0,1,1,1]",,,,,,,,,,1,,,,,,stimuli/m5.jpg,stimuli/m2.jpg,2,stimuli/Hand labour tool & accessory.png,stimuli/Outdoor activity & sport item.png,stimuli/Electronic device & accessory.png,stimuli/Kitchen & utensil.png,2,1,5,stimuli/m2.jpg,Outdoor activity & sport item,stimuli/objects/surfboard.jpg,7,2021-04-18_15h32.44.031,premceCat2_ses-02_part-01_label-phase1,2020.2.9,Win32,60,2,1,0.598,0,20,20,20,1,,,,,,
1,"[1,1,1,1,1,1,1,1,1,1,0,1,1,1,1,1,1,1,0,1,1,1,1,1,1,0,1,1,1,0,1,0,1,1,0,1,0,1,0,0,1,1,1,1,0,1,0,1,0,0,1,1,1,0,1,1,0,1,0,1,0,1,1,0,1,1,1,1,1,1,0,0,1,1,1,1,0,1,1,0,0,1,1,1,0,0,1,0,0,0,0,0,0,0,0,0,0,1,1,1,1,0,1,1,1,1,1,0,0,1,0,0,1,0,1,1,1,0,1,1,0,1,1,1,1]",,,,,,,,,,1,,,,,,stimuli/m2.jpg,stimuli/m5.jpg,2,stimuli/Electronic device & accessory.png,stimuli/Kitchen & utensil.png,stimuli/Outdoor activity & sport item.png,stimuli/Hand labour tool & accessory.png,4,0,5,stimuli/m5.jpg,Hand labour tool & accessory,stimuli/objects/snowshovel.jpg,7,2021-04-18_15h32.44.031,premceCat2_ses-02_part-01_label-phase1,2020.2.9,Win32,60,4,1,2.408,0,21,21,21,1,,,,,,
1,"[1,1,1,1,1,1,1,1,1,1,0,1,1,1,1,1,1,1,0,1,1,1,1,1,1,0,1,1,1,0,1,0,1,1,0,1,0,1,0,0,1,1,1,1,0,1,0,1,0,0,1,1,1,0,1,1,0,1,0,1,0,1,1,0,1,1,1,1,1,1,0,0,1,1,1,1,0,1,1,0,0,1,1,1,0,0,1,0,0,0,0,0,0,0,0,0,0,1,1,1,1,0,1,1,1,1,1,0,0,1,0,0,1,0,1,1,1,0,1,1,0,1,1,1,1]",,,,,,,,,,1,,,,,,stimuli/m2.jpg,stimuli/m5.jpg,1,stimuli/Outdoor activity & sport item.png,stimuli/Hand labour tool & accessory.png,stimuli/Electronic device & accessory.png,stimuli/Kitchen & utensil.png,1,1,5,stimuli/m2.jpg,Outdoor activity & sport item,stimuli/objects/propanetank01.jpg,7,2021-04-18_15h32.44.031,premceCat2_ses-02_part-01_label-phase1,2020.2.9,Win32,60,1,1,0.924,0,22,22,22,1,,,,,,
1,"[1,1,1,1,1,1,1,1,1,1,0,1,1,1,1,1,1,1,0,1,1,1,1,1,1,0,1,1,1,0,1,0,1,1,0,1,0,1,0,0,1,1,1,1,0,1,0,1,0,0,1,1,1,0,1,1,0,1,0,1,0,1,1,0,1,1,1,1,1,1,0,0,1,1,1,1,0,1,1,0,0,1,1,1,0,0,1,0,0,0,0,0,0,0,0,0,0,1,1,1,1,0,1,1,1,1,1,0,0,1,0,0,1,0,1,1,1,0,1,1,0,1,1,1,1,1]",,,,,,,,,,1,,,,,,stimuli/m5.jpg,stimuli/m2.jpg,1,stimuli/Electronic device & accessory.png,stimuli/Kitchen & utensil.png,stimuli/Outdoor activity & sport item.png,stimuli/Hand labour tool & accessory.png,4,0,5,stimuli/m5.jpg,Hand labour tool & accessory,stimuli/objects/rope03.jpg,7,2021-04-18_15h32.44.031,premceCat2_ses-02_part-01_label-phase1,2020.2.9,Win32,60,4,1,0.633,0,23,23,23,1,,,,,,
0,"[1,1,1,1,1,1,1,1,1,1,0,1,1,1,1,1,1,1,0,1,1,1,1,1,1,0,1,1,1,0,1,0,1,1,0,1,0,1,0,0,1,1,1,1,0,1,0,1,0,0,1,1,1,0,1,1,0,1,0,1,0,1,1,0,1,1,1,1,1,1,0,0,1,1,1,1,0,1,1,0,0,1,1,1,0,0,1,0,0,0,0,0,0,0,0,0,0,1,1,1,1,0,1,1,1,1,1,0,0,1,0,0,1,0,1,1,1,0,1,1,0,1,1,1,1,1]",,,,,,,,,,1,,,,,,stimuli/m5.jpg,stimuli/m2.jpg,1,stimuli/Outdoor activity & sport item.png,stimuli/Electronic device & accessory.png,stimuli/Kitchen & utensil.png,stimuli/Hand labour tool & accessory.png,1,0,5,stimuli/m5.jpg,Outdoor activity & sport item,stimuli/objects/podium.jpg,7,2021-04-18_15h32.44.031,premceCat2_ses-02_part-01_label-phase1,2020.2.9,Win32,60,4,0,0.863,0,24,24,24,1,,,,,,
0,"[1,1,1,1,1,1,1,1,1,1,0,1,1,1,1,1,1,1,0,1,1,1,1,1,1,0,1,1,1,0,1,0,1,1,0,1,0,1,0,0,1,1,1,1,0,1,0,1,0,0,1,1,1,0,1,1,0,1,0,1,0,1,1,0,1,1,1,1,1,1,0,0,1,1,1,1,0,1,1,0,0,1,1,1,0,0,1,0,0,0,0,0,0,0,0,0,0,1,1,1,1,0,1,1,1,1,1,0,0,1,0,0,1,0,1,1,1,0,1,1,0,1,1,1,1,1]",,,,,,,,,,0,,,,,,stimuli/m5.jpg,stimuli/m2.jpg,1,stimuli/Outdoor activity & sport item.png,stimuli/Hand labour tool & accessory.png,stimuli/Kitchen & utensil.png,stimuli/Electronic device & accessory.png,4,1,5,stimuli/m5.jpg,Electronic device & accessory,stimuli/objects/outletadapter.jpg,7,2021-04-18_15h32.44.031,premceCat2_ses-02_part-01_label-phase1,2020.2.9,Win32,60,1,0,1.782,0,25,25,25,1,,,,,,
0,"[1,1,1,1,1,1,1,1,1,1,0,1,1,1,1,1,1,1,0,1,1,1,1,1,1,0,1,1,1,0,1,0,1,1,0,1,0,1,0,0,1,1,1,1,0,1,0,1,0,0,1,1,1,0,1,1,0,1,0,1,0,1,1,0,1,1,1,1,1,1,0,0,1,1,1,1,0,1,1,0,0,1,1,1,0,0,1,0,0,0,0,0,0,0,0,0,0,1,1,1,1,0,1,1,1,1,1,0,0,1,0,0,1,0,1,1,1,0,1,1,0,1,1,1,1,1,0]",,,,,,,,,,0,,,,,,stimuli/m5.jpg,stimuli/m2.jpg,2,stimuli/Kitchen & utensil.png,stimuli/Outdoor activity & sport item.png,stimuli/Electronic device & accessory.png,stimuli/Hand labour tool & accessory.png,1,0,5,stimuli/m2.jpg,Kitchen & utensil,stimuli/objects/pastaspoon.jpg,7,2021-04-18_15h32.44.031,premceCat2_ses-02_part-01_label-phase1,2020.2.9,Win32,60,2,0,0.874,0,26,26,26,1,,,,,,
1,"[1,1,1,1,1,1,1,1,1,1,0,1,1,1,1,1,1,1,0,1,1,1,1,1,1,0,1,1,1,0,1,0,1,1,0,1,0,1,0,0,1,1,1,1,0,1,0,1,0,0,1,1,1,0,1,1,0,1,0,1,0,1,1,0,1,1,1,1,1,1,0,0,1,1,1,1,0,1,1,0,0,1,1,1,0,0,1,0,0,0,0,0,0,0,0,0,0,1,1,1,1,0,1,1,1,1,1,0,0,1,0,0,1,0,1,1,1,0,1,1,0,1,1,1,1,1,0]",,,,,,,,,,1,,,,,,stimuli/m2.jpg,stimuli/m5.jpg,2,stimuli/Outdoor activity & sport item.png,stimuli/Kitchen & utensil.png,stimuli/Hand labour tool & accessory.png,stimuli/Electronic device & accessory.png,4,1,5,stimuli/m5.jpg,Electronic device & accessory,stimuli/objects/dvdplayer.jpg,7,2021-04-18_15h32.44.031,premceCat2_ses-02_part-01_label-phase1,2020.2.9,Win32,60,4,1,0.841,0,27,27,27,1,,,,,,
0,"[1,1,1,1,1,1,1,1,1,1,0,1,1,1,1,1,1,1,0,1,1,1,1,1,1,0,1,1,1,0,1,0,1,1,0,1,0,1,0,0,1,1,1,1,0,1,0,1,0,0,1,1,1,0,1,1,0,1,0,1,0,1,1,0,1,1,1,1,1,1,0,0,1,1,1,1,0,1,1,0,0,1,1,1,0,0,1,0,0,0,0,0,0,0,0,0,0,1,1,1,1,0,1,1,1,1,1,0,0,1,0,0,1,0,1,1,1,0,1,1,0,1,1,1,1,1,0,1]",,,,,,,,,,1,,,,,,stimuli/m2.jpg,stimuli/m5.jpg,1,stimuli/Outdoor activity & sport item.png,stimuli/Kitchen & utensil.png,stimuli/Hand labour tool & accessory.png,stimuli/Electronic device & accessory.png,4,0,5,stimuli/m2.jpg,Electronic device & accessory,stimuli/objects/usbcable01a.jpg,7,2021-04-18_15h32.44.031,premceCat2_ses-02_part-01_label-phase1,2020.2.9,Win32,60,2,0,0.634,0,28,28,28,1,,,,,,
