myownaccuracy,respcorrs,minNrPractice,considerNrTrials,Instr_resp.keys,Instr_resp.rt,key_resp_2.keys,key_resp_2.rt,Instruction_loop.thisRepN,Instruction_loop.thisTrialN,Instruction_loop.thisN,Instruction_loop.thisIndex,Instruction_loop.ran,slides,participant,date,expName,psychopyVersion,OS,frameRate,key_resp_3.keys,key_resp_3.rt,taskGoresp.keys,taskGoresp.rt,pract_resp.keys,pract_resp.corr,myownaccuracyCORR,pract_loop.thisRepN,pract_loop.thisTrialN,pract_loop.thisN,pract_loop.thisIndex,pract_loop.ran,first_character,second_character,Cue,left_categ,centleft_categ,centright_categ,right_categ,corr_ans,trial_cond,switch_cond,cuedCharacter,corrCat,image,pract_resp.rt,rep_resp.keys,rep_resp.rt,repeat_pract.thisRepN,repeat_pract.thisTrialN,repeat_pract.thisN,repeat_pract.thisIndex,repeat_pract.ran,task_resp.keys,task_resp.corr,task_resp.rt,task_loop.thisRepN,task_loop.thisTrialN,task_loop.thisN,task_loop.thisIndex,task_loop.ran,obj_category,rep_resp_2.keys,rep_resp_2.rt,repeat_task2.thisRepN,repeat_task2.thisTrialN,repeat_task2.thisN,repeat_task2.thisIndex,repeat_task2.ran
[],[],10,10,space,18.512,space,21.271,0,0,0,0,1,stimuli/slide1.png,7,2021-04-17_13h45.58.122,premceCat2_ses-01_part-01_label-phase1,2020.2.9,Win32,60,,,,,,,,,,,,,,,,,,,,,,,,,,,,,,,,,,,,,,,,,,,,,,,,,
,,,,,,space,19.925,0,1,1,1,1,stimuli/slide2.png,7,2021-04-17_13h45.58.122,premceCat2_ses-01_part-01_label-phase1,2020.2.9,Win32,60,,,,,,,,,,,,,,,,,,,,,,,,,,,,,,,,,,,,,,,,,,,,,,,,,
,,,,,,space,13.508,0,2,2,2,1,stimuli/slide3.png,7,2021-04-17_13h45.58.122,premceCat2_ses-01_part-01_label-phase1,2020.2.9,Win32,60,,,,,,,,,,,,,,,,,,,,,,,,,,,,,,,,,,,,,,,,,,,,,,,,,
,,,,,,space,8.501,0,3,3,3,1,stimuli/slide4.png,7,2021-04-17_13h45.58.122,premceCat2_ses-01_part-01_label-phase1,2020.2.9,Win32,60,,,,,,,,,,,,,,,,,,,,,,,,,,,,,,,,,,,,,,,,,,,,,,,,,
,,,,,,space,9.549,0,4,4,4,1,stimuli/slide5.png,7,2021-04-17_13h45.58.122,premceCat2_ses-01_part-01_label-phase1,2020.2.9,Win32,60,,,,,,,,,,,,,,,,,,,,,,,,,,,,,,,,,,,,,,,,,,,,,,,,,
,,,,,,space,5.877,0,5,5,5,1,stimuli/slide6.png,7,2021-04-17_13h45.58.122,premceCat2_ses-01_part-01_label-phase1,2020.2.9,Win32,60,,,,,,,,,,,,,,,,,,,,,,,,,,,,,,,,,,,,,,,,,,,,,,,,,
0,[],,,,,,,,,,,,,7,2021-04-17_13h45.58.122,premceCat2_ses-01_part-01_label-phase1,2020.2.9,Win32,60,space,143.515,space,16.55,,0,0,0,0,0,0,1,stimuli/m1.jpg,stimuli/m4.jpg,2,stimuli/Stationary & school supply.png,stimuli/Vehicle.png,stimuli/Gamestoy & entertainment.png,stimuli/Clothing.png,4,1,0,stimuli/m4.jpg,Clothing,stimuli/objects/sneaker03b.jpg,,,,,,,,,,,,,,,,,,,,,,,,
0,[0],,,,,,,,,,,,,7,2021-04-17_13h45.58.122,premceCat2_ses-01_part-01_label-phase1,2020.2.9,Win32,60,,,,,4,0,0,0,1,1,1,1,stimuli/m1.jpg,stimuli/m4.jpg,2,stimuli/Stationary & school supply.png,stimuli/Clothing.png,stimuli/Vehicle.png,stimuli/Gamestoy & entertainment.png,1,0,0,stimuli/m4.jpg,Stationary & school supply,stimuli/objects/paperclip01b.jpg,1.394,,,,,,,,,,,,,,,,,,,,,,,
1,[0],,,,,,,,,,,,,7,2021-04-17_13h45.58.122,premceCat2_ses-01_part-01_label-phase1,2020.2.9,Win32,60,,,,,2,1,1,0,2,2,2,1,stimuli/m1.jpg,stimuli/m4.jpg,1,stimuli/Vehicle.png,stimuli/Stationary & school supply.png,stimuli/Clothing.png,stimuli/Gamestoy & entertainment.png,2,1,0,stimuli/m1.jpg,Stationary & school supply,stimuli/objects/protractor.jpg,2.04,,,,,,,,,,,,,,,,,,,,,,,
0,"[0,1]",,,,,,,,,,,,,7,2021-04-17_13h45.58.122,premceCat2_ses-01_part-01_label-phase1,2020.2.9,Win32,60,,,,,3,0,0,0,3,3,3,1,stimuli/m4.jpg,stimuli/m1.jpg,1,stimuli/Stationary & school supply.png,stimuli/Vehicle.png,stimuli/Gamestoy & entertainment.png,stimuli/Clothing.png,4,1,0,stimuli/m4.jpg,Clothing,stimuli/objects/hikingshoe01.jpg,1.821,,,,,,,,,,,,,,,,,,,,,,,
1,"[0,1,0]",,,,,,,,,,,,,7,2021-04-17_13h45.58.122,premceCat2_ses-01_part-01_label-phase1,2020.2.9,Win32,60,,,,,2,1,1,0,4,4,4,1,stimuli/m1.jpg,stimuli/m4.jpg,1,stimuli/Clothing.png,stimuli/Stationary & school supply.png,stimuli/Vehicle.png,stimuli/Gamestoy & entertainment.png,2,1,0,stimuli/m1.jpg,Stationary & school supply,stimuli/objects/book01b.jpg,1.217,,,,,,,,,,,,,,,,,,,,,,,
1,"[0,1,0,1]",,,,,,,,,,,,,7,2021-04-17_13h45.58.122,premceCat2_ses-01_part-01_label-phase1,2020.2.9,Win32,60,,,,,4,1,1,0,5,5,5,1,stimuli/m4.jpg,stimuli/m1.jpg,1,stimuli/Stationary & school supply.png,stimuli/Gamestoy & entertainment.png,stimuli/Vehicle.png,stimuli/Clothing.png,4,1,0,stimuli/m4.jpg,Clothing,stimuli/objects/shoelace.jpg,0.842,,,,,,,,,,,,,,,,,,,,,,,
0,"[0,1,0,1,1]",,,,,,,,,,,,,7,2021-04-17_13h45.58.122,premceCat2_ses-01_part-01_label-phase1,2020.2.9,Win32,60,,,,,2,0,0,0,6,6,6,1,stimuli/m1.jpg,stimuli/m4.jpg,2,stimuli/Clothing.png,stimuli/Stationary & school supply.png,stimuli/Vehicle.png,stimuli/Gamestoy & entertainment.png,1,1,0,stimuli/m4.jpg,Clothing,stimuli/objects/moccasin.jpg,0.686,,,,,,,,,,,,,,,,,,,,,,,
0,"[0,1,0,1,1,0]",,,,,,,,,,,,,7,2021-04-17_13h45.58.122,premceCat2_ses-01_part-01_label-phase1,2020.2.9,Win32,60,,,,,3,0,0,0,7,7,7,1,stimuli/m1.jpg,stimuli/m4.jpg,2,stimuli/Gamestoy & entertainment.png,stimuli/Clothing.png,stimuli/Stationary & school supply.png,stimuli/Vehicle.png,2,1,0,stimuli/m4.jpg,Clothing,stimuli/objects/waders.jpg,1.872,,,,,,,,,,,,,,,,,,,,,,,
0,"[0,1,0,1,1,0,0]",,,,,,,,,,,,,7,2021-04-17_13h45.58.122,premceCat2_ses-01_part-01_label-phase1,2020.2.9,Win32,60,,,,,4,0,0,0,8,8,8,1,stimuli/m4.jpg,stimuli/m1.jpg,2,stimuli/Vehicle.png,stimuli/Gamestoy & entertainment.png,stimuli/Stationary & school supply.png,stimuli/Clothing.png,3,1,0,stimuli/m1.jpg,Stationary & school supply,stimuli/objects/eraser.jpg,1.192,,,,,,,,,,,,,,,,,,,,,,,
1,"[0,1,0,1,1,0,0,0]",,,,,,,,,,,,,7,2021-04-17_13h45.58.122,premceCat2_ses-01_part-01_label-phase1,2020.2.9,Win32,60,,,,,1,1,1,0,9,9,9,1,stimuli/m4.jpg,stimuli/m1.jpg,2,stimuli/Stationary & school supply.png,stimuli/Vehicle.png,stimuli/Clothing.png,stimuli/Gamestoy & entertainment.png,1,1,0,stimuli/m1.jpg,Stationary & school supply,stimuli/objects/fountainpen.jpg,1.295,,,,,,,,,,,,,,,,,,,,,,,
1,"[0,1,0,1,1,0,0,0,1]",,,,,,,,,,,,,7,2021-04-17_13h45.58.122,premceCat2_ses-01_part-01_label-phase1,2020.2.9,Win32,60,,,,,2,1,1,0,10,10,10,1,stimuli/m4.jpg,stimuli/m1.jpg,1,stimuli/Vehicle.png,stimuli/Clothing.png,stimuli/Stationary & school supply.png,stimuli/Gamestoy & entertainment.png,2,1,0,stimuli/m4.jpg,Clothing,stimuli/objects/visor.jpg,1.497,,,,,,,,,,,,,,,,,,,,,,,
1,"[0,1,0,1,1,0,0,0,1,1]",,,,,,,,,,,,,7,2021-04-17_13h45.58.122,premceCat2_ses-01_part-01_label-phase1,2020.2.9,Win32,60,,,,,2,1,1,0,11,11,11,1,stimuli/m4.jpg,stimuli/m1.jpg,1,stimuli/Stationary & school supply.png,stimuli/Clothing.png,stimuli/Vehicle.png,stimuli/Gamestoy & entertainment.png,2,1,0,stimuli/m4.jpg,Clothing,stimuli/objects/mitten04.jpg,0.942,,,,,,,,,,,,,,,,,,,,,,,
0,"[0,1,0,1,1,0,0,0,1,1,1]",,,,,,,,,,,,,7,2021-04-17_13h45.58.122,premceCat2_ses-01_part-01_label-phase1,2020.2.9,Win32,60,,,,,1,0,0,0,12,12,12,1,stimuli/m4.jpg,stimuli/m1.jpg,2,stimuli/Clothing.png,stimuli/Stationary & school supply.png,stimuli/Vehicle.png,stimuli/Gamestoy & entertainment.png,2,1,0,stimuli/m1.jpg,Stationary & school supply,stimuli/objects/notebook03a.jpg,1.18,,,,,,,,,,,,,,,,,,,,,,,
0,"[0,1,0,1,1,0,0,0,1,1,1,0]",,,,,,,,,,,,,7,2021-04-17_13h45.58.122,premceCat2_ses-01_part-01_label-phase1,2020.2.9,Win32,60,,,,,2,0,0,0,13,13,13,1,stimuli/m4.jpg,stimuli/m1.jpg,1,stimuli/Vehicle.png,stimuli/Clothing.png,stimuli/Gamestoy & entertainment.png,stimuli/Stationary & school supply.png,1,0,0,stimuli/m4.jpg,Vehicle,stimuli/objects/locomotive.jpg,0.641,,,,,,,,,,,,,,,,,,,,,,,
0,"[0,1,0,1,1,0,0,0,1,1,1,0]",,,,,,,,,,,,,7,2021-04-17_13h45.58.122,premceCat2_ses-01_part-01_label-phase1,2020.2.9,Win32,60,,,,,1,0,0,0,14,14,14,1,stimuli/m4.jpg,stimuli/m1.jpg,2,stimuli/Gamestoy & entertainment.png,stimuli/Stationary & school supply.png,stimuli/Vehicle.png,stimuli/Clothing.png,2,1,0,stimuli/m1.jpg,Stationary & school supply,stimuli/objects/mechanicalpencil02.jpg,1.491,,,,,,,,,,,,,,,,,,,,,,,
0,"[0,1,0,1,1,0,0,0,1,1,1,0,0]",,,,,,,,,,,,,7,2021-04-17_13h45.58.122,premceCat2_ses-01_part-01_label-phase1,2020.2.9,Win32,60,,,,,2,0,0,0,15,15,15,1,stimuli/m4.jpg,stimuli/m1.jpg,1,stimuli/Gamestoy & entertainment.png,stimuli/Clothing.png,stimuli/Stationary & school supply.png,stimuli/Vehicle.png,1,0,0,stimuli/m4.jpg,Gamestoy & entertainment,stimuli/objects/rattle.jpg,0.884,,,,,,,,,,,,,,,,,,,,,,,
0,"[0,1,0,1,1,0,0,0,1,1,1,0,0]",,,,,,,,,,,,,7,2021-04-17_13h45.58.122,premceCat2_ses-01_part-01_label-phase1,2020.2.9,Win32,60,,,,,3,0,0,0,16,16,16,1,stimuli/m4.jpg,stimuli/m1.jpg,1,stimuli/Gamestoy & entertainment.png,stimuli/Vehicle.png,stimuli/Stationary & school supply.png,stimuli/Clothing.png,4,1,0,stimuli/m4.jpg,Clothing,stimuli/objects/sheriffhat.jpg,0.574,,,,,,,,,,,,,,,,,,,,,,,
1,"[0,1,0,1,1,0,0,0,1,1,1,0,0,0]",,,,,,,,,,,,,7,2021-04-17_13h45.58.122,premceCat2_ses-01_part-01_label-phase1,2020.2.9,Win32,60,,,,,2,1,1,0,17,17,17,1,stimuli/m4.jpg,stimuli/m1.jpg,1,stimuli/Gamestoy & entertainment.png,stimuli/Clothing.png,stimuli/Vehicle.png,stimuli/Stationary & school supply.png,2,1,0,stimuli/m4.jpg,Clothing,stimuli/objects/jeans01.jpg,0.76,,,,,,,,,,,,,,,,,,,,,,,
0,"[0,1,0,1,1,0,0,0,1,1,1,0,0,0,1]",,,,,,,,,,,,,7,2021-04-17_13h45.58.122,premceCat2_ses-01_part-01_label-phase1,2020.2.9,Win32,60,,,,,1,0,0,0,18,18,18,1,stimuli/m1.jpg,stimuli/m4.jpg,2,stimuli/Stationary & school supply.png,stimuli/Gamestoy & entertainment.png,stimuli/Vehicle.png,stimuli/Clothing.png,4,1,0,stimuli/m4.jpg,Clothing,stimuli/objects/bowtie.jpg,0.84,,,,,,,,,,,,,,,,,,,,,,,
0,"[0,1,0,1,1,0,0,0,1,1,1,0,0,0,1,0]",,,,,,,,,,,,,7,2021-04-17_13h45.58.122,premceCat2_ses-01_part-01_label-phase1,2020.2.9,Win32,60,,,,,1,0,0,0,19,19,19,1,stimuli/m1.jpg,stimuli/m4.jpg,1,stimuli/Stationary & school supply.png,stimuli/Clothing.png,stimuli/Vehicle.png,stimuli/Gamestoy & entertainment.png,3,0,0,stimuli/m1.jpg,Vehicle,stimuli/objects/porsche.jpg,1.576,,,,,,,,,,,,,,,,,,,,,,,
1,"[0,1,0,1,1,0,0,0,1,1,1,0,0,0,1,0]",,,,,,,,,,,,,7,2021-04-17_13h45.58.122,premceCat2_ses-01_part-01_label-phase1,2020.2.9,Win32,60,,,,,3,1,0,0,20,20,20,1,stimuli/m1.jpg,stimuli/m4.jpg,1,stimuli/Vehicle.png,stimuli/Gamestoy & entertainment.png,stimuli/Clothing.png,stimuli/Stationary & school supply.png,3,0,0,stimuli/m1.jpg,Clothing,stimuli/objects/sandal.jpg,1.521,,,,,,,,,,,,,,,,,,,,,,,
0,"[0,1,0,1,1,0,0,0,1,1,1,0,0,0,1,0]",,,,,,,,,,,,,7,2021-04-17_13h45.58.122,premceCat2_ses-01_part-01_label-phase1,2020.2.9,Win32,60,,,,,2,0,0,0,21,21,21,1,stimuli/m4.jpg,stimuli/m1.jpg,2,stimuli/Vehicle.png,stimuli/Clothing.png,stimuli/Gamestoy & entertainment.png,stimuli/Stationary & school supply.png,4,1,0,stimuli/m1.jpg,Stationary & school supply,stimuli/objects/chalkboard01.jpg,1.178,,,,,,,,,,,,,,,,,,,,,,,
1,"[0,1,0,1,1,0,0,0,1,1,1,0,0,0,1,0,0]",,,,,,,,,,,,,7,2021-04-17_13h45.58.122,premceCat2_ses-01_part-01_label-phase1,2020.2.9,Win32,60,,,,,3,1,1,0,22,22,22,1,stimuli/m4.jpg,stimuli/m1.jpg,1,stimuli/Gamestoy & entertainment.png,stimuli/Stationary & school supply.png,stimuli/Clothing.png,stimuli/Vehicle.png,3,1,0,stimuli/m4.jpg,Clothing,stimuli/objects/tie02.jpg,0.703,,,,,,,,,,,,,,,,,,,,,,,
0,"[0,1,0,1,1,0,0,0,1,1,1,0,0,0,1,0,0,1]",,,,,,,,,,,,,7,2021-04-17_13h45.58.122,premceCat2_ses-01_part-01_label-phase1,2020.2.9,Win32,60,,,,,3,0,0,0,23,23,23,1,stimuli/m4.jpg,stimuli/m1.jpg,2,stimuli/Vehicle.png,stimuli/Gamestoy & entertainment.png,stimuli/Clothing.png,stimuli/Stationary & school supply.png,4,1,0,stimuli/m1.jpg,Stationary & school supply,stimuli/objects/papertray.jpg,1.23,,,,,,,,,,,,,,,,,,,,,,,
1,"[0,1,0,1,1,0,0,0,1,1,1,0,0,0,1,0,0,1,0]",,,,,,,,,,,,,7,2021-04-17_13h45.58.122,premceCat2_ses-01_part-01_label-phase1,2020.2.9,Win32,60,,,,,1,1,1,0,24,24,24,1,stimuli/m4.jpg,stimuli/m1.jpg,1,stimuli/Clothing.png,stimuli/Gamestoy & entertainment.png,stimuli/Vehicle.png,stimuli/Stationary & school supply.png,1,1,0,stimuli/m4.jpg,Clothing,stimuli/objects/shirt02.jpg,1.236,,,,,,,,,,,,,,,,,,,,,,,
0,"[0,1,0,1,1,0,0,0,1,1,1,0,0,0,1,0,0,1,0,1]",,,,,,,,,,,,,7,2021-04-17_13h45.58.122,premceCat2_ses-01_part-01_label-phase1,2020.2.9,Win32,60,,,,,4,0,0,0,25,25,25,1,stimuli/m4.jpg,stimuli/m1.jpg,2,stimuli/Vehicle.png,stimuli/Stationary & school supply.png,stimuli/Gamestoy & entertainment.png,stimuli/Clothing.png,2,1,0,stimuli/m1.jpg,Stationary & school supply,stimuli/objects/pen04b.jpg,1.773,,,,,,,,,,,,,,,,,,,,,,,
0,"[0,1,0,1,1,0,0,0,1,1,1,0,0,0,1,0,0,1,0,1,0]",,,,,,,,,,,,,7,2021-04-17_13h45.58.122,premceCat2_ses-01_part-01_label-phase1,2020.2.9,Win32,60,,,,,2,0,0,0,26,26,26,1,stimuli/m4.jpg,stimuli/m1.jpg,2,stimuli/Clothing.png,stimuli/Gamestoy & entertainment.png,stimuli/Vehicle.png,stimuli/Stationary & school supply.png,4,1,0,stimuli/m1.jpg,Stationary & school supply,stimuli/objects/divider02.jpg,1.395,,,,,,,,,,,,,,,,,,,,,,,
0,"[0,1,0,1,1,0,0,0,1,1,1,0,0,0,1,0,0,1,0,1,0,0]",,,,,,,,,,,,,7,2021-04-17_13h45.58.122,premceCat2_ses-01_part-01_label-phase1,2020.2.9,Win32,60,,,,,3,0,0,0,27,27,27,1,stimuli/m4.jpg,stimuli/m1.jpg,1,stimuli/Vehicle.png,stimuli/Gamestoy & entertainment.png,stimuli/Clothing.png,stimuli/Stationary & school supply.png,4,0,0,stimuli/m4.jpg,Stationary & school supply,stimuli/objects/expandablefolder03a.jpg,1.775,,,,,,,,,,,,,,,,,,,,,,,
1,"[0,1,0,1,1,0,0,0,1,1,1,0,0,0,1,0,0,1,0,1,0,0]",,,,,,,,,,,,,7,2021-04-17_13h45.58.122,premceCat2_ses-01_part-01_label-phase1,2020.2.9,Win32,60,,,,,3,1,1,0,28,28,28,1,stimuli/m1.jpg,stimuli/m4.jpg,2,stimuli/Vehicle.png,stimuli/Stationary & school supply.png,stimuli/Clothing.png,stimuli/Gamestoy & entertainment.png,3,1,0,stimuli/m4.jpg,Clothing,stimuli/objects/sock01a.jpg,0.789,,,,,,,,,,,,,,,,,,,,,,,
1,"[0,1,0,1,1,0,0,0,1,1,1,0,0,0,1,0,0,1,0,1,0,0,1]",,,,,,,,,,,,,7,2021-04-17_13h45.58.122,premceCat2_ses-01_part-01_label-phase1,2020.2.9,Win32,60,,,,,4,1,1,0,29,29,29,1,stimuli/m1.jpg,stimuli/m4.jpg,1,stimuli/Gamestoy & entertainment.png,stimuli/Vehicle.png,stimuli/Clothing.png,stimuli/Stationary & school supply.png,4,1,0,stimuli/m1.jpg,Stationary & school supply,stimuli/objects/pencilsharpener02a.jpg,0.865,,,,,,,,,,,,,,,,,,,,,,,
0,"[0,1,0,1,1,0,0,0,1,1,1,0,0,0,1,0,0,1,0,1,0,0,1,1]",,,,,,,,,,,,,7,2021-04-17_13h45.58.122,premceCat2_ses-01_part-01_label-phase1,2020.2.9,Win32,60,,,,,4,0,1,0,30,30,30,1,stimuli/m4.jpg,stimuli/m1.jpg,2,stimuli/Clothing.png,stimuli/Vehicle.png,stimuli/Gamestoy & entertainment.png,stimuli/Stationary & school supply.png,3,0,0,stimuli/m1.jpg,Gamestoy & entertainment,stimuli/objects/interlockingbuildingblock03b.jpg,0.64,,,,,,,,,,,,,,,,,,,,,,,
1,"[0,1,0,1,1,0,0,0,1,1,1,0,0,0,1,0,0,1,0,1,0,0,1,1]",,,,,,,,,,,,,7,2021-04-17_13h45.58.122,premceCat2_ses-01_part-01_label-phase1,2020.2.9,Win32,60,,,,,3,1,1,0,31,31,31,1,stimuli/m4.jpg,stimuli/m1.jpg,2,stimuli/Clothing.png,stimuli/Gamestoy & entertainment.png,stimuli/Stationary & school supply.png,stimuli/Vehicle.png,3,1,0,stimuli/m1.jpg,Stationary & school supply,stimuli/objects/scotchtape.jpg,0.963,,,,,,,,,,,,,,,,,,,,,,,
0,"[0,1,0,1,1,0,0,0,1,1,1,0,0,0,1,0,0,1,0,1,0,0,1,1,1]",,,,,,,,,,,,,7,2021-04-17_13h45.58.122,premceCat2_ses-01_part-01_label-phase1,2020.2.9,Win32,60,,,,,1,0,1,0,32,32,32,1,stimuli/m4.jpg,stimuli/m1.jpg,2,stimuli/Stationary & school supply.png,stimuli/Vehicle.png,stimuli/Gamestoy & entertainment.png,stimuli/Clothing.png,2,0,0,stimuli/m1.jpg,Vehicle,stimuli/objects/mailtruck.jpg,1.533,,,,,,,,,,,,,,,,,,,,,,,
0,"[0,1,0,1,1,0,0,0,1,1,1,0,0,0,1,0,0,1,0,1,0,0,1,1,1]",,,,,,,,,,,,,7,2021-04-17_13h45.58.122,premceCat2_ses-01_part-01_label-phase1,2020.2.9,Win32,60,,,,,1,0,0,0,33,33,33,1,stimuli/m1.jpg,stimuli/m4.jpg,2,stimuli/Stationary & school supply.png,stimuli/Vehicle.png,stimuli/Clothing.png,stimuli/Gamestoy & entertainment.png,3,1,0,stimuli/m4.jpg,Clothing,stimuli/objects/flipflop01b.jpg,0.942,,,,,,,,,,,,,,,,,,,,,,,
1,"[0,1,0,1,1,0,0,0,1,1,1,0,0,0,1,0,0,1,0,1,0,0,1,1,1,0]",,,,,,,,,,,,,7,2021-04-17_13h45.58.122,premceCat2_ses-01_part-01_label-phase1,2020.2.9,Win32,60,,,,,2,1,1,0,34,34,34,1,stimuli/m1.jpg,stimuli/m4.jpg,2,stimuli/Vehicle.png,stimuli/Clothing.png,stimuli/Stationary & school supply.png,stimuli/Gamestoy & entertainment.png,2,1,0,stimuli/m4.jpg,Clothing,stimuli/objects/witchhat.jpg,0.697,,,,,,,,,,,,,,,,,,,,,,,
0,"[0,1,0,1,1,0,0,0,1,1,1,0,0,0,1,0,0,1,0,1,0,0,1,1,1,0,1]",,,,,,,,,,,,,7,2021-04-17_13h45.58.122,premceCat2_ses-01_part-01_label-phase1,2020.2.9,Win32,60,,,,,1,0,0,0,35,35,35,1,stimuli/m1.jpg,stimuli/m4.jpg,1,stimuli/Clothing.png,stimuli/Vehicle.png,stimuli/Gamestoy & entertainment.png,stimuli/Stationary & school supply.png,4,1,0,stimuli/m1.jpg,Stationary & school supply,stimuli/objects/chalk.jpg,0.865,,,,,,,,,,,,,,,,,,,,,,,
1,"[0,1,0,1,1,0,0,0,1,1,1,0,0,0,1,0,0,1,0,1,0,0,1,1,1,0,1,0]",,,,,,,,,,,,,7,2021-04-17_13h45.58.122,premceCat2_ses-01_part-01_label-phase1,2020.2.9,Win32,60,,,,,4,1,1,0,36,36,36,1,stimuli/m4.jpg,stimuli/m1.jpg,2,stimuli/Gamestoy & entertainment.png,stimuli/Vehicle.png,stimuli/Clothing.png,stimuli/Stationary & school supply.png,4,1,0,stimuli/m1.jpg,Stationary & school supply,stimuli/objects/stapleremover.jpg,0.978,,,,,,,,,,,,,,,,,,,,,,,
1,"[0,1,0,1,1,0,0,0,1,1,1,0,0,0,1,0,0,1,0,1,0,0,1,1,1,0,1,0,1]",,,,,,,,,,,,,7,2021-04-17_13h45.58.122,premceCat2_ses-01_part-01_label-phase1,2020.2.9,Win32,60,,,,,2,1,1,0,37,37,37,1,stimuli/m4.jpg,stimuli/m1.jpg,2,stimuli/Clothing.png,stimuli/Stationary & school supply.png,stimuli/Gamestoy & entertainment.png,stimuli/Vehicle.png,2,1,0,stimuli/m1.jpg,Stationary & school supply,stimuli/objects/highlighter02b.jpg,0.742,,,,,,,,,,,,,,,,,,,,,,,
0,"[0,1,0,1,1,0,0,0,1,1,1,0,0,0,1,0,0,1,0,1,0,0,1,1,1,0,1,0,1,1]",,,,,,,,,,,,,7,2021-04-17_13h45.58.122,premceCat2_ses-01_part-01_label-phase1,2020.2.9,Win32,60,,,,,3,0,0,0,38,38,38,1,stimuli/m1.jpg,stimuli/m4.jpg,2,stimuli/Stationary & school supply.png,stimuli/Clothing.png,stimuli/Gamestoy & entertainment.png,stimuli/Vehicle.png,2,1,0,stimuli/m4.jpg,Clothing,stimuli/objects/hat03b.jpg,0.884,,,,,,,,,,,,,,,,,,,,,,,
0,"[0,1,0,1,1,0,0,0,1,1,1,0,0,0,1,0,0,1,0,1,0,0,1,1,1,0,1,0,1,1,0]",,,,,,,,,,,,,7,2021-04-17_13h45.58.122,premceCat2_ses-01_part-01_label-phase1,2020.2.9,Win32,60,,,,,3,0,0,0,39,39,39,1,stimuli/m1.jpg,stimuli/m4.jpg,1,stimuli/Gamestoy & entertainment.png,stimuli/Vehicle.png,stimuli/Stationary & school supply.png,stimuli/Clothing.png,1,0,0,stimuli/m1.jpg,Gamestoy & entertainment,stimuli/objects/beachpaddle01a.jpg,0.628,,,,,,,,,,,,,,,,,,,,,,,
1,"[0,1,0,1,1,0,0,0,1,1,1,0,0,0,1,0,0,1,0,1,0,0,1,1,1,0,1,0,1,1,0]",,,,,,,,,,,,,7,2021-04-17_13h45.58.122,premceCat2_ses-01_part-01_label-phase1,2020.2.9,Win32,60,,,,,1,1,1,0,40,40,40,1,stimuli/m4.jpg,stimuli/m1.jpg,1,stimuli/Clothing.png,stimuli/Stationary & school supply.png,stimuli/Vehicle.png,stimuli/Gamestoy & entertainment.png,1,1,0,stimuli/m4.jpg,Clothing,stimuli/objects/overalls.jpg,0.671,,,,,,,,,,,,,,,,,,,,,,,
1,"[0,1,0,1,1,0,0,0,1,1,1,0,0,0,1,0,0,1,0,1,0,0,1,1,1,0,1,0,1,1,0,1]",,,,,,,,,,,,,7,2021-04-17_13h45.58.122,premceCat2_ses-01_part-01_label-phase1,2020.2.9,Win32,60,,,,,1,1,1,0,41,41,41,1,stimuli/m1.jpg,stimuli/m4.jpg,2,stimuli/Clothing.png,stimuli/Stationary & school supply.png,stimuli/Gamestoy & entertainment.png,stimuli/Vehicle.png,1,1,0,stimuli/m4.jpg,Clothing,stimuli/objects/tuque03a.jpg,1.046,,,,,,,,,,,,,,,,,,,,,,,
1,"[0,1,0,1,1,0,0,0,1,1,1,0,0,0,1,0,0,1,0,1,0,0,1,1,1,0,1,0,1,1,0,1,1]",,,,,,,,,,,,,7,2021-04-17_13h45.58.122,premceCat2_ses-01_part-01_label-phase1,2020.2.9,Win32,60,,,,,4,1,1,0,42,42,42,1,stimuli/m1.jpg,stimuli/m4.jpg,2,stimuli/Gamestoy & entertainment.png,stimuli/Stationary & school supply.png,stimuli/Vehicle.png,stimuli/Clothing.png,4,1,0,stimuli/m4.jpg,Clothing,stimuli/objects/shirt01.jpg,1.078,,,,,,,,,,,,,,,,,,,,,,,
1,"[0,1,0,1,1,0,0,0,1,1,1,0,0,0,1,0,0,1,0,1,0,0,1,1,1,0,1,0,1,1,0,1,1,1]",,,,,,,,,,,,,7,2021-04-17_13h45.58.122,premceCat2_ses-01_part-01_label-phase1,2020.2.9,Win32,60,,,,,2,1,1,0,43,43,43,1,stimuli/m1.jpg,stimuli/m4.jpg,1,stimuli/Vehicle.png,stimuli/Stationary & school supply.png,stimuli/Gamestoy & entertainment.png,stimuli/Clothing.png,2,1,0,stimuli/m1.jpg,Stationary & school supply,stimuli/objects/smartboard.jpg,0.618,,,,,,,,,,,,,,,,,,,,,,,
0,"[0,1,0,1,1,0,0,0,1,1,1,0,0,0,1,0,0,1,0,1,0,0,1,1,1,0,1,0,1,1,0,1,1,1,1]",,,,,,,,,,,,,7,2021-04-17_13h45.58.122,premceCat2_ses-01_part-01_label-phase1,2020.2.9,Win32,60,,,,,3,0,0,0,44,44,44,1,stimuli/m1.jpg,stimuli/m4.jpg,2,stimuli/Clothing.png,stimuli/Gamestoy & entertainment.png,stimuli/Stationary & school supply.png,stimuli/Vehicle.png,1,1,0,stimuli/m4.jpg,Clothing,stimuli/objects/belt02a.jpg,1.244,,,,,,,,,,,,,,,,,,,,,,,
1,"[0,1,0,1,1,0,0,0,1,1,1,0,0,0,1,0,0,1,0,1,0,0,1,1,1,0,1,0,1,1,0,1,1,1,1,0]",,,,,,,,,,,,,7,2021-04-17_13h45.58.122,premceCat2_ses-01_part-01_label-phase1,2020.2.9,Win32,60,,,,,1,1,1,0,45,45,45,1,stimuli/m4.jpg,stimuli/m1.jpg,2,stimuli/Stationary & school supply.png,stimuli/Clothing.png,stimuli/Gamestoy & entertainment.png,stimuli/Vehicle.png,1,1,0,stimuli/m1.jpg,Stationary & school supply,stimuli/objects/clipboard.jpg,0.843,,,,,,,,,,,,,,,,,,,,,,,
1,"[0,1,0,1,1,0,0,0,1,1,1,0,0,0,1,0,0,1,0,1,0,0,1,1,1,0,1,0,1,1,0,1,1,1,1,0,1]",,,,,,,,,,,,,7,2021-04-17_13h45.58.122,premceCat2_ses-01_part-01_label-phase1,2020.2.9,Win32,60,,,,,1,1,1,0,46,46,46,1,stimuli/m4.jpg,stimuli/m1.jpg,1,stimuli/Clothing.png,stimuli/Stationary & school supply.png,stimuli/Gamestoy & entertainment.png,stimuli/Vehicle.png,1,1,0,stimuli/m4.jpg,Clothing,stimuli/objects/athleticsock.jpg,1.094,,,,,,,,,,,,,,,,,,,,,,,
,,,,,,,,,,,,,,7,2021-04-17_13h45.58.122,premceCat2_ses-01_part-01_label-phase1,2020.2.9,Win32,60,,,,,,,,,,,,,,,,,,,,,,,,,,,n,72.997,0,0,0,0,1,,,,,,,,,,,,,,,,
1,"[0,1,0,1,1,0,0,0,1,1,1,0,0,0,1,0,0,1,0,1,0,0,1,1,1,0,1,0,1,1,0,1,1,1,1,0,1,1]",,,,,,,,,,,,,7,2021-04-17_13h45.58.122,premceCat2_ses-01_part-01_label-phase1,2020.2.9,Win32,60,,,,,,,1,,,,,,stimuli/m2.jpg,stimuli/m5.jpg,2,stimuli/Outdoor activity & sport item.png,stimuli/Hand labour tool & accessory.png,stimuli/Electronic device & accessory.png,stimuli/Kitchen & utensil.png,2,1,1,stimuli/m5.jpg,,stimuli/objects/jumpingjack.jpg,,,,,,,,,2,1,1.422,0,0,0,0,1,Hand labour tool & accessory,,,,,,,
1,"[0,1,0,1,1,0,0,0,1,1,1,0,0,0,1,0,0,1,0,1,0,0,1,1,1,0,1,0,1,1,0,1,1,1,1,0,1,1,1]",,,,,,,,,,,,,7,2021-04-17_13h45.58.122,premceCat2_ses-01_part-01_label-phase1,2020.2.9,Win32,60,,,,,,,1,,,,,,stimuli/m2.jpg,stimuli/m5.jpg,2,stimuli/Hand labour tool & accessory.png,stimuli/Outdoor activity & sport item.png,stimuli/Electronic device & accessory.png,stimuli/Kitchen & utensil.png,1,1,1,stimuli/m5.jpg,,stimuli/objects/boxcutter03a.jpg,,,,,,,,,1,1,2.188,0,1,1,1,1,Hand labour tool & accessory,,,,,,,
0,"[0,1,0,1,1,0,0,0,1,1,1,0,0,0,1,0,0,1,0,1,0,0,1,1,1,0,1,0,1,1,0,1,1,1,1,0,1,1,1,1]",,,,,,,,,,,,,7,2021-04-17_13h45.58.122,premceCat2_ses-01_part-01_label-phase1,2020.2.9,Win32,60,,,,,,,1,,,,,,stimuli/m2.jpg,stimuli/m5.jpg,1,stimuli/Hand labour tool & accessory.png,stimuli/Kitchen & utensil.png,stimuli/Electronic device & accessory.png,stimuli/Outdoor activity & sport item.png,2,0,1,stimuli/m2.jpg,,stimuli/objects/huntingknife.jpg,,,,,,,,,3,0,1.158,0,2,2,2,1,Kitchen & utensil,,,,,,,
0,"[0,1,0,1,1,0,0,0,1,1,1,0,0,0,1,0,0,1,0,1,0,0,1,1,1,0,1,0,1,1,0,1,1,1,1,0,1,1,1,1]",,,,,,,,,,,,,7,2021-04-17_13h45.58.122,premceCat2_ses-01_part-01_label-phase1,2020.2.9,Win32,60,,,,,,,0,,,,,,stimuli/m5.jpg,stimuli/m2.jpg,2,stimuli/Kitchen & utensil.png,stimuli/Electronic device & accessory.png,stimuli/Hand labour tool & accessory.png,stimuli/Outdoor activity & sport item.png,4,1,1,stimuli/m2.jpg,,stimuli/objects/footballhelmet.jpg,,,,,,,,,1,0,2.174,0,3,3,3,1,Outdoor activity & sport item,,,,,,,
0,"[0,1,0,1,1,0,0,0,1,1,1,0,0,0,1,0,0,1,0,1,0,0,1,1,1,0,1,0,1,1,0,1,1,1,1,0,1,1,1,1,0]",,,,,,,,,,,,,7,2021-04-17_13h45.58.122,premceCat2_ses-01_part-01_label-phase1,2020.2.9,Win32,60,,,,,,,0,,,,,,stimuli/m5.jpg,stimuli/m2.jpg,1,stimuli/Outdoor activity & sport item.png,stimuli/Hand labour tool & accessory.png,stimuli/Kitchen & utensil.png,stimuli/Electronic device & accessory.png,2,1,1,stimuli/m5.jpg,,stimuli/objects/handrake01a.jpg,,,,,,,,,3,0,1.422,0,4,4,4,1,Hand labour tool & accessory,,,,,,,
1,"[0,1,0,1,1,0,0,0,1,1,1,0,0,0,1,0,0,1,0,1,0,0,1,1,1,0,1,0,1,1,0,1,1,1,1,0,1,1,1,1,0,0]",,,,,,,,,,,,,7,2021-04-17_13h45.58.122,premceCat2_ses-01_part-01_label-phase1,2020.2.9,Win32,60,,,,,,,1,,,,,,stimuli/m2.jpg,stimuli/m5.jpg,1,stimuli/Outdoor activity & sport item.png,stimuli/Electronic device & accessory.png,stimuli/Hand labour tool & accessory.png,stimuli/Kitchen & utensil.png,1,1,1,stimuli/m2.jpg,,stimuli/objects/crosscountryski.jpg,,,,,,,,,1,1,1.143,0,5,5,5,1,Outdoor activity & sport item,,,,,,,
0,"[0,1,0,1,1,0,0,0,1,1,1,0,0,0,1,0,0,1,0,1,0,0,1,1,1,0,1,0,1,1,0,1,1,1,1,0,1,1,1,1,0,0,1]",,,,,,,,,,,,,7,2021-04-17_13h45.58.122,premceCat2_ses-01_part-01_label-phase1,2020.2.9,Win32,60,,,,,,,1,,,,,,stimuli/m5.jpg,stimuli/m2.jpg,2,stimuli/Hand labour tool & accessory.png,stimuli/Electronic device & accessory.png,stimuli/Outdoor activity & sport item.png,stimuli/Kitchen & utensil.png,2,0,1,stimuli/m2.jpg,,stimuli/objects/television.jpg,,,,,,,,,3,0,0.82,0,6,6,6,1,Electronic device & accessory,,,,,,,
1,"[0,1,0,1,1,0,0,0,1,1,1,0,0,0,1,0,0,1,0,1,0,0,1,1,1,0,1,0,1,1,0,1,1,1,1,0,1,1,1,1,0,0,1]",,,,,,,,,,,,,7,2021-04-17_13h45.58.122,premceCat2_ses-01_part-01_label-phase1,2020.2.9,Win32,60,,,,,,,1,,,,,,stimuli/m5.jpg,stimuli/m2.jpg,2,stimuli/Kitchen & utensil.png,stimuli/Outdoor activity & sport item.png,stimuli/Hand labour tool & accessory.png,stimuli/Electronic device & accessory.png,2,1,1,stimuli/m2.jpg,,stimuli/objects/hose.jpg,,,,,,,,,2,1,0.858,0,7,7,7,1,Outdoor activity & sport item,,,,,,,
0,"[0,1,0,1,1,0,0,0,1,1,1,0,0,0,1,0,0,1,0,1,0,0,1,1,1,0,1,0,1,1,0,1,1,1,1,0,1,1,1,1,0,0,1,1]",,,,,,,,,,,,,7,2021-04-17_13h45.58.122,premceCat2_ses-01_part-01_label-phase1,2020.2.9,Win32,60,,,,,,,0,,,,,,stimuli/m2.jpg,stimuli/m5.jpg,2,stimuli/Hand labour tool & accessory.png,stimuli/Electronic device & accessory.png,stimuli/Kitchen & utensil.png,stimuli/Outdoor activity & sport item.png,1,1,1,stimuli/m5.jpg,,stimuli/objects/solderingiron.jpg,,,,,,,,,3,0,1.894,0,8,8,8,1,Hand labour tool & accessory,,,,,,,
0,"[0,1,0,1,1,0,0,0,1,1,1,0,0,0,1,0,0,1,0,1,0,0,1,1,1,0,1,0,1,1,0,1,1,1,1,0,1,1,1,1,0,0,1,1,0]",,,,,,,,,,,,,7,2021-04-17_13h45.58.122,premceCat2_ses-01_part-01_label-phase1,2020.2.9,Win32,60,,,,,,,0,,,,,,stimuli/m2.jpg,stimuli/m5.jpg,2,stimuli/Electronic device & accessory.png,stimuli/Kitchen & utensil.png,stimuli/Hand labour tool & accessory.png,stimuli/Outdoor activity & sport item.png,3,1,1,stimuli/m5.jpg,,stimuli/objects/gavel.jpg,,,,,,,,,1,0,1.614,0,9,9,9,1,Hand labour tool & accessory,,,,,,,
1,"[0,1,0,1,1,0,0,0,1,1,1,0,0,0,1,0,0,1,0,1,0,0,1,1,1,0,1,0,1,1,0,1,1,1,1,0,1,1,1,1,0,0,1,1,0,0]",,,,,,,,,,,,,7,2021-04-17_13h45.58.122,premceCat2_ses-01_part-01_label-phase1,2020.2.9,Win32,60,,,,,,,1,,,,,,stimuli/m5.jpg,stimuli/m2.jpg,1,stimuli/Kitchen & utensil.png,stimuli/Electronic device & accessory.png,stimuli/Outdoor activity & sport item.png,stimuli/Hand labour tool & accessory.png,4,1,1,stimuli/m5.jpg,,stimuli/objects/boxcutter03a.jpg,,,,,,,,,4,1,1.735,0,10,10,10,1,Hand labour tool & accessory,,,,,,,
0,"[0,1,0,1,1,0,0,0,1,1,1,0,0,0,1,0,0,1,0,1,0,0,1,1,1,0,1,0,1,1,0,1,1,1,1,0,1,1,1,1,0,0,1,1,0,0,1]",,,,,,,,,,,,,7,2021-04-17_13h45.58.122,premceCat2_ses-01_part-01_label-phase1,2020.2.9,Win32,60,,,,,,,1,,,,,,stimuli/m2.jpg,stimuli/m5.jpg,2,stimuli/Electronic device & accessory.png,stimuli/Hand labour tool & accessory.png,stimuli/Outdoor activity & sport item.png,stimuli/Kitchen & utensil.png,1,0,1,stimuli/m5.jpg,,stimuli/objects/walkietalkie.jpg,,,,,,,,,4,0,1.943,0,11,11,11,1,Electronic device & accessory,,,,,,,
0,"[0,1,0,1,1,0,0,0,1,1,1,0,0,0,1,0,0,1,0,1,0,0,1,1,1,0,1,0,1,1,0,1,1,1,1,0,1,1,1,1,0,0,1,1,0,0,1]",,,,,,,,,,,,,7,2021-04-17_13h45.58.122,premceCat2_ses-01_part-01_label-phase1,2020.2.9,Win32,60,,,,,,,1,,,,,,stimuli/m2.jpg,stimuli/m5.jpg,1,stimuli/Kitchen & utensil.png,stimuli/Electronic device & accessory.png,stimuli/Hand labour tool & accessory.png,stimuli/Outdoor activity & sport item.png,1,0,1,stimuli/m2.jpg,,stimuli/objects/coffeemaker.jpg,,,,,,,,,4,0,1.608,0,12,12,12,1,Kitchen & utensil,,,,,,,
0,"[0,1,0,1,1,0,0,0,1,1,1,0,0,0,1,0,0,1,0,1,0,0,1,1,1,0,1,0,1,1,0,1,1,1,1,0,1,1,1,1,0,0,1,1,0,0,1]",,,,,,,,,,,,,7,2021-04-17_13h45.58.122,premceCat2_ses-01_part-01_label-phase1,2020.2.9,Win32,60,,,,,,,0,,,,,,stimuli/m5.jpg,stimuli/m2.jpg,2,stimuli/Outdoor activity & sport item.png,stimuli/Electronic device & accessory.png,stimuli/Kitchen & utensil.png,stimuli/Hand labour tool & accessory.png,1,1,1,stimuli/m2.jpg,,stimuli/objects/bicycle.jpg,,,,,,,,,2,0,1.937,0,13,13,13,1,Outdoor activity & sport item,,,,,,,
1,"[0,1,0,1,1,0,0,0,1,1,1,0,0,0,1,0,0,1,0,1,0,0,1,1,1,0,1,0,1,1,0,1,1,1,1,0,1,1,1,1,0,0,1,1,0,0,1,0]",,,,,,,,,,,,,7,2021-04-17_13h45.58.122,premceCat2_ses-01_part-01_label-phase1,2020.2.9,Win32,60,,,,,,,1,,,,,,stimuli/m2.jpg,stimuli/m5.jpg,1,stimuli/Kitchen & utensil.png,stimuli/Outdoor activity & sport item.png,stimuli/Electronic device & accessory.png,stimuli/Hand labour tool & accessory.png,2,1,1,stimuli/m2.jpg,,stimuli/objects/punchingbag.jpg,,,,,,,,,2,1,0.891,0,14,14,14,1,Outdoor activity & sport item,,,,,,,
0,"[0,1,0,1,1,0,0,0,1,1,1,0,0,0,1,0,0,1,0,1,0,0,1,1,1,0,1,0,1,1,0,1,1,1,1,0,1,1,1,1,0,0,1,1,0,0,1,0,1]",,,,,,,,,,,,,7,2021-04-17_13h45.58.122,premceCat2_ses-01_part-01_label-phase1,2020.2.9,Win32,60,,,,,,,1,,,,,,stimuli/m5.jpg,stimuli/m2.jpg,1,stimuli/Electronic device & accessory.png,stimuli/Outdoor activity & sport item.png,stimuli/Hand labour tool & accessory.png,stimuli/Kitchen & utensil.png,2,0,1,stimuli/m5.jpg,,stimuli/objects/footballhelmet.jpg,,,,,,,,,3,0,0.237,0,15,15,15,1,Outdoor activity & sport item,,,,,,,
1,"[0,1,0,1,1,0,0,0,1,1,1,0,0,0,1,0,0,1,0,1,0,0,1,1,1,0,1,0,1,1,0,1,1,1,1,0,1,1,1,1,0,0,1,1,0,0,1,0,1]",,,,,,,,,,,,,7,2021-04-17_13h45.58.122,premceCat2_ses-01_part-01_label-phase1,2020.2.9,Win32,60,,,,,,,1,,,,,,stimuli/m5.jpg,stimuli/m2.jpg,1,stimuli/Kitchen & utensil.png,stimuli/Hand labour tool & accessory.png,stimuli/Electronic device & accessory.png,stimuli/Outdoor activity & sport item.png,4,0,1,stimuli/m5.jpg,,stimuli/objects/swing.jpg,,,,,,,,,4,1,1.337,0,16,16,16,1,Outdoor activity & sport item,,,,,,,
0,"[0,1,0,1,1,0,0,0,1,1,1,0,0,0,1,0,0,1,0,1,0,0,1,1,1,0,1,0,1,1,0,1,1,1,1,0,1,1,1,1,0,0,1,1,0,0,1,0,1]",,,,,,,,,,,,,7,2021-04-17_13h45.58.122,premceCat2_ses-01_part-01_label-phase1,2020.2.9,Win32,60,,,,,,,0,,,,,,stimuli/m2.jpg,stimuli/m5.jpg,2,stimuli/Hand labour tool & accessory.png,stimuli/Electronic device & accessory.png,stimuli/Outdoor activity & sport item.png,stimuli/Kitchen & utensil.png,1,1,1,stimuli/m5.jpg,,stimuli/objects/pitchfork.jpg,,,,,,,,,3,0,1.189,0,17,17,17,1,Hand labour tool & accessory,,,,,,,
0,"[0,1,0,1,1,0,0,0,1,1,1,0,0,0,1,0,0,1,0,1,0,0,1,1,1,0,1,0,1,1,0,1,1,1,1,0,1,1,1,1,0,0,1,1,0,0,1,0,1,0]",,,,,,,,,,,,,7,2021-04-17_13h45.58.122,premceCat2_ses-01_part-01_label-phase1,2020.2.9,Win32,60,,,,,,,0,,,,,,stimuli/m5.jpg,stimuli/m2.jpg,2,stimuli/Hand labour tool & accessory.png,stimuli/Outdoor activity & sport item.png,stimuli/Electronic device & accessory.png,stimuli/Kitchen & utensil.png,2,1,1,stimuli/m2.jpg,,stimuli/objects/bicycle.jpg,,,,,,,,,1,0,1.72,0,18,18,18,1,Outdoor activity & sport item,,,,,,,
0,"[0,1,0,1,1,0,0,0,1,1,1,0,0,0,1,0,0,1,0,1,0,0,1,1,1,0,1,0,1,1,0,1,1,1,1,0,1,1,1,1,0,0,1,1,0,0,1,0,1,0,0]",,,,,,,,,,,,,7,2021-04-17_13h45.58.122,premceCat2_ses-01_part-01_label-phase1,2020.2.9,Win32,60,,,,,,,0,,,,,,stimuli/m5.jpg,stimuli/m2.jpg,1,stimuli/Hand labour tool & accessory.png,stimuli/Outdoor activity & sport item.png,stimuli/Kitchen & utensil.png,stimuli/Electronic device & accessory.png,3,0,1,stimuli/m5.jpg,,stimuli/objects/freezer02.jpg,,,,,,,,,2,0,0.902,0,19,19,19,1,Kitchen & utensil,,,,,,,
0,"[0,1,0,1,1,0,0,0,1,1,1,0,0,0,1,0,0,1,0,1,0,0,1,1,1,0,1,0,1,1,0,1,1,1,1,0,1,1,1,1,0,0,1,1,0,0,1,0,1,0,0]",,,,,,,,,,,,,7,2021-04-17_13h45.58.122,premceCat2_ses-01_part-01_label-phase1,2020.2.9,Win32,60,,,,,,,0,,,,,,stimuli/m2.jpg,stimuli/m5.jpg,1,stimuli/Kitchen & utensil.png,stimuli/Hand labour tool & accessory.png,stimuli/Electronic device & accessory.png,stimuli/Outdoor activity & sport item.png,2,0,1,stimuli/m2.jpg,,stimuli/objects/handrake01a.jpg,,,,,,,,,4,0,1.454,0,20,20,20,1,Hand labour tool & accessory,,,,,,,
1,"[0,1,0,1,1,0,0,0,1,1,1,0,0,0,1,0,0,1,0,1,0,0,1,1,1,0,1,0,1,1,0,1,1,1,1,0,1,1,1,1,0,0,1,1,0,0,1,0,1,0,0]",,,,,,,,,,,,,7,2021-04-17_13h45.58.122,premceCat2_ses-01_part-01_label-phase1,2020.2.9,Win32,60,,,,,,,1,,,,,,stimuli/m5.jpg,stimuli/m2.jpg,1,stimuli/Outdoor activity & sport item.png,stimuli/Electronic device & accessory.png,stimuli/Hand labour tool & accessory.png,stimuli/Kitchen & utensil.png,3,1,1,stimuli/m5.jpg,,stimuli/objects/jumpingjack.jpg,,,,,,,,,3,1,1.5,0,21,21,21,1,Hand labour tool & accessory,,,,,,,
1,"[0,1,0,1,1,0,0,0,1,1,1,0,0,0,1,0,0,1,0,1,0,0,1,1,1,0,1,0,1,1,0,1,1,1,1,0,1,1,1,1,0,0,1,1,0,0,1,0,1,0,0,1]",,,,,,,,,,,,,7,2021-04-17_13h45.58.122,premceCat2_ses-01_part-01_label-phase1,2020.2.9,Win32,60,,,,,,,1,,,,,,stimuli/m5.jpg,stimuli/m2.jpg,2,stimuli/Electronic device & accessory.png,stimuli/Kitchen & utensil.png,stimuli/Hand labour tool & accessory.png,stimuli/Outdoor activity & sport item.png,4,1,1,stimuli/m2.jpg,,stimuli/objects/bicycle.jpg,,,,,,,,,4,1,0.774,0,22,22,22,1,Outdoor activity & sport item,,,,,,,
1,"[0,1,0,1,1,0,0,0,1,1,1,0,0,0,1,0,0,1,0,1,0,0,1,1,1,0,1,0,1,1,0,1,1,1,1,0,1,1,1,1,0,0,1,1,0,0,1,0,1,0,0,1,1]",,,,,,,,,,,,,7,2021-04-17_13h45.58.122,premceCat2_ses-01_part-01_label-phase1,2020.2.9,Win32,60,,,,,,,1,,,,,,stimuli/m5.jpg,stimuli/m2.jpg,1,stimuli/Hand labour tool & accessory.png,stimuli/Outdoor activity & sport item.png,stimuli/Electronic device & accessory.png,stimuli/Kitchen & utensil.png,1,1,1,stimuli/m5.jpg,,stimuli/objects/jumpingjack.jpg,,,,,,,,,1,1,1.043,0,23,23,23,1,Hand labour tool & accessory,,,,,,,
0,"[0,1,0,1,1,0,0,0,1,1,1,0,0,0,1,0,0,1,0,1,0,0,1,1,1,0,1,0,1,1,0,1,1,1,1,0,1,1,1,1,0,0,1,1,0,0,1,0,1,0,0,1,1,1]",,,,,,,,,,,,,7,2021-04-17_13h45.58.122,premceCat2_ses-01_part-01_label-phase1,2020.2.9,Win32,60,,,,,,,1,,,,,,stimuli/m2.jpg,stimuli/m5.jpg,2,stimuli/Outdoor activity & sport item.png,stimuli/Electronic device & accessory.png,stimuli/Hand labour tool & accessory.png,stimuli/Kitchen & utensil.png,4,0,1,stimuli/m5.jpg,,stimuli/objects/jug.jpg,,,,,,,,,2,0,1.031,0,24,24,24,1,Kitchen & utensil,,,,,,,
1,"[0,1,0,1,1,0,0,0,1,1,1,0,0,0,1,0,0,1,0,1,0,0,1,1,1,0,1,0,1,1,0,1,1,1,1,0,1,1,1,1,0,0,1,1,0,0,1,0,1,0,0,1,1,1]",,,,,,,,,,,,,7,2021-04-17_13h45.58.122,premceCat2_ses-01_part-01_label-phase1,2020.2.9,Win32,60,,,,,,,1,,,,,,stimuli/m2.jpg,stimuli/m5.jpg,1,stimuli/Electronic device & accessory.png,stimuli/Hand labour tool & accessory.png,stimuli/Kitchen & utensil.png,stimuli/Outdoor activity & sport item.png,4,1,1,stimuli/m2.jpg,,stimuli/objects/racquetballracket.jpg,,,,,,,,,4,1,0.858,0,25,25,25,1,Outdoor activity & sport item,,,,,,,
1,"[0,1,0,1,1,0,0,0,1,1,1,0,0,0,1,0,0,1,0,1,0,0,1,1,1,0,1,0,1,1,0,1,1,1,1,0,1,1,1,1,0,0,1,1,0,0,1,0,1,0,0,1,1,1,1]",,,,,,,,,,,,,7,2021-04-17_13h45.58.122,premceCat2_ses-01_part-01_label-phase1,2020.2.9,Win32,60,,,,,,,1,,,,,,stimuli/m2.jpg,stimuli/m5.jpg,2,stimuli/Kitchen & utensil.png,stimuli/Outdoor activity & sport item.png,stimuli/Electronic device & accessory.png,stimuli/Hand labour tool & accessory.png,4,1,1,stimuli/m5.jpg,,stimuli/objects/jumpingjack.jpg,,,,,,,,,4,1,1.205,0,26,26,26,1,Hand labour tool & accessory,,,,,,,
0,"[0,1,0,1,1,0,0,0,1,1,1,0,0,0,1,0,0,1,0,1,0,0,1,1,1,0,1,0,1,1,0,1,1,1,1,0,1,1,1,1,0,0,1,1,0,0,1,0,1,0,0,1,1,1,1,1]",,,,,,,,,,,,,7,2021-04-17_13h45.58.122,premceCat2_ses-01_part-01_label-phase1,2020.2.9,Win32,60,,,,,,,0,,,,,,stimuli/m2.jpg,stimuli/m5.jpg,2,stimuli/Hand labour tool & accessory.png,stimuli/Kitchen & utensil.png,stimuli/Electronic device & accessory.png,stimuli/Outdoor activity & sport item.png,1,1,1,stimuli/m5.jpg,,stimuli/objects/hedgetrimmer.jpg,,,,,,,,,4,0,1.171,0,27,27,27,1,Hand labour tool & accessory,,,,,,,
1,"[0,1,0,1,1,0,0,0,1,1,1,0,0,0,1,0,0,1,0,1,0,0,1,1,1,0,1,0,1,1,0,1,1,1,1,0,1,1,1,1,0,0,1,1,0,0,1,0,1,0,0,1,1,1,1,1,0]",,,,,,,,,,,,,7,2021-04-17_13h45.58.122,premceCat2_ses-01_part-01_label-phase1,2020.2.9,Win32,60,,,,,,,1,,,,,,stimuli/m5.jpg,stimuli/m2.jpg,1,stimuli/Kitchen & utensil.png,stimuli/Outdoor activity & sport item.png,stimuli/Electronic device & accessory.png,stimuli/Hand labour tool & accessory.png,4,1,1,stimuli/m5.jpg,,stimuli/objects/gavel.jpg,,,,,,,,,4,1,2.3,0,28,28,28,1,Hand labour tool & accessory,,,,,,,
1,"[0,1,0,1,1,0,0,0,1,1,1,0,0,0,1,0,0,1,0,1,0,0,1,1,1,0,1,0,1,1,0,1,1,1,1,0,1,1,1,1,0,0,1,1,0,0,1,0,1,0,0,1,1,1,1,1,0,1]",,,,,,,,,,,,,7,2021-04-17_13h45.58.122,premceCat2_ses-01_part-01_label-phase1,2020.2.9,Win32,60,,,,,,,1,,,,,,stimuli/m2.jpg,stimuli/m5.jpg,2,stimuli/Electronic device & accessory.png,stimuli/Hand labour tool & accessory.png,stimuli/Kitchen & utensil.png,stimuli/Outdoor activity & sport item.png,2,1,1,stimuli/m5.jpg,,stimuli/objects/gavel.jpg,,,,,,,,,2,1,0.641,0,29,29,29,1,Hand labour tool & accessory,,,,,,,
1,"[0,1,0,1,1,0,0,0,1,1,1,0,0,0,1,0,0,1,0,1,0,0,1,1,1,0,1,0,1,1,0,1,1,1,1,0,1,1,1,1,0,0,1,1,0,0,1,0,1,0,0,1,1,1,1,1,0,1,1]",,,,,,,,,,,,,7,2021-04-17_13h45.58.122,premceCat2_ses-01_part-01_label-phase1,2020.2.9,Win32,60,,,,,,,1,,,,,,stimuli/m2.jpg,stimuli/m5.jpg,1,stimuli/Kitchen & utensil.png,stimuli/Hand labour tool & accessory.png,stimuli/Outdoor activity & sport item.png,stimuli/Electronic device & accessory.png,3,1,1,stimuli/m2.jpg,,stimuli/objects/racquetballracket.jpg,,,,,,,,,3,1,0.596,0,30,30,30,1,Outdoor activity & sport item,,,,,,,
1,"[0,1,0,1,1,0,0,0,1,1,1,0,0,0,1,0,0,1,0,1,0,0,1,1,1,0,1,0,1,1,0,1,1,1,1,0,1,1,1,1,0,0,1,1,0,0,1,0,1,0,0,1,1,1,1,1,0,1,1,1]",,,,,,,,,,,,,7,2021-04-17_13h45.58.122,premceCat2_ses-01_part-01_label-phase1,2020.2.9,Win32,60,,,,,,,1,,,,,,stimuli/m5.jpg,stimuli/m2.jpg,2,stimuli/Kitchen & utensil.png,stimuli/Electronic device & accessory.png,stimuli/Outdoor activity & sport item.png,stimuli/Hand labour tool & accessory.png,3,1,1,stimuli/m2.jpg,,stimuli/objects/punchingbag.jpg,,,,,,,,,3,1,2.041,0,31,31,31,1,Outdoor activity & sport item,,,,,,,
0,"[0,1,0,1,1,0,0,0,1,1,1,0,0,0,1,0,0,1,0,1,0,0,1,1,1,0,1,0,1,1,0,1,1,1,1,0,1,1,1,1,0,0,1,1,0,0,1,0,1,0,0,1,1,1,1,1,0,1,1,1,1]",,,,,,,,,,,,,7,2021-04-17_13h45.58.122,premceCat2_ses-01_part-01_label-phase1,2020.2.9,Win32,60,,,,,,,1,,,,,,stimuli/m2.jpg,stimuli/m5.jpg,2,stimuli/Outdoor activity & sport item.png,stimuli/Hand labour tool & accessory.png,stimuli/Kitchen & utensil.png,stimuli/Electronic device & accessory.png,4,0,1,stimuli/m5.jpg,,stimuli/objects/camera01a.jpg,,,,,,,,,2,0,0.739,0,32,32,32,1,Electronic device & accessory,,,,,,,
1,"[0,1,0,1,1,0,0,0,1,1,1,0,0,0,1,0,0,1,0,1,0,0,1,1,1,0,1,0,1,1,0,1,1,1,1,0,1,1,1,1,0,0,1,1,0,0,1,0,1,0,0,1,1,1,1,1,0,1,1,1,1]",,,,,,,,,,,,,7,2021-04-17_13h45.58.122,premceCat2_ses-01_part-01_label-phase1,2020.2.9,Win32,60,,,,,,,1,,,,,,stimuli/m2.jpg,stimuli/m5.jpg,2,stimuli/Outdoor activity & sport item.png,stimuli/Electronic device & accessory.png,stimuli/Kitchen & utensil.png,stimuli/Hand labour tool & accessory.png,4,1,1,stimuli/m5.jpg,,stimuli/objects/jumpingjack.jpg,,,,,,,,,4,1,2.977,0,33,33,33,1,Hand labour tool & accessory,,,,,,,
1,"[0,1,0,1,1,0,0,0,1,1,1,0,0,0,1,0,0,1,0,1,0,0,1,1,1,0,1,0,1,1,0,1,1,1,1,0,1,1,1,1,0,0,1,1,0,0,1,0,1,0,0,1,1,1,1,1,0,1,1,1,1,1]",,,,,,,,,,,,,7,2021-04-17_13h45.58.122,premceCat2_ses-01_part-01_label-phase1,2020.2.9,Win32,60,,,,,,,1,,,,,,stimuli/m2.jpg,stimuli/m5.jpg,1,stimuli/Electronic device & accessory.png,stimuli/Kitchen & utensil.png,stimuli/Outdoor activity & sport item.png,stimuli/Hand labour tool & accessory.png,3,1,1,stimuli/m2.jpg,,stimuli/objects/swing.jpg,,,,,,,,,3,1,0.838,0,34,34,34,1,Outdoor activity & sport item,,,,,,,
1,"[0,1,0,1,1,0,0,0,1,1,1,0,0,0,1,0,0,1,0,1,0,0,1,1,1,0,1,0,1,1,0,1,1,1,1,0,1,1,1,1,0,0,1,1,0,0,1,0,1,0,0,1,1,1,1,1,0,1,1,1,1,1,1]",,,,,,,,,,,,,7,2021-04-17_13h45.58.122,premceCat2_ses-01_part-01_label-phase1,2020.2.9,Win32,60,,,,,,,1,,,,,,stimuli/m5.jpg,stimuli/m2.jpg,1,stimuli/Hand labour tool & accessory.png,stimuli/Kitchen & utensil.png,stimuli/Outdoor activity & sport item.png,stimuli/Electronic device & accessory.png,1,1,1,stimuli/m5.jpg,,stimuli/objects/pitchfork.jpg,,,,,,,,,1,1,0.652,0,35,35,35,1,Hand labour tool & accessory,,,,,,,
1,"[0,1,0,1,1,0,0,0,1,1,1,0,0,0,1,0,0,1,0,1,0,0,1,1,1,0,1,0,1,1,0,1,1,1,1,0,1,1,1,1,0,0,1,1,0,0,1,0,1,0,0,1,1,1,1,1,0,1,1,1,1,1,1,1]",,,,,,,,,,,,,7,2021-04-17_13h45.58.122,premceCat2_ses-01_part-01_label-phase1,2020.2.9,Win32,60,,,,,,,1,,,,,,stimuli/m2.jpg,stimuli/m5.jpg,1,stimuli/Electronic device & accessory.png,stimuli/Outdoor activity & sport item.png,stimuli/Hand labour tool & accessory.png,stimuli/Kitchen & utensil.png,2,1,1,stimuli/m2.jpg,,stimuli/objects/racquetballracket.jpg,,,,,,,,,2,1,1.043,0,36,36,36,1,Outdoor activity & sport item,,,,,,,
1,"[0,1,0,1,1,0,0,0,1,1,1,0,0,0,1,0,0,1,0,1,0,0,1,1,1,0,1,0,1,1,0,1,1,1,1,0,1,1,1,1,0,0,1,1,0,0,1,0,1,0,0,1,1,1,1,1,0,1,1,1,1,1,1,1,1]",,,,,,,,,,,,,7,2021-04-17_13h45.58.122,premceCat2_ses-01_part-01_label-phase1,2020.2.9,Win32,60,,,,,,,1,,,,,,stimuli/m2.jpg,stimuli/m5.jpg,1,stimuli/Outdoor activity & sport item.png,stimuli/Hand labour tool & accessory.png,stimuli/Electronic device & accessory.png,stimuli/Kitchen & utensil.png,1,1,1,stimuli/m2.jpg,,stimuli/objects/telescope.jpg,,,,,,,,,1,1,1.407,0,37,37,37,1,Outdoor activity & sport item,,,,,,,
1,"[0,1,0,1,1,0,0,0,1,1,1,0,0,0,1,0,0,1,0,1,0,0,1,1,1,0,1,0,1,1,0,1,1,1,1,0,1,1,1,1,0,0,1,1,0,0,1,0,1,0,0,1,1,1,1,1,0,1,1,1,1,1,1,1,1,1]",,,,,,,,,,,,,7,2021-04-17_13h45.58.122,premceCat2_ses-01_part-01_label-phase1,2020.2.9,Win32,60,,,,,,,1,,,,,,stimuli/m5.jpg,stimuli/m2.jpg,2,stimuli/Hand labour tool & accessory.png,stimuli/Kitchen & utensil.png,stimuli/Electronic device & accessory.png,stimuli/Outdoor activity & sport item.png,4,1,1,stimuli/m2.jpg,,stimuli/objects/footballhelmet.jpg,,,,,,,,,4,1,1.113,0,38,38,38,1,Outdoor activity & sport item,,,,,,,
1,"[0,1,0,1,1,0,0,0,1,1,1,0,0,0,1,0,0,1,0,1,0,0,1,1,1,0,1,0,1,1,0,1,1,1,1,0,1,1,1,1,0,0,1,1,0,0,1,0,1,0,0,1,1,1,1,1,0,1,1,1,1,1,1,1,1,1,1]",,,,,,,,,,,,,7,2021-04-17_13h45.58.122,premceCat2_ses-01_part-01_label-phase1,2020.2.9,Win32,60,,,,,,,1,,,,,,stimuli/m5.jpg,stimuli/m2.jpg,2,stimuli/Kitchen & utensil.png,stimuli/Hand labour tool & accessory.png,stimuli/Outdoor activity & sport item.png,stimuli/Electronic device & accessory.png,3,1,1,stimuli/m2.jpg,,stimuli/objects/swing.jpg,,,,,,,,,3,1,1.705,0,39,39,39,1,Outdoor activity & sport item,,,,,,,
1,"[0,1,0,1,1,0,0,0,1,1,1,0,0,0,1,0,0,1,0,1,0,0,1,1,1,0,1,0,1,1,0,1,1,1,1,0,1,1,1,1,0,0,1,1,0,0,1,0,1,0,0,1,1,1,1,1,0,1,1,1,1,1,1,1,1,1,1,1]",,,,,,,,,,,,,7,2021-04-17_13h45.58.122,premceCat2_ses-01_part-01_label-phase1,2020.2.9,Win32,60,,,,,,,1,,,,,,stimuli/m5.jpg,stimuli/m2.jpg,1,stimuli/Outdoor activity & sport item.png,stimuli/Hand labour tool & accessory.png,stimuli/Electronic device & accessory.png,stimuli/Kitchen & utensil.png,2,1,1,stimuli/m5.jpg,,stimuli/objects/pitchfork.jpg,,,,,,,,,2,1,0.85,0,40,40,40,1,Hand labour tool & accessory,,,,,,,
1,"[0,1,0,1,1,0,0,0,1,1,1,0,0,0,1,0,0,1,0,1,0,0,1,1,1,0,1,0,1,1,0,1,1,1,1,0,1,1,1,1,0,0,1,1,0,0,1,0,1,0,0,1,1,1,1,1,0,1,1,1,1,1,1,1,1,1,1,1,1]",,,,,,,,,,,,,7,2021-04-17_13h45.58.122,premceCat2_ses-01_part-01_label-phase1,2020.2.9,Win32,60,,,,,,,1,,,,,,stimuli/m2.jpg,stimuli/m5.jpg,1,stimuli/Hand labour tool & accessory.png,stimuli/Outdoor activity & sport item.png,stimuli/Electronic device & accessory.png,stimuli/Kitchen & utensil.png,2,1,1,stimuli/m2.jpg,,stimuli/objects/footballhelmet.jpg,,,,,,,,,2,1,0.909,0,41,41,41,1,Outdoor activity & sport item,,,,,,,
1,"[0,1,0,1,1,0,0,0,1,1,1,0,0,0,1,0,0,1,0,1,0,0,1,1,1,0,1,0,1,1,0,1,1,1,1,0,1,1,1,1,0,0,1,1,0,0,1,0,1,0,0,1,1,1,1,1,0,1,1,1,1,1,1,1,1,1,1,1,1,1]",,,,,,,,,,,,,7,2021-04-17_13h45.58.122,premceCat2_ses-01_part-01_label-phase1,2020.2.9,Win32,60,,,,,,,1,,,,,,stimuli/m5.jpg,stimuli/m2.jpg,2,stimuli/Hand labour tool & accessory.png,stimuli/Outdoor activity & sport item.png,stimuli/Kitchen & utensil.png,stimuli/Electronic device & accessory.png,2,1,1,stimuli/m2.jpg,,stimuli/objects/rollerblade.jpg,,,,,,,,,2,1,0.906,0,42,42,42,1,Outdoor activity & sport item,,,,,,,
1,"[0,1,0,1,1,0,0,0,1,1,1,0,0,0,1,0,0,1,0,1,0,0,1,1,1,0,1,0,1,1,0,1,1,1,1,0,1,1,1,1,0,0,1,1,0,0,1,0,1,0,0,1,1,1,1,1,0,1,1,1,1,1,1,1,1,1,1,1,1,1,1]",,,,,,,,,,,,,7,2021-04-17_13h45.58.122,premceCat2_ses-01_part-01_label-phase1,2020.2.9,Win32,60,,,,,,,1,,,,,,stimuli/m2.jpg,stimuli/m5.jpg,1,stimuli/Outdoor activity & sport item.png,stimuli/Kitchen & utensil.png,stimuli/Hand labour tool & accessory.png,stimuli/Electronic device & accessory.png,1,1,1,stimuli/m2.jpg,,stimuli/objects/crosscountryski.jpg,,,,,,,,,1,1,0.741,0,43,43,43,1,Outdoor activity & sport item,,,,,,,
1,"[0,1,0,1,1,0,0,0,1,1,1,0,0,0,1,0,0,1,0,1,0,0,1,1,1,0,1,0,1,1,0,1,1,1,1,0,1,1,1,1,0,0,1,1,0,0,1,0,1,0,0,1,1,1,1,1,0,1,1,1,1,1,1,1,1,1,1,1,1,1,1,1]",,,,,,,,,,,,,7,2021-04-17_13h45.58.122,premceCat2_ses-01_part-01_label-phase1,2020.2.9,Win32,60,,,,,,,1,,,,,,stimuli/m5.jpg,stimuli/m2.jpg,1,stimuli/Kitchen & utensil.png,stimuli/Outdoor activity & sport item.png,stimuli/Hand labour tool & accessory.png,stimuli/Electronic device & accessory.png,3,1,1,stimuli/m5.jpg,,stimuli/objects/solderingiron.jpg,,,,,,,,,3,1,1.053,0,44,44,44,1,Hand labour tool & accessory,,,,,,,
0,"[0,1,0,1,1,0,0,0,1,1,1,0,0,0,1,0,0,1,0,1,0,0,1,1,1,0,1,0,1,1,0,1,1,1,1,0,1,1,1,1,0,0,1,1,0,0,1,0,1,0,0,1,1,1,1,1,0,1,1,1,1,1,1,1,1,1,1,1,1,1,1,1,1]",,,,,,,,,,,,,7,2021-04-17_13h45.58.122,premceCat2_ses-01_part-01_label-phase1,2020.2.9,Win32,60,,,,,,,1,,,,,,stimuli/m5.jpg,stimuli/m2.jpg,2,stimuli/Kitchen & utensil.png,stimuli/Hand labour tool & accessory.png,stimuli/Electronic device & accessory.png,stimuli/Outdoor activity & sport item.png,2,0,1,stimuli/m2.jpg,,stimuli/objects/boxcutter03a.jpg,,,,,,,,,4,0,1.246,0,45,45,45,1,Hand labour tool & accessory,,,,,,,
1,"[0,1,0,1,1,0,0,0,1,1,1,0,0,0,1,0,0,1,0,1,0,0,1,1,1,0,1,0,1,1,0,1,1,1,1,0,1,1,1,1,0,0,1,1,0,0,1,0,1,0,0,1,1,1,1,1,0,1,1,1,1,1,1,1,1,1,1,1,1,1,1,1,1]",,,,,,,,,,,,,7,2021-04-17_13h45.58.122,premceCat2_ses-01_part-01_label-phase1,2020.2.9,Win32,60,,,,,,,1,,,,,,stimuli/m2.jpg,stimuli/m5.jpg,2,stimuli/Kitchen & utensil.png,stimuli/Electronic device & accessory.png,stimuli/Hand labour tool & accessory.png,stimuli/Outdoor activity & sport item.png,3,1,1,stimuli/m5.jpg,,stimuli/objects/gavel.jpg,,,,,,,,,3,1,1.04,0,46,46,46,1,Hand labour tool & accessory,,,,,,,
0,"[0,1,0,1,1,0,0,0,1,1,1,0,0,0,1,0,0,1,0,1,0,0,1,1,1,0,1,0,1,1,0,1,1,1,1,0,1,1,1,1,0,0,1,1,0,0,1,0,1,0,0,1,1,1,1,1,0,1,1,1,1,1,1,1,1,1,1,1,1,1,1,1,1,1]",,,,,,,,,,,,,7,2021-04-17_13h45.58.122,premceCat2_ses-01_part-01_label-phase1,2020.2.9,Win32,60,,,,,,,1,,,,,,stimuli/m5.jpg,stimuli/m2.jpg,2,stimuli/Outdoor activity & sport item.png,stimuli/Hand labour tool & accessory.png,stimuli/Kitchen & utensil.png,stimuli/Electronic device & accessory.png,4,0,1,stimuli/m2.jpg,,stimuli/objects/jack.jpg,,,,,,,,,1,0,0.986,0,47,47,47,1,Electronic device & accessory,,,,,,,
,,,,,,,,,,,,,,7,2021-04-17_13h45.58.122,premceCat2_ses-01_part-01_label-phase1,2020.2.9,Win32,60,,,,,,,,,,,,,,,,,,,,,,,,,,,,,,,,,,,,,,,,,,,n,15464.074,0,0,0,0,1
