instructions_loop.thisRepN,instructions_loop.thisTrialN,instructions_loop.thisN,instructions_loop.thisIndex,instructions_loop.ran,text1,text2,text3,participant,date,expName,psychopyVersion,OS,frameRate,key_resp_2.keys,key_resp_2.rt,key_resp_3.keys,key_resp_3.rt,recog_resp.keys,recog_resp.rt,conf_resp.keys,conf_resp.rt,recog_loop.thisRepN,recog_loop.thisTrialN,recog_loop.thisN,recog_loop.thisIndex,recog_loop.ran,images,corr_ans,type,order,resp_assoc.keys,resp_assoc.rt,assoc_loop.thisRepN,assoc_loop.thisTrialN,assoc_loop.thisN,assoc_loop.thisIndex,assoc_loop.ran,key_resp_break.keys,key_resp_break.rt,list_loop.thisRepN,list_loop.thisTrialN,list_loop.thisN,list_loop.thisIndex,list_loop.ran,recog_list
0,0,0,0,1,Welcome to the last phase of this experiment!,.,Please press the space bar to continue,8,2021-04-20_15h32.20.294,premceCat2_ses-02_part-02_label-phase2,2020.2.10,MacIntel,60,,,,,,,,,,,,,,,,,,,,,,,,,,,,,,,,
0,1,1,1,1,.,"In this phase, you will see some objects. 

For each object, you should indicate whether you have seen it before during the experiment.

Press LEFT ARROW for YES
Press RIGHT ARROW for NO

",Please press the space bar to continue ,8,2021-04-20_15h32.20.294,premceCat2_ses-02_part-02_label-phase2,2020.2.10,MacIntel,60,,,,,,,,,,,,,,,,,,,,,,,,,,,,,,,,
0,2,2,2,1,.,"After that, you will be asked how confident you are of your choice.

Please rate the confidence in your choice with the numbers from 1 to 4 of your keyboard. 

The numbers correspond to:

1 = Very unsure
2 = Unsure
3 = Sure
4 = Very Sure",Please press the space bar to continue,8,2021-04-20_15h32.20.294,premceCat2_ses-02_part-02_label-phase2,2020.2.10,MacIntel,60,,,,,,,,,,,,,,,,,,,,,,,,,,,,,,,,
,,,,,,,,8,2021-04-20_15h32.20.294,premceCat2_ses-02_part-02_label-phase2,2020.2.10,MacIntel,60,space,9.931,space,10.22,right,2.379,4,1.306,0,0,0,100,1,stimuli/objects/remotecontrol04.jpg,right,new,101,,,,,,,,,,,,,,,
,,,,,,,,8,2021-04-20_15h32.20.294,premceCat2_ses-02_part-02_label-phase2,2020.2.10,MacIntel,60,,,,,right,1.603,4,0.423,0,1,1,85,1,stimuli/objects/golfball.jpg,right,new,86,,,,,,,,,,,,,,,
,,,,,,,,8,2021-04-20_15h32.20.294,premceCat2_ses-02_part-02_label-phase2,2020.2.10,MacIntel,60,,,,,left,2.039,3,1.519,,,,,,,,,,left,3.941,0,0,0,0,1,,,,,,,,
,,,,,,,,8,2021-04-20_15h32.20.294,premceCat2_ses-02_part-02_label-phase2,2020.2.10,MacIntel,60,,,,,,,,,0,2,2,91,1,stimuli/objects/puttyknife.jpg,left,old,92,,,,,,,,,,,,,,,
,,,,,,,,8,2021-04-20_15h32.20.294,premceCat2_ses-02_part-02_label-phase2,2020.2.10,MacIntel,60,,,,,left,1.313,4,0.5,,,,,,,,,,right,0.576,0,0,0,0,1,,,,,,,,
,,,,,,,,8,2021-04-20_15h32.20.294,premceCat2_ses-02_part-02_label-phase2,2020.2.10,MacIntel,60,,,,,,,,,0,3,3,36,1,stimuli/objects/outletadapter.jpg,left,old,37,,,,,,,,,,,,,,,
,,,,,,,,8,2021-04-20_15h32.20.294,premceCat2_ses-02_part-02_label-phase2,2020.2.10,MacIntel,60,,,,,left,1.796,4,0.289,,,,,,,,,,left,0.869,0,0,0,0,1,,,,,,,,
,,,,,,,,8,2021-04-20_15h32.20.294,premceCat2_ses-02_part-02_label-phase2,2020.2.10,MacIntel,60,,,,,,,,,0,4,4,48,1,stimuli/objects/gasburner.jpg,left,old,49,,,,,,,,,,,,,,,
,,,,,,,,8,2021-04-20_15h32.20.294,premceCat2_ses-02_part-02_label-phase2,2020.2.10,MacIntel,60,,,,,right,1.14,3,0.251,0,5,5,25,1,stimuli/objects/bowlingball.jpg,right,new,26,,,,,,,,,,,,,,,
,,,,,,,,8,2021-04-20_15h32.20.294,premceCat2_ses-02_part-02_label-phase2,2020.2.10,MacIntel,60,,,,,right,2.814,4,0.302,0,6,6,76,1,stimuli/objects/megaphone.jpg,right,new,77,,,,,,,,,,,,,,,
,,,,,,,,8,2021-04-20_15h32.20.294,premceCat2_ses-02_part-02_label-phase2,2020.2.10,MacIntel,60,,,,,right,2.316,2,0.653,0,7,7,116,1,stimuli/objects/radio01.jpg,right,new,117,,,,,,,,,,,,,,,
,,,,,,,,8,2021-04-20_15h32.20.294,premceCat2_ses-02_part-02_label-phase2,2020.2.10,MacIntel,60,,,,,right,1.797,3,0.233,0,8,8,19,1,stimuli/objects/peppermill02b.jpg,right,new,20,,,,,,,,,,,,,,,
,,,,,,,,8,2021-04-20_15h32.20.294,premceCat2_ses-02_part-02_label-phase2,2020.2.10,MacIntel,60,,,,,left,0.939,4,0.339,,,,,,,,,,left,1.189,0,0,0,0,1,,,,,,,,
,,,,,,,,8,2021-04-20_15h32.20.294,premceCat2_ses-02_part-02_label-phase2,2020.2.10,MacIntel,60,,,,,,,,,0,9,9,47,1,stimuli/objects/bucket02.jpg,left,old,48,,,,,,,,,,,,,,,
,,,,,,,,8,2021-04-20_15h32.20.294,premceCat2_ses-02_part-02_label-phase2,2020.2.10,MacIntel,60,,,,,left,2.456,2,0.382,,,,,,,,,,left,0.92,0,0,0,0,1,,,,,,,,
,,,,,,,,8,2021-04-20_15h32.20.294,premceCat2_ses-02_part-02_label-phase2,2020.2.10,MacIntel,60,,,,,,,,,0,10,10,109,1,stimuli/objects/winerack.jpg,right,new,110,,,,,,,,,,,,,,,
,,,,,,,,8,2021-04-20_15h32.20.294,premceCat2_ses-02_part-02_label-phase2,2020.2.10,MacIntel,60,,,,,right,2.878,1,0.437,0,11,11,68,1,stimuli/objects/leafblower01.jpg,right,new,69,,,,,,,,,,,,,,,
,,,,,,,,8,2021-04-20_15h32.20.294,premceCat2_ses-02_part-02_label-phase2,2020.2.10,MacIntel,60,,,,,left,1.976,4,0.482,,,,,,,,,,left,0.59,0,0,0,0,1,,,,,,,,
,,,,,,,,8,2021-04-20_15h32.20.294,premceCat2_ses-02_part-02_label-phase2,2020.2.10,MacIntel,60,,,,,,,,,0,12,12,11,1,stimuli/objects/videocamera01a.jpg,left,old,12,,,,,,,,,,,,,,,
,,,,,,,,8,2021-04-20_15h32.20.294,premceCat2_ses-02_part-02_label-phase2,2020.2.10,MacIntel,60,,,,,left,2.356,2,0.085,,,,,,,,,,right,1.615,0,0,0,0,1,,,,,,,,
,,,,,,,,8,2021-04-20_15h32.20.294,premceCat2_ses-02_part-02_label-phase2,2020.2.10,MacIntel,60,,,,,,,,,0,13,13,88,1,stimuli/objects/cowbell.jpg,left,old,89,,,,,,,,,,,,,,,
,,,,,,,,8,2021-04-20_15h32.20.294,premceCat2_ses-02_part-02_label-phase2,2020.2.10,MacIntel,60,,,,,right,1.365,2,0.949,0,14,14,81,1,stimuli/objects/avcable.jpg,right,new,82,,,,,,,,,,,,,,,
,,,,,,,,8,2021-04-20_15h32.20.294,premceCat2_ses-02_part-02_label-phase2,2020.2.10,MacIntel,60,,,,,right,1.645,3,0.198,0,15,15,112,1,stimuli/objects/gymnasticring.jpg,right,new,113,,,,,,,,,,,,,,,
,,,,,,,,8,2021-04-20_15h32.20.294,premceCat2_ses-02_part-02_label-phase2,2020.2.10,MacIntel,60,,,,,right,2.063,3,0.203,0,16,16,51,1,stimuli/objects/webcam.jpg,right,new,52,,,,,,,,,,,,,,,
,,,,,,,,8,2021-04-20_15h32.20.294,premceCat2_ses-02_part-02_label-phase2,2020.2.10,MacIntel,60,,,,,left,1.53,4,0.616,,,,,,,,,,left,0.591,0,0,0,0,1,,,,,,,,
,,,,,,,,8,2021-04-20_15h32.20.294,premceCat2_ses-02_part-02_label-phase2,2020.2.10,MacIntel,60,,,,,,,,,0,17,17,127,1,stimuli/objects/cooler01.jpg,left,old,128,,,,,,,,,,,,,,,
,,,,,,,,8,2021-04-20_15h32.20.294,premceCat2_ses-02_part-02_label-phase2,2020.2.10,MacIntel,60,,,,,left,1.396,4,0.3,,,,,,,,,,right,0.563,0,0,0,0,1,,,,,,,,
,,,,,,,,8,2021-04-20_15h32.20.294,premceCat2_ses-02_part-02_label-phase2,2020.2.10,MacIntel,60,,,,,,,,,0,18,18,79,1,stimuli/objects/gps.jpg,left,old,80,,,,,,,,,,,,,,,
,,,,,,,,8,2021-04-20_15h32.20.294,premceCat2_ses-02_part-02_label-phase2,2020.2.10,MacIntel,60,,,,,left,1.137,4,0.235,,,,,,,,,,right,1.553,0,0,0,0,1,,,,,,,,
,,,,,,,,8,2021-04-20_15h32.20.294,premceCat2_ses-02_part-02_label-phase2,2020.2.10,MacIntel,60,,,,,,,,,0,19,19,135,1,stimuli/objects/drillbit03a.jpg,left,old,136,,,,,,,,,,,,,,,
,,,,,,,,8,2021-04-20_15h32.20.294,premceCat2_ses-02_part-02_label-phase2,2020.2.10,MacIntel,60,,,,,left,1.074,3,0.718,,,,,,,,,,left,0.93,0,0,0,0,1,,,,,,,,
,,,,,,,,8,2021-04-20_15h32.20.294,premceCat2_ses-02_part-02_label-phase2,2020.2.10,MacIntel,60,,,,,,,,,0,20,20,132,1,stimuli/objects/airconditioner.jpg,left,old,133,,,,,,,,,,,,,,,
,,,,,,,,8,2021-04-20_15h32.20.294,premceCat2_ses-02_part-02_label-phase2,2020.2.10,MacIntel,60,,,,,right,1.355,4,0.548,0,21,21,41,1,stimuli/objects/pylon01.jpg,right,new,42,,,,,,,,,,,,,,,
,,,,,,,,8,2021-04-20_15h32.20.294,premceCat2_ses-02_part-02_label-phase2,2020.2.10,MacIntel,60,,,,,left,1.049,3,0.265,,,,,,,,,,left,0.498,0,0,0,0,1,,,,,,,,
,,,,,,,,8,2021-04-20_15h32.20.294,premceCat2_ses-02_part-02_label-phase2,2020.2.10,MacIntel,60,,,,,,,,,0,22,22,97,1,stimuli/objects/djmixer02.jpg,left,old,98,,,,,,,,,,,,,,,
,,,,,,,,8,2021-04-20_15h32.20.294,premceCat2_ses-02_part-02_label-phase2,2020.2.10,MacIntel,60,,,,,left,0.998,4,0.416,,,,,,,,,,right,0.753,0,0,0,0,1,,,,,,,,
,,,,,,,,8,2021-04-20_15h32.20.294,premceCat2_ses-02_part-02_label-phase2,2020.2.10,MacIntel,60,,,,,,,,,0,23,23,70,1,stimuli/objects/oven.jpg,left,old,71,,,,,,,,,,,,,,,
,,,,,,,,8,2021-04-20_15h32.20.294,premceCat2_ses-02_part-02_label-phase2,2020.2.10,MacIntel,60,,,,,right,2.228,2,0.436,0,24,24,59,1,stimuli/objects/studiolight.jpg,right,new,60,,,,,,,,,,,,,,,
,,,,,,,,8,2021-04-20_15h32.20.294,premceCat2_ses-02_part-02_label-phase2,2020.2.10,MacIntel,60,,,,,left,1.075,4,0.354,,,,,,,,,,left,0.516,0,0,0,0,1,,,,,,,,
,,,,,,,,8,2021-04-20_15h32.20.294,premceCat2_ses-02_part-02_label-phase2,2020.2.10,MacIntel,60,,,,,,,,,0,25,25,0,1,stimuli/objects/phonejack.jpg,left,old,1,,,,,,,,,,,,,,,
,,,,,,,,8,2021-04-20_15h32.20.294,premceCat2_ses-02_part-02_label-phase2,2020.2.10,MacIntel,60,,,,,right,0.895,4,0.249,0,26,26,117,1,stimuli/objects/videotape01b.jpg,right,new,118,,,,,,,,,,,,,,,
,,,,,,,,8,2021-04-20_15h32.20.294,premceCat2_ses-02_part-02_label-phase2,2020.2.10,MacIntel,60,,,,,right,0.923,4,0.164,0,27,27,66,1,stimuli/objects/nailgun.jpg,right,new,67,,,,,,,,,,,,,,,
,,,,,,,,8,2021-04-20_15h32.20.294,premceCat2_ses-02_part-02_label-phase2,2020.2.10,MacIntel,60,,,,,right,0.816,4,0.353,0,28,28,128,1,stimuli/objects/tripod01.jpg,right,new,129,,,,,,,,,,,,,,,
,,,,,,,,8,2021-04-20_15h32.20.294,premceCat2_ses-02_part-02_label-phase2,2020.2.10,MacIntel,60,,,,,left,1.391,4,0.412,,,,,,,,,,left,1.269,0,0,0,0,1,,,,,,,,
,,,,,,,,8,2021-04-20_15h32.20.294,premceCat2_ses-02_part-02_label-phase2,2020.2.10,MacIntel,60,,,,,,,,,0,29,29,16,1,stimuli/objects/wheelbarrow01.jpg,left,old,17,,,,,,,,,,,,,,,
,,,,,,,,8,2021-04-20_15h32.20.294,premceCat2_ses-02_part-02_label-phase2,2020.2.10,MacIntel,60,,,,,left,1.527,4,0.217,,,,,,,,,,right,0.988,0,0,0,0,1,,,,,,,,
,,,,,,,,8,2021-04-20_15h32.20.294,premceCat2_ses-02_part-02_label-phase2,2020.2.10,MacIntel,60,,,,,,,,,0,30,30,104,1,stimuli/objects/securitycamera.jpg,left,old,105,,,,,,,,,,,,,,,
,,,,,,,,8,2021-04-20_15h32.20.294,premceCat2_ses-02_part-02_label-phase2,2020.2.10,MacIntel,60,,,,,right,0.782,4,0.27,0,31,31,121,1,stimuli/objects/ceilingspeaker.jpg,right,new,122,,,,,,,,,,,,,,,
,,,,,,,,8,2021-04-20_15h32.20.294,premceCat2_ses-02_part-02_label-phase2,2020.2.10,MacIntel,60,,,,,right,0.924,2,0.274,0,32,32,75,1,stimuli/objects/stepladder.jpg,right,new,76,,,,,,,,,,,,,,,
,,,,,,,,8,2021-04-20_15h32.20.294,premceCat2_ses-02_part-02_label-phase2,2020.2.10,MacIntel,60,,,,,right,0.882,4,0.165,0,33,33,8,1,stimuli/objects/basketballhoop01.jpg,right,new,9,,,,,,,,,,,,,,,
,,,,,,,,8,2021-04-20_15h32.20.294,premceCat2_ses-02_part-02_label-phase2,2020.2.10,MacIntel,60,,,,,left,1.48,3,0.298,,,,,,,,,,left,2.063,0,0,0,0,1,,,,,,,,
,,,,,,,,8,2021-04-20_15h32.20.294,premceCat2_ses-02_part-02_label-phase2,2020.2.10,MacIntel,60,,,,,,,,,0,34,34,113,1,stimuli/objects/powercable.jpg,right,new,114,,,,,,,,,,,,,,,
,,,,,,,,8,2021-04-20_15h32.20.294,premceCat2_ses-02_part-02_label-phase2,2020.2.10,MacIntel,60,,,,,right,1.177,3,0.172,0,35,35,24,1,stimuli/objects/skateboard.jpg,right,new,25,,,,,,,,,,,,,,,
,,,,,,,,8,2021-04-20_15h32.20.294,premceCat2_ses-02_part-02_label-phase2,2020.2.10,MacIntel,60,,,,,right,1.007,3,0.34,0,36,36,55,1,stimuli/objects/toolbox02.jpg,right,new,56,,,,,,,,,,,,,,,
,,,,,,,,8,2021-04-20_15h32.20.294,premceCat2_ses-02_part-02_label-phase2,2020.2.10,MacIntel,60,,,,,right,0.856,1,0.374,0,37,37,73,1,stimuli/objects/clock01a.jpg,right,new,74,,,,,,,,,,,,,,,
,,,,,,,,8,2021-04-20_15h32.20.294,premceCat2_ses-02_part-02_label-phase2,2020.2.10,MacIntel,60,,,,,right,0.738,4,0.286,0,38,38,131,1,stimuli/objects/spotlight.jpg,right,new,132,,,,,,,,,,,,,,,
,,,,,,,,8,2021-04-20_15h32.20.294,premceCat2_ses-02_part-02_label-phase2,2020.2.10,MacIntel,60,,,,,right,0.841,4,0.283,0,39,39,12,1,stimuli/objects/garlicpress02a.jpg,right,new,13,,,,,,,,,,,,,,,
,,,,,,,,8,2021-04-20_15h32.20.294,premceCat2_ses-02_part-02_label-phase2,2020.2.10,MacIntel,60,,,,,left,0.863,2,0.308,,,,,,,,,,left,0.554,0,0,0,0,1,,,,,,,,
,,,,,,,,8,2021-04-20_15h32.20.294,premceCat2_ses-02_part-02_label-phase2,2020.2.10,MacIntel,60,,,,,,,,,0,40,40,58,1,stimuli/objects/bungeecord02.jpg,left,old,59,,,,,,,,,,,,,,,
,,,,,,,,8,2021-04-20_15h32.20.294,premceCat2_ses-02_part-02_label-phase2,2020.2.10,MacIntel,60,,,,,left,1.095,4,0.153,,,,,,,,,,left,1.815,0,0,0,0,1,,,,,,,,
,,,,,,,,8,2021-04-20_15h32.20.294,premceCat2_ses-02_part-02_label-phase2,2020.2.10,MacIntel,60,,,,,,,,,0,41,41,69,1,stimuli/objects/atm.jpg,left,old,70,,,,,,,,,,,,,,,
,,,,,,,,8,2021-04-20_15h32.20.294,premceCat2_ses-02_part-02_label-phase2,2020.2.10,MacIntel,60,,,,,right,1.737,2,0.274,0,42,42,114,1,stimuli/objects/pitcher02b.jpg,left,old,115,,,,,,,,,,,,,,,
,,,,,,,,8,2021-04-20_15h32.20.294,premceCat2_ses-02_part-02_label-phase2,2020.2.10,MacIntel,60,,,,,left,1.258,4,0.255,,,,,,,,,,left,0.537,0,0,0,0,1,,,,,,,,
,,,,,,,,8,2021-04-20_15h32.20.294,premceCat2_ses-02_part-02_label-phase2,2020.2.10,MacIntel,60,,,,,,,,,0,43,43,122,1,stimuli/objects/wire.jpg,left,old,123,,,,,,,,,,,,,,,
,,,,,,,,8,2021-04-20_15h32.20.294,premceCat2_ses-02_part-02_label-phase2,2020.2.10,MacIntel,60,,,,,right,0.897,2,0.522,0,44,44,61,1,stimuli/objects/painttray.jpg,left,old,62,,,,,,,,,,,,,,,
,,,,,,,,8,2021-04-20_15h32.20.294,premceCat2_ses-02_part-02_label-phase2,2020.2.10,MacIntel,60,,,,,left,0.776,3,0.302,,,,,,,,,,left,0.352,0,0,0,0,1,,,,,,,,
,,,,,,,,8,2021-04-20_15h32.20.294,premceCat2_ses-02_part-02_label-phase2,2020.2.10,MacIntel,60,,,,,,,,,0,45,45,1,1,stimuli/objects/headphones02b.jpg,left,old,2,,,,,,,,,,,,,,,
,,,,,,,,8,2021-04-20_15h32.20.294,premceCat2_ses-02_part-02_label-phase2,2020.2.10,MacIntel,60,,,,,left,1.125,2,0.982,,,,,,,,,,right,0.652,0,0,0,0,1,,,,,,,,
,,,,,,,,8,2021-04-20_15h32.20.294,premceCat2_ses-02_part-02_label-phase2,2020.2.10,MacIntel,60,,,,,,,,,0,46,46,98,1,stimuli/objects/toyhockeystick01.jpg,left,old,99,,,,,,,,,,,,,,,
,,,,,,,,8,2021-04-20_15h32.20.294,premceCat2_ses-02_part-02_label-phase2,2020.2.10,MacIntel,60,,,,,left,1.405,4,0.332,,,,,,,,,,right,0.281,0,0,0,0,1,,,,,,,,
,,,,,,,,8,2021-04-20_15h32.20.294,premceCat2_ses-02_part-02_label-phase2,2020.2.10,MacIntel,60,,,,,,,,,0,47,47,95,1,stimuli/objects/telephone01b.jpg,left,old,96,,,,,,,,,,,,,,,
,,,,,,,,8,2021-04-20_15h32.20.294,premceCat2_ses-02_part-02_label-phase2,2020.2.10,MacIntel,60,,,,,right,1.427,2,0.132,0,48,48,33,1,stimuli/objects/microwave.jpg,right,new,34,,,,,,,,,,,,,,,
,,,,,,,,8,2021-04-20_15h32.20.294,premceCat2_ses-02_part-02_label-phase2,2020.2.10,MacIntel,60,,,,,right,0.824,3,0.421,0,49,49,43,1,stimuli/objects/punchingball.jpg,right,new,44,,,,,,,,,,,,,,,
,,,,,,,,8,2021-04-20_15h32.20.294,premceCat2_ses-02_part-02_label-phase2,2020.2.10,MacIntel,60,,,,,left,0.94,4,0.287,,,,,,,,,,right,1.038,0,0,0,0,1,,,,,,,,
,,,,,,,,8,2021-04-20_15h32.20.294,premceCat2_ses-02_part-02_label-phase2,2020.2.10,MacIntel,60,,,,,,,,,0,50,50,29,1,stimuli/objects/ipad02.jpg,left,old,30,,,,,,,,,,,,,,,
,,,,,,,,8,2021-04-20_15h32.20.294,premceCat2_ses-02_part-02_label-phase2,2020.2.10,MacIntel,60,,,,,left,1.161,4,0.298,,,,,,,,,,right,0.27,0,0,0,0,1,,,,,,,,
,,,,,,,,8,2021-04-20_15h32.20.294,premceCat2_ses-02_part-02_label-phase2,2020.2.10,MacIntel,60,,,,,,,,,0,51,51,10,1,stimuli/objects/vhstape.jpg,left,old,11,,,,,,,,,,,,,,,
,,,,,,,,8,2021-04-20_15h32.20.294,premceCat2_ses-02_part-02_label-phase2,2020.2.10,MacIntel,60,,,,,left,2.511,3,0.419,,,,,,,,,,right,1.837,0,0,0,0,1,,,,,,,,
,,,,,,,,8,2021-04-20_15h32.20.294,premceCat2_ses-02_part-02_label-phase2,2020.2.10,MacIntel,60,,,,,,,,,0,52,52,106,1,stimuli/objects/minifridge.jpg,right,new,107,,,,,,,,,,,,,,,
,,,,,,,,8,2021-04-20_15h32.20.294,premceCat2_ses-02_part-02_label-phase2,2020.2.10,MacIntel,60,,,,,right,1.373,3,0.242,0,53,53,9,1,stimuli/objects/measuringtape01.jpg,right,new,10,,,,,,,,,,,,,,,
,,,,,,,,8,2021-04-20_15h32.20.294,premceCat2_ses-02_part-02_label-phase2,2020.2.10,MacIntel,60,,,,,left,0.792,3,0.349,,,,,,,,,,left,0.571,0,0,0,0,1,,,,,,,,
,,,,,,,,8,2021-04-20_15h32.20.294,premceCat2_ses-02_part-02_label-phase2,2020.2.10,MacIntel,60,,,,,,,,,0,54,54,102,1,stimuli/objects/skihelmet01.jpg,left,old,103,,,,,,,,,,,,,,,
,,,,,,,,8,2021-04-20_15h32.20.294,premceCat2_ses-02_part-02_label-phase2,2020.2.10,MacIntel,60,,,,,right,1.673,2,0.288,0,55,55,46,1,stimuli/objects/walkman.jpg,right,new,47,,,,,,,,,,,,,,,
,,,,,,,,8,2021-04-20_15h32.20.294,premceCat2_ses-02_part-02_label-phase2,2020.2.10,MacIntel,60,,,,,right,1.174,2,0.283,0,56,56,125,1,stimuli/objects/shoulderpad.jpg,right,new,126,,,,,,,,,,,,,,,
,,,,,,,,8,2021-04-20_15h32.20.294,premceCat2_ses-02_part-02_label-phase2,2020.2.10,MacIntel,60,,,,,right,0.84,3,0.321,0,57,57,138,1,stimuli/objects/taperecorder.jpg,right,new,139,,,,,,,,,,,,,,,
,,,,,,,,8,2021-04-20_15h32.20.294,premceCat2_ses-02_part-02_label-phase2,2020.2.10,MacIntel,60,,,,,left,0.722,4,0.224,,,,,,,,,,left,0.263,0,0,0,0,1,,,,,,,,
,,,,,,,,8,2021-04-20_15h32.20.294,premceCat2_ses-02_part-02_label-phase2,2020.2.10,MacIntel,60,,,,,,,,,0,58,58,65,1,stimuli/objects/tape02a.jpg,left,old,66,,,,,,,,,,,,,,,
,,,,,,,,8,2021-04-20_15h32.20.294,premceCat2_ses-02_part-02_label-phase2,2020.2.10,MacIntel,60,,,,,right,0.965,3,0.232,0,59,59,90,1,stimuli/objects/carlighter02.jpg,right,new,91,,,,,,,,,,,,,,,
,,,,,,,,8,2021-04-20_15h32.20.294,premceCat2_ses-02_part-02_label-phase2,2020.2.10,MacIntel,60,,,,,right,1.007,4,0.137,0,60,60,42,1,stimuli/objects/snowshoe.jpg,right,new,43,,,,,,,,,,,,,,,
,,,,,,,,8,2021-04-20_15h32.20.294,premceCat2_ses-02_part-02_label-phase2,2020.2.10,MacIntel,60,,,,,left,0.779,4,0.29,,,,,,,,,,left,0.281,0,0,0,0,1,,,,,,,,
,,,,,,,,8,2021-04-20_15h32.20.294,premceCat2_ses-02_part-02_label-phase2,2020.2.10,MacIntel,60,,,,,,,,,0,61,61,137,1,stimuli/objects/podium.jpg,left,old,138,,,,,,,,,,,,,,,
,,,,,,,,8,2021-04-20_15h32.20.294,premceCat2_ses-02_part-02_label-phase2,2020.2.10,MacIntel,60,,,,,right,1.24,4,0.081,0,62,62,72,1,stimuli/objects/cclamp.jpg,right,new,73,,,,,,,,,,,,,,,
,,,,,,,,8,2021-04-20_15h32.20.294,premceCat2_ses-02_part-02_label-phase2,2020.2.10,MacIntel,60,,,,,left,0.71,4,0.305,,,,,,,,,,right,0.323,0,0,0,0,1,,,,,,,,
,,,,,,,,8,2021-04-20_15h32.20.294,premceCat2_ses-02_part-02_label-phase2,2020.2.10,MacIntel,60,,,,,,,,,0,63,63,99,1,stimuli/objects/sewingmachine01a.jpg,left,old,100,,,,,,,,,,,,,,,
,,,,,,,,8,2021-04-20_15h32.20.294,premceCat2_ses-02_part-02_label-phase2,2020.2.10,MacIntel,60,,,,,left,0.921,4,0.424,,,,,,,,,,left,0.292,0,0,0,0,1,,,,,,,,
,,,,,,,,8,2021-04-20_15h32.20.294,premceCat2_ses-02_part-02_label-phase2,2020.2.10,MacIntel,60,,,,,,,,,0,64,64,23,1,stimuli/objects/football.jpg,right,new,24,,,,,,,,,,,,,,,
,,,,,,,,8,2021-04-20_15h32.20.294,premceCat2_ses-02_part-02_label-phase2,2020.2.10,MacIntel,60,,,,,right,0.839,3,0.357,0,65,65,38,1,stimuli/objects/soundmixer.jpg,right,new,39,,,,,,,,,,,,,,,
,,,,,,,,8,2021-04-20_15h32.20.294,premceCat2_ses-02_part-02_label-phase2,2020.2.10,MacIntel,60,,,,,right,0.774,1,0.669,0,66,66,30,1,stimuli/objects/printer02.jpg,right,new,31,,,,,,,,,,,,,,,
,,,,,,,,8,2021-04-20_15h32.20.294,premceCat2_ses-02_part-02_label-phase2,2020.2.10,MacIntel,60,,,,,left,0.607,4,0.453,,,,,,,,,,right,1.171,0,0,0,0,1,,,,,,,,
,,,,,,,,8,2021-04-20_15h32.20.294,premceCat2_ses-02_part-02_label-phase2,2020.2.10,MacIntel,60,,,,,,,,,0,67,67,2,1,stimuli/objects/crocodileclips.jpg,left,old,3,,,,,,,,,,,,,,,
,,,,,,,,8,2021-04-20_15h32.20.294,premceCat2_ses-02_part-02_label-phase2,2020.2.10,MacIntel,60,,,,,left,1.113,4,0.286,,,,,,,,,,right,0.315,0,0,0,0,1,,,,,,,,
,,,,,,,,8,2021-04-20_15h32.20.294,premceCat2_ses-02_part-02_label-phase2,2020.2.10,MacIntel,60,,,,,,,,,0,68,68,129,1,stimuli/objects/corkscrew03a.jpg,left,old,130,,,,,,,,,,,,,,,
,,,,,,,,8,2021-04-20_15h32.20.294,premceCat2_ses-02_part-02_label-phase2,2020.2.10,MacIntel,60,,,,,left,0.825,4,0.315,,,,,,,,,,right,0.373,0,0,0,0,1,,,,,,,,
,,,,,,,,8,2021-04-20_15h32.20.294,premceCat2_ses-02_part-02_label-phase2,2020.2.10,MacIntel,60,,,,,,,,,0,69,69,52,1,stimuli/objects/bottlecap.jpg,left,old,53,,,,,,,,,,,,,,,
,,,,,,,,8,2021-04-20_15h32.20.294,premceCat2_ses-02_part-02_label-phase2,2020.2.10,MacIntel,60,,,,,right,0.923,4,0.298,0,70,70,139,1,stimuli/objects/frisbee.jpg,right,new,140,,,,,,,,,,,,,,,
,,,,,,,,8,2021-04-20_15h32.20.294,premceCat2_ses-02_part-02_label-phase2,2020.2.10,MacIntel,60,,,,,right,0.91,3,0.258,0,71,71,18,1,stimuli/objects/cashregister01.jpg,right,new,19,,,,,,,,,,,,,,,
,,,,,,,,8,2021-04-20_15h32.20.294,premceCat2_ses-02_part-02_label-phase2,2020.2.10,MacIntel,60,,,,,right,0.643,4,0.215,0,72,72,111,1,stimuli/objects/speaker04.jpg,right,new,112,,,,,,,,,,,,,,,
,,,,,,,,8,2021-04-20_15h32.20.294,premceCat2_ses-02_part-02_label-phase2,2020.2.10,MacIntel,60,,,,,right,1.172,4,0.147,0,73,73,54,1,stimuli/objects/pda.jpg,right,new,55,,,,,,,,,,,,,,,
,,,,,,,,8,2021-04-20_15h32.20.294,premceCat2_ses-02_part-02_label-phase2,2020.2.10,MacIntel,60,,,,,right,1.191,2,0.052,0,74,74,115,1,stimuli/objects/flooringstapler.jpg,left,old,116,,,,,,,,,,,,,,,
,,,,,,,,8,2021-04-20_15h32.20.294,premceCat2_ses-02_part-02_label-phase2,2020.2.10,MacIntel,60,,,,,left,0.743,4,0.216,,,,,,,,,,left,0.331,0,0,0,0,1,,,,,,,,
,,,,,,,,8,2021-04-20_15h32.20.294,premceCat2_ses-02_part-02_label-phase2,2020.2.10,MacIntel,60,,,,,,,,,0,75,75,107,1,stimuli/objects/martiniglass01b.jpg,left,old,108,,,,,,,,,,,,,,,
,,,,,,,,8,2021-04-20_15h32.20.294,premceCat2_ses-02_part-02_label-phase2,2020.2.10,MacIntel,60,,,,,right,1.059,2,0.208,0,76,76,57,1,stimuli/objects/audiocablesplitter.jpg,right,new,58,,,,,,,,,,,,,,,
,,,,,,,,8,2021-04-20_15h32.20.294,premceCat2_ses-02_part-02_label-phase2,2020.2.10,MacIntel,60,,,,,left,0.662,4,0.289,,,,,,,,,,left,1.103,0,0,0,0,1,,,,,,,,
,,,,,,,,8,2021-04-20_15h32.20.294,premceCat2_ses-02_part-02_label-phase2,2020.2.10,MacIntel,60,,,,,,,,,0,77,77,35,1,stimuli/objects/chandelier.jpg,left,old,36,,,,,,,,,,,,,,,
,,,,,,,,8,2021-04-20_15h32.20.294,premceCat2_ses-02_part-02_label-phase2,2020.2.10,MacIntel,60,,,,,right,1.166,1,0.12,0,78,78,82,1,stimuli/objects/snowbrush.jpg,right,new,83,,,,,,,,,,,,,,,
,,,,,,,,8,2021-04-20_15h32.20.294,premceCat2_ses-02_part-02_label-phase2,2020.2.10,MacIntel,60,,,,,right,1,4,0.237,0,79,79,94,1,stimuli/objects/electricmixer.jpg,right,new,95,,,,,,,,,,,,,,,
,,,,,,,,8,2021-04-20_15h32.20.294,premceCat2_ses-02_part-02_label-phase2,2020.2.10,MacIntel,60,,,,,right,1.174,3,0.338,0,80,80,126,1,stimuli/objects/tableknife02.jpg,right,new,127,,,,,,,,,,,,,,,
,,,,,,,,8,2021-04-20_15h32.20.294,premceCat2_ses-02_part-02_label-phase2,2020.2.10,MacIntel,60,,,,,left,0.724,3,0.837,,,,,,,,,,left,0.881,0,0,0,0,1,,,,,,,,
,,,,,,,,8,2021-04-20_15h32.20.294,premceCat2_ses-02_part-02_label-phase2,2020.2.10,MacIntel,60,,,,,,,,,0,81,81,21,1,stimuli/objects/paintbrush01.jpg,right,new,22,,,,,,,,,,,,,,,
,,,,,,,,8,2021-04-20_15h32.20.294,premceCat2_ses-02_part-02_label-phase2,2020.2.10,MacIntel,60,,,,,right,0.888,2,0.182,0,82,82,93,1,stimuli/objects/icepack.jpg,right,new,94,,,,,,,,,,,,,,,
,,,,,,,,8,2021-04-20_15h32.20.294,premceCat2_ses-02_part-02_label-phase2,2020.2.10,MacIntel,60,,,,,right,0.921,4,0.381,0,83,83,110,1,stimuli/objects/lock03a.jpg,right,new,111,,,,,,,,,,,,,,,
,,,,,,,,8,2021-04-20_15h32.20.294,premceCat2_ses-02_part-02_label-phase2,2020.2.10,MacIntel,60,,,,,left,1.014,4,0.281,,,,,,,,,,left,0.767,0,0,0,0,1,,,,,,,,
,,,,,,,,8,2021-04-20_15h32.20.294,premceCat2_ses-02_part-02_label-phase2,2020.2.10,MacIntel,60,,,,,,,,,0,84,84,130,1,stimuli/objects/hockeypuck.jpg,left,old,131,,,,,,,,,,,,,,,
,,,,,,,,8,2021-04-20_15h32.20.294,premceCat2_ses-02_part-02_label-phase2,2020.2.10,MacIntel,60,,,,,left,0.806,4,0.165,,,,,,,,,,right,0.232,0,0,0,0,1,,,,,,,,
,,,,,,,,8,2021-04-20_15h32.20.294,premceCat2_ses-02_part-02_label-phase2,2020.2.10,MacIntel,60,,,,,,,,,0,85,85,103,1,stimuli/objects/bowl02a.jpg,left,old,104,,,,,,,,,,,,,,,
,,,,,,,,8,2021-04-20_15h32.20.294,premceCat2_ses-02_part-02_label-phase2,2020.2.10,MacIntel,60,,,,,left,0.955,4,0.249,,,,,,,,,,right,0.355,0,0,0,0,1,,,,,,,,
,,,,,,,,8,2021-04-20_15h32.20.294,premceCat2_ses-02_part-02_label-phase2,2020.2.10,MacIntel,60,,,,,,,,,0,86,86,87,1,stimuli/objects/coffeemachine.jpg,left,old,88,,,,,,,,,,,,,,,
,,,,,,,,8,2021-04-20_15h32.20.294,premceCat2_ses-02_part-02_label-phase2,2020.2.10,MacIntel,60,,,,,left,0.963,3,0.249,,,,,,,,,,left,0.266,0,0,0,0,1,,,,,,,,
,,,,,,,,8,2021-04-20_15h32.20.294,premceCat2_ses-02_part-02_label-phase2,2020.2.10,MacIntel,60,,,,,,,,,0,87,87,45,1,stimuli/objects/butterknife.jpg,left,old,46,,,,,,,,,,,,,,,
,,,,,,,,8,2021-04-20_15h32.20.294,premceCat2_ses-02_part-02_label-phase2,2020.2.10,MacIntel,60,,,,,left,0.664,4,0.232,,,,,,,,,,left,0.252,0,0,0,0,1,,,,,,,,
,,,,,,,,8,2021-04-20_15h32.20.294,premceCat2_ses-02_part-02_label-phase2,2020.2.10,MacIntel,60,,,,,,,,,0,88,88,74,1,stimuli/objects/treadmill.jpg,left,old,75,,,,,,,,,,,,,,,
,,,,,,,,8,2021-04-20_15h32.20.294,premceCat2_ses-02_part-02_label-phase2,2020.2.10,MacIntel,60,,,,,right,1.74,2,0.448,0,89,89,134,1,stimuli/objects/screwdriver04b.jpg,right,new,135,,,,,,,,,,,,,,,
,,,,,,,,8,2021-04-20_15h32.20.294,premceCat2_ses-02_part-02_label-phase2,2020.2.10,MacIntel,60,,,,,right,1.106,4,0.331,0,90,90,80,1,stimuli/objects/snowman.jpg,right,new,81,,,,,,,,,,,,,,,
,,,,,,,,8,2021-04-20_15h32.20.294,premceCat2_ses-02_part-02_label-phase2,2020.2.10,MacIntel,60,,,,,left,0.858,4,0.324,,,,,,,,,,left,0.907,0,0,0,0,1,,,,,,,,
,,,,,,,,8,2021-04-20_15h32.20.294,premceCat2_ses-02_part-02_label-phase2,2020.2.10,MacIntel,60,,,,,,,,,0,91,91,56,1,stimuli/objects/jar02.jpg,left,old,57,,,,,,,,,,,,,,,
,,,,,,,,8,2021-04-20_15h32.20.294,premceCat2_ses-02_part-02_label-phase2,2020.2.10,MacIntel,60,,,,,right,1.087,2,0.208,0,92,92,141,1,stimuli/objects/generator.jpg,right,new,142,,,,,,,,,,,,,,,
,,,,,,,,8,2021-04-20_15h32.20.294,premceCat2_ses-02_part-02_label-phase2,2020.2.10,MacIntel,60,,,,,left,0.841,4,0.238,,,,,,,,,,right,0.231,0,0,0,0,1,,,,,,,,
,,,,,,,,8,2021-04-20_15h32.20.294,premceCat2_ses-02_part-02_label-phase2,2020.2.10,MacIntel,60,,,,,,,,,0,93,93,3,1,stimuli/objects/towel01.jpg,left,old,4,,,,,,,,,,,,,,,
,,,,,,,,8,2021-04-20_15h32.20.294,premceCat2_ses-02_part-02_label-phase2,2020.2.10,MacIntel,60,,,,,right,1.007,2,0.181,0,94,94,40,1,stimuli/objects/staplegun.jpg,left,old,41,,,,,,,,,,,,,,,
,,,,,,,,8,2021-04-20_15h32.20.294,premceCat2_ses-02_part-02_label-phase2,2020.2.10,MacIntel,60,,,,,left,0.607,4,0.281,,,,,,,,,,left,0.353,0,0,0,0,1,,,,,,,,
,,,,,,,,8,2021-04-20_15h32.20.294,premceCat2_ses-02_part-02_label-phase2,2020.2.10,MacIntel,60,,,,,,,,,0,95,95,62,1,stimuli/objects/tray.jpg,left,old,63,,,,,,,,,,,,,,,
,,,,,,,,8,2021-04-20_15h32.20.294,premceCat2_ses-02_part-02_label-phase2,2020.2.10,MacIntel,60,,,,,left,0.673,4,0.264,,,,,,,,,,left,0.265,0,0,0,0,1,,,,,,,,
,,,,,,,,8,2021-04-20_15h32.20.294,premceCat2_ses-02_part-02_label-phase2,2020.2.10,MacIntel,60,,,,,,,,,0,96,96,49,1,stimuli/objects/badmintonracket.jpg,left,old,50,,,,,,,,,,,,,,,
,,,,,,,,8,2021-04-20_15h32.20.294,premceCat2_ses-02_part-02_label-phase2,2020.2.10,MacIntel,60,,,,,left,0.857,4,0.232,,,,,,,,,,right,0.248,0,0,0,0,1,,,,,,,,
,,,,,,,,8,2021-04-20_15h32.20.294,premceCat2_ses-02_part-02_label-phase2,2020.2.10,MacIntel,60,,,,,,,,,0,97,97,14,1,stimuli/objects/mallet01b.jpg,left,old,15,,,,,,,,,,,,,,,
,,,,,,,,8,2021-04-20_15h32.20.294,premceCat2_ses-02_part-02_label-phase2,2020.2.10,MacIntel,60,,,,,right,0.833,1,0.365,0,98,98,123,1,stimuli/objects/breadknife.jpg,left,old,124,,,,,,,,,,,,,,,
,,,,,,,,8,2021-04-20_15h32.20.294,premceCat2_ses-02_part-02_label-phase2,2020.2.10,MacIntel,60,,,,,left,0.749,2,0.322,,,,,,,,,,left,0.414,0,0,0,0,1,,,,,,,,
,,,,,,,,8,2021-04-20_15h32.20.294,premceCat2_ses-02_part-02_label-phase2,2020.2.10,MacIntel,60,,,,,,,,,0,99,99,44,1,stimuli/objects/toyhardhat.jpg,left,old,45,,,,,,,,,,,,,,,
,,,,,,,,8,2021-04-20_15h32.20.294,premceCat2_ses-02_part-02_label-phase2,2020.2.10,MacIntel,60,,,,,right,0.955,3,0.182,0,100,100,86,1,stimuli/objects/toasteroven.jpg,right,new,87,,,,,,,,,,,,,,,
,,,,,,,,8,2021-04-20_15h32.20.294,premceCat2_ses-02_part-02_label-phase2,2020.2.10,MacIntel,60,,,,,right,1.458,2,0.287,0,101,101,119,1,stimuli/objects/tongs01b.jpg,right,new,120,,,,,,,,,,,,,,,
,,,,,,,,8,2021-04-20_15h32.20.294,premceCat2_ses-02_part-02_label-phase2,2020.2.10,MacIntel,60,,,,,right,0.772,2,0.235,0,102,102,60,1,stimuli/objects/glass02a.jpg,right,new,61,,,,,,,,,,,,,,,
,,,,,,,,8,2021-04-20_15h32.20.294,premceCat2_ses-02_part-02_label-phase2,2020.2.10,MacIntel,60,,,,,left,1.144,2,0.167,,,,,,,,,,right,0.881,0,0,0,0,1,,,,,,,,
,,,,,,,,8,2021-04-20_15h32.20.294,premceCat2_ses-02_part-02_label-phase2,2020.2.10,MacIntel,60,,,,,,,,,0,103,103,63,1,stimuli/objects/butterdish.jpg,right,new,64,,,,,,,,,,,,,,,
,,,,,,,,8,2021-04-20_15h32.20.294,premceCat2_ses-02_part-02_label-phase2,2020.2.10,MacIntel,60,,,,,left,0.888,4,0.24,,,,,,,,,,left,0.231,0,0,0,0,1,,,,,,,,
,,,,,,,,8,2021-04-20_15h32.20.294,premceCat2_ses-02_part-02_label-phase2,2020.2.10,MacIntel,60,,,,,,,,,0,104,104,28,1,stimuli/objects/backpack01a.jpg,left,old,29,,,,,,,,,,,,,,,
,,,,,,,,8,2021-04-20_15h32.20.294,premceCat2_ses-02_part-02_label-phase2,2020.2.10,MacIntel,60,,,,,left,0.876,3,0.282,,,,,,,,,,right,0.236,0,0,0,0,1,,,,,,,,
,,,,,,,,8,2021-04-20_15h32.20.294,premceCat2_ses-02_part-02_label-phase2,2020.2.10,MacIntel,60,,,,,,,,,0,105,105,31,1,stimuli/objects/metalbrush.jpg,left,old,32,,,,,,,,,,,,,,,
,,,,,,,,8,2021-04-20_15h32.20.294,premceCat2_ses-02_part-02_label-phase2,2020.2.10,MacIntel,60,,,,,right,1.061,3,0.253,0,106,106,92,1,stimuli/objects/carjack.jpg,right,new,93,,,,,,,,,,,,,,,
,,,,,,,,8,2021-04-20_15h32.20.294,premceCat2_ses-02_part-02_label-phase2,2020.2.10,MacIntel,60,,,,,left,1.347,3,0.188,,,,,,,,,,right,0.13,0,0,0,0,1,,,,,,,,
,,,,,,,,8,2021-04-20_15h32.20.294,premceCat2_ses-02_part-02_label-phase2,2020.2.10,MacIntel,60,,,,,,,,,0,107,107,136,1,stimuli/objects/battery02b.jpg,right,new,137,,,,,,,,,,,,,,,
,,,,,,,,8,2021-04-20_15h32.20.294,premceCat2_ses-02_part-02_label-phase2,2020.2.10,MacIntel,60,,,,,right,1.589,3,0.498,0,108,108,20,1,stimuli/objects/laptop01a.jpg,right,new,21,,,,,,,,,,,,,,,
,,,,,,,,8,2021-04-20_15h32.20.294,premceCat2_ses-02_part-02_label-phase2,2020.2.10,MacIntel,60,,,,,right,0.739,2,0.514,0,109,109,71,1,stimuli/objects/faxmachine.jpg,right,new,72,,,,,,,,,,,,,,,
,,,,,,,,8,2021-04-20_15h32.20.294,premceCat2_ses-02_part-02_label-phase2,2020.2.10,MacIntel,60,,,,,left,1.307,2,0.521,,,,,,,,,,left,0.264,0,0,0,0,1,,,,,,,,
,,,,,,,,8,2021-04-20_15h32.20.294,premceCat2_ses-02_part-02_label-phase2,2020.2.10,MacIntel,60,,,,,,,,,0,110,110,17,1,stimuli/objects/exercisebench.jpg,right,new,18,,,,,,,,,,,,,,,
,,,,,,,,8,2021-04-20_15h32.20.294,premceCat2_ses-02_part-02_label-phase2,2020.2.10,MacIntel,60,,,,,right,1.083,4,0.147,0,111,111,96,1,stimuli/objects/golfbag.jpg,right,new,97,,,,,,,,,,,,,,,
,,,,,,,,8,2021-04-20_15h32.20.294,premceCat2_ses-02_part-02_label-phase2,2020.2.10,MacIntel,60,,,,,right,1.091,1,0.94,0,112,112,101,1,stimuli/objects/fuse.jpg,left,old,102,,,,,,,,,,,,,,,
,,,,,,,,8,2021-04-20_15h32.20.294,premceCat2_ses-02_part-02_label-phase2,2020.2.10,MacIntel,60,,,,,left,1.898,4,0.25,,,,,,,,,,right,0.13,0,0,0,0,1,,,,,,,,
,,,,,,,,8,2021-04-20_15h32.20.294,premceCat2_ses-02_part-02_label-phase2,2020.2.10,MacIntel,60,,,,,,,,,0,113,113,50,1,stimuli/objects/chisel02b.jpg,right,new,51,,,,,,,,,,,,,,,
,,,,,,,,8,2021-04-20_15h32.20.294,premceCat2_ses-02_part-02_label-phase2,2020.2.10,MacIntel,60,,,,,left,0.891,4,0.114,,,,,,,,,,right,0.148,0,0,0,0,1,,,,,,,,
,,,,,,,,8,2021-04-20_15h32.20.294,premceCat2_ses-02_part-02_label-phase2,2020.2.10,MacIntel,60,,,,,,,,,0,114,114,64,1,stimuli/objects/snowshovel.jpg,left,old,65,,,,,,,,,,,,,,,
,,,,,,,,8,2021-04-20_15h32.20.294,premceCat2_ses-02_part-02_label-phase2,2020.2.10,MacIntel,60,,,,,left,0.892,4,0.334,,,,,,,,,,right,0.197,0,0,0,0,1,,,,,,,,
,,,,,,,,8,2021-04-20_15h32.20.294,premceCat2_ses-02_part-02_label-phase2,2020.2.10,MacIntel,60,,,,,,,,,0,115,115,105,1,stimuli/objects/cellphone.jpg,left,old,106,,,,,,,,,,,,,,,
,,,,,,,,8,2021-04-20_15h32.20.294,premceCat2_ses-02_part-02_label-phase2,2020.2.10,MacIntel,60,,,,,right,0.816,4,0.206,0,116,116,26,1,stimuli/objects/boogieboard.jpg,right,new,27,,,,,,,,,,,,,,,
,,,,,,,,8,2021-04-20_15h32.20.294,premceCat2_ses-02_part-02_label-phase2,2020.2.10,MacIntel,60,,,,,left,0.608,4,0.179,,,,,,,,,,right,0.281,0,0,0,0,1,,,,,,,,
,,,,,,,,8,2021-04-20_15h32.20.294,premceCat2_ses-02_part-02_label-phase2,2020.2.10,MacIntel,60,,,,,,,,,0,117,117,6,1,stimuli/objects/contactlens.jpg,left,old,7,,,,,,,,,,,,,,,
,,,,,,,,8,2021-04-20_15h32.20.294,premceCat2_ses-02_part-02_label-phase2,2020.2.10,MacIntel,60,,,,,right,1.442,2,0.151,0,118,118,67,1,stimuli/objects/lifesaver.jpg,left,old,68,,,,,,,,,,,,,,,
,,,,,,,,8,2021-04-20_15h32.20.294,premceCat2_ses-02_part-02_label-phase2,2020.2.10,MacIntel,60,,,,,left,0.712,4,0.132,,,,,,,,,,left,0.174,0,0,0,0,1,,,,,,,,
,,,,,,,,8,2021-04-20_15h32.20.294,premceCat2_ses-02_part-02_label-phase2,2020.2.10,MacIntel,60,,,,,,,,,0,119,119,34,1,stimuli/objects/surfboard.jpg,left,old,35,,,,,,,,,,,,,,,
,,,,,,,,8,2021-04-20_15h32.20.294,premceCat2_ses-02_part-02_label-phase2,2020.2.10,MacIntel,60,,,,,right,0.967,2,0.242,0,120,120,32,1,stimuli/objects/mitresaw.jpg,right,new,33,,,,,,,,,,,,,,,
,,,,,,,,8,2021-04-20_15h32.20.294,premceCat2_ses-02_part-02_label-phase2,2020.2.10,MacIntel,60,,,,,right,0.8,3,0.571,0,121,121,53,1,stimuli/objects/binoculars01b.jpg,right,new,54,,,,,,,,,,,,,,,
,,,,,,,,8,2021-04-20_15h32.20.294,premceCat2_ses-02_part-02_label-phase2,2020.2.10,MacIntel,60,,,,,right,1.112,3,0.766,0,122,122,13,1,stimuli/objects/bastingbrush.jpg,right,new,14,,,,,,,,,,,,,,,
,,,,,,,,8,2021-04-20_15h32.20.294,premceCat2_ses-02_part-02_label-phase2,2020.2.10,MacIntel,60,,,,,left,0.824,4,0.151,,,,,,,,,,right,0.314,0,0,0,0,1,,,,,,,,
,,,,,,,,8,2021-04-20_15h32.20.294,premceCat2_ses-02_part-02_label-phase2,2020.2.10,MacIntel,60,,,,,,,,,0,123,123,78,1,stimuli/objects/servingspoon01.jpg,left,old,79,,,,,,,,,,,,,,,
,,,,,,,,8,2021-04-20_15h32.20.294,premceCat2_ses-02_part-02_label-phase2,2020.2.10,MacIntel,60,,,,,left,0.806,4,0.198,,,,,,,,,,left,0.231,0,0,0,0,1,,,,,,,,
,,,,,,,,8,2021-04-20_15h32.20.294,premceCat2_ses-02_part-02_label-phase2,2020.2.10,MacIntel,60,,,,,,,,,0,124,124,140,1,stimuli/objects/volleyball.jpg,left,old,141,,,,,,,,,,,,,,,
,,,,,,,,8,2021-04-20_15h32.20.294,premceCat2_ses-02_part-02_label-phase2,2020.2.10,MacIntel,60,,,,,left,1.372,4,0.14,,,,,,,,,,left,0.265,0,0,0,0,1,,,,,,,,
,,,,,,,,8,2021-04-20_15h32.20.294,premceCat2_ses-02_part-02_label-phase2,2020.2.10,MacIntel,60,,,,,,,,,0,125,125,124,1,stimuli/objects/baseball01a.jpg,left,old,125,,,,,,,,,,,,,,,
,,,,,,,,8,2021-04-20_15h32.20.294,premceCat2_ses-02_part-02_label-phase2,2020.2.10,MacIntel,60,,,,,left,0.642,4,0.214,,,,,,,,,,left,0.132,0,0,0,0,1,,,,,,,,
,,,,,,,,8,2021-04-20_15h32.20.294,premceCat2_ses-02_part-02_label-phase2,2020.2.10,MacIntel,60,,,,,,,,,0,126,126,27,1,stimuli/objects/catchermask.jpg,left,old,28,,,,,,,,,,,,,,,
,,,,,,,,8,2021-04-20_15h32.20.294,premceCat2_ses-02_part-02_label-phase2,2020.2.10,MacIntel,60,,,,,right,0.574,2,0.149,0,127,127,108,1,stimuli/objects/metalscissors.jpg,right,new,109,,,,,,,,,,,,,,,
,,,,,,,,8,2021-04-20_15h32.20.294,premceCat2_ses-02_part-02_label-phase2,2020.2.10,MacIntel,60,,,,,left,0.955,4,0.172,,,,,,,,,,right,0.14,0,0,0,0,1,,,,,,,,
,,,,,,,,8,2021-04-20_15h32.20.294,premceCat2_ses-02_part-02_label-phase2,2020.2.10,MacIntel,60,,,,,,,,,0,128,128,77,1,stimuli/objects/lightbulb01.jpg,left,old,78,,,,,,,,,,,,,,,
,,,,,,,,8,2021-04-20_15h32.20.294,premceCat2_ses-02_part-02_label-phase2,2020.2.10,MacIntel,60,,,,,left,0.765,3,0.284,,,,,,,,,,left,0.3,0,0,0,0,1,,,,,,,,
,,,,,,,,8,2021-04-20_15h32.20.294,premceCat2_ses-02_part-02_label-phase2,2020.2.10,MacIntel,60,,,,,,,,,0,129,129,84,1,stimuli/objects/swimgoggles.jpg,left,old,85,,,,,,,,,,,,,,,
,,,,,,,,8,2021-04-20_15h32.20.294,premceCat2_ses-02_part-02_label-phase2,2020.2.10,MacIntel,60,,,,,right,0.883,2,0.149,0,130,130,142,1,stimuli/objects/waterbottle03.jpg,left,old,143,,,,,,,,,,,,,,,
,,,,,,,,8,2021-04-20_15h32.20.294,premceCat2_ses-02_part-02_label-phase2,2020.2.10,MacIntel,60,,,,,right,0.89,4,0.316,0,131,131,22,1,stimuli/objects/umbrella04.jpg,right,new,23,,,,,,,,,,,,,,,
,,,,,,,,8,2021-04-20_15h32.20.294,premceCat2_ses-02_part-02_label-phase2,2020.2.10,MacIntel,60,,,,,left,0.696,4,0.17,,,,,,,,,,right,0.251,0,0,0,0,1,,,,,,,,
,,,,,,,,8,2021-04-20_15h32.20.294,premceCat2_ses-02_part-02_label-phase2,2020.2.10,MacIntel,60,,,,,,,,,0,132,132,118,1,stimuli/objects/rope03.jpg,left,old,119,,,,,,,,,,,,,,,
,,,,,,,,8,2021-04-20_15h32.20.294,premceCat2_ses-02_part-02_label-phase2,2020.2.10,MacIntel,60,,,,,right,0.749,2,0.274,0,133,133,37,1,stimuli/objects/aircompressor.jpg,left,old,38,,,,,,,,,,,,,,,
,,,,,,,,8,2021-04-20_15h32.20.294,premceCat2_ses-02_part-02_label-phase2,2020.2.10,MacIntel,60,,,,,left,0.633,4,0.249,,,,,,,,,,left,0.29,0,0,0,0,1,,,,,,,,
,,,,,,,,8,2021-04-20_15h32.20.294,premceCat2_ses-02_part-02_label-phase2,2020.2.10,MacIntel,60,,,,,,,,,0,134,134,120,1,stimuli/objects/muffintray01.jpg,left,old,121,,,,,,,,,,,,,,,
,,,,,,,,8,2021-04-20_15h32.20.294,premceCat2_ses-02_part-02_label-phase2,2020.2.10,MacIntel,60,,,,,left,1.383,3,0.115,,,,,,,,,,right,0.335,0,0,0,0,1,,,,,,,,
,,,,,,,,8,2021-04-20_15h32.20.294,premceCat2_ses-02_part-02_label-phase2,2020.2.10,MacIntel,60,,,,,,,,,0,135,135,15,1,stimuli/objects/spicerack.jpg,left,old,16,,,,,,,,,,,,,,,
,,,,,,,,8,2021-04-20_15h32.20.294,premceCat2_ses-02_part-02_label-phase2,2020.2.10,MacIntel,60,,,,,right,0.807,4,0.122,0,136,136,4,1,stimuli/objects/microphone01.jpg,right,new,5,,,,,,,,,,,,,,,
,,,,,,,,8,2021-04-20_15h32.20.294,premceCat2_ses-02_part-02_label-phase2,2020.2.10,MacIntel,60,,,,,left,1.013,2,0.007,,,,,,,,,,right,0.386,0,0,0,0,1,,,,,,,,
,,,,,,,,8,2021-04-20_15h32.20.294,premceCat2_ses-02_part-02_label-phase2,2020.2.10,MacIntel,60,,,,,,,,,0,137,137,7,1,stimuli/objects/hammer01.jpg,left,old,8,,,,,,,,,,,,,,,
,,,,,,,,8,2021-04-20_15h32.20.294,premceCat2_ses-02_part-02_label-phase2,2020.2.10,MacIntel,60,,,,,right,0.893,3,0.056,0,138,138,39,1,stimuli/objects/sippycup.jpg,right,new,40,,,,,,,,,,,,,,,
,,,,,,,,8,2021-04-20_15h32.20.294,premceCat2_ses-02_part-02_label-phase2,2020.2.10,MacIntel,60,,,,,left,0.99,2,0.803,,,,,,,,,,right,0.499,0,0,0,0,1,,,,,,,,
,,,,,,,,8,2021-04-20_15h32.20.294,premceCat2_ses-02_part-02_label-phase2,2020.2.10,MacIntel,60,,,,,,,,,0,139,139,89,1,stimuli/objects/ducttape.jpg,right,new,90,,,,,,,,,,,,,,,
,,,,,,,,8,2021-04-20_15h32.20.294,premceCat2_ses-02_part-02_label-phase2,2020.2.10,MacIntel,60,,,,,right,1.116,2,0.471,0,140,140,83,1,stimuli/objects/kitchenscale01a.jpg,right,new,84,,,,,,,,,,,,,,,
,,,,,,,,8,2021-04-20_15h32.20.294,premceCat2_ses-02_part-02_label-phase2,2020.2.10,MacIntel,60,,,,,right,0.657,2,0.023,0,141,141,133,1,stimuli/objects/icebucket.jpg,right,new,134,,,,,,,,,,,,,,,
,,,,,,,,8,2021-04-20_15h32.20.294,premceCat2_ses-02_part-02_label-phase2,2020.2.10,MacIntel,60,,,,,left,0.665,3,0.132,,,,,,,,,,right,0.903,0,0,0,0,1,,,,,,,,
,,,,,,,,8,2021-04-20_15h32.20.294,premceCat2_ses-02_part-02_label-phase2,2020.2.10,MacIntel,60,,,,,,,,,0,142,142,5,1,stimuli/objects/electricoutlet.jpg,left,old,6,,,,,,,,,,,,,,,
,,,,,,,,8,2021-04-20_15h32.20.294,premceCat2_ses-02_part-02_label-phase2,2020.2.10,MacIntel,60,,,,,,,,,,,,,,,,,,,,,,,,,space,143.795,0,0,0,0,1,condition_files/ImagesforRecog1_1.csv
,,,,,,,,8,2021-04-20_15h32.20.294,premceCat2_ses-02_part-02_label-phase2,2020.2.10,MacIntel,60,,,,,right,3.09,3,1.378,0,0,0,55,1,stimuli/objects/fonduefork01.jpg,right,new,199,,,,,,,,,,,,,,,
,,,,,,,,8,2021-04-20_15h32.20.294,premceCat2_ses-02_part-02_label-phase2,2020.2.10,MacIntel,60,,,,,right,1.091,4,0.282,0,1,1,26,1,stimuli/objects/flashlight02b.jpg,right,new,170,,,,,,,,,,,,,,,
,,,,,,,,8,2021-04-20_15h32.20.294,premceCat2_ses-02_part-02_label-phase2,2020.2.10,MacIntel,60,,,,,right,1.229,1,0.992,0,2,2,43,1,stimuli/objects/bowrake.jpg,right,new,187,,,,,,,,,,,,,,,
,,,,,,,,8,2021-04-20_15h32.20.294,premceCat2_ses-02_part-02_label-phase2,2020.2.10,MacIntel,60,,,,,right,0.857,3,0.203,0,3,3,9,1,stimuli/objects/alarmsystem.jpg,right,new,153,,,,,,,,,,,,,,,
,,,,,,,,8,2021-04-20_15h32.20.294,premceCat2_ses-02_part-02_label-phase2,2020.2.10,MacIntel,60,,,,,left,0.989,4,0.189,,,,,,,,,,right,0.28,0,0,0,0,1,,,,,,,,
,,,,,,,,8,2021-04-20_15h32.20.294,premceCat2_ses-02_part-02_label-phase2,2020.2.10,MacIntel,60,,,,,,,,,0,4,4,75,1,stimuli/objects/ladder.jpg,left,old,219,,,,,,,,,,,,,,,
,,,,,,,,8,2021-04-20_15h32.20.294,premceCat2_ses-02_part-02_label-phase2,2020.2.10,MacIntel,60,,,,,right,0.98,4,0.603,0,5,5,66,1,stimuli/objects/heatpump.jpg,right,new,210,,,,,,,,,,,,,,,
,,,,,,,,8,2021-04-20_15h32.20.294,premceCat2_ses-02_part-02_label-phase2,2020.2.10,MacIntel,60,,,,,left,0.948,2,0.265,,,,,,,,,,left,0.334,0,0,0,0,1,,,,,,,,
,,,,,,,,8,2021-04-20_15h32.20.294,premceCat2_ses-02_part-02_label-phase2,2020.2.10,MacIntel,60,,,,,,,,,0,6,6,136,1,stimuli/objects/exercisebike.jpg,left,old,280,,,,,,,,,,,,,,,
,,,,,,,,8,2021-04-20_15h32.20.294,premceCat2_ses-02_part-02_label-phase2,2020.2.10,MacIntel,60,,,,,right,0.857,3,0.503,0,7,7,81,1,stimuli/objects/grill.jpg,right,new,225,,,,,,,,,,,,,,,
,,,,,,,,8,2021-04-20_15h32.20.294,premceCat2_ses-02_part-02_label-phase2,2020.2.10,MacIntel,60,,,,,left,0.717,4,0.315,,,,,,,,,,left,0.265,0,0,0,0,1,,,,,,,,
,,,,,,,,8,2021-04-20_15h32.20.294,premceCat2_ses-02_part-02_label-phase2,2020.2.10,MacIntel,60,,,,,,,,,0,8,8,10,1,stimuli/objects/downhillski.jpg,left,old,154,,,,,,,,,,,,,,,
,,,,,,,,8,2021-04-20_15h32.20.294,premceCat2_ses-02_part-02_label-phase2,2020.2.10,MacIntel,60,,,,,left,0.856,4,0.124,,,,,,,,,,right,0.115,0,0,0,0,1,,,,,,,,
,,,,,,,,8,2021-04-20_15h32.20.294,premceCat2_ses-02_part-02_label-phase2,2020.2.10,MacIntel,60,,,,,,,,,0,9,9,89,1,stimuli/objects/pastaspoon.jpg,left,old,233,,,,,,,,,,,,,,,
,,,,,,,,8,2021-04-20_15h32.20.294,premceCat2_ses-02_part-02_label-phase2,2020.2.10,MacIntel,60,,,,,right,0.862,2,0.368,0,10,10,141,1,stimuli/objects/coffeepot03a.jpg,left,old,285,,,,,,,,,,,,,,,
,,,,,,,,8,2021-04-20_15h32.20.294,premceCat2_ses-02_part-02_label-phase2,2020.2.10,MacIntel,60,,,,,left,0.582,4,0.182,,,,,,,,,,right,0.136,0,0,0,0,1,,,,,,,,
,,,,,,,,8,2021-04-20_15h32.20.294,premceCat2_ses-02_part-02_label-phase2,2020.2.10,MacIntel,60,,,,,,,,,0,11,11,68,1,stimuli/objects/ladle02a.jpg,right,new,212,,,,,,,,,,,,,,,
,,,,,,,,8,2021-04-20_15h32.20.294,premceCat2_ses-02_part-02_label-phase2,2020.2.10,MacIntel,60,,,,,right,1.456,2,0.464,0,12,12,69,1,stimuli/objects/straw.jpg,right,new,213,,,,,,,,,,,,,,,
,,,,,,,,8,2021-04-20_15h32.20.294,premceCat2_ses-02_part-02_label-phase2,2020.2.10,MacIntel,60,,,,,left,0.864,4,0.284,,,,,,,,,,right,0.136,0,0,0,0,1,,,,,,,,
,,,,,,,,8,2021-04-20_15h32.20.294,premceCat2_ses-02_part-02_label-phase2,2020.2.10,MacIntel,60,,,,,,,,,0,13,13,108,1,stimuli/objects/slidetray.jpg,left,old,252,,,,,,,,,,,,,,,
,,,,,,,,8,2021-04-20_15h32.20.294,premceCat2_ses-02_part-02_label-phase2,2020.2.10,MacIntel,60,,,,,left,0.823,3,0.248,,,,,,,,,,left,0.121,0,0,0,0,1,,,,,,,,
,,,,,,,,8,2021-04-20_15h32.20.294,premceCat2_ses-02_part-02_label-phase2,2020.2.10,MacIntel,60,,,,,,,,,0,14,14,124,1,stimuli/objects/basketball01.jpg,right,new,268,,,,,,,,,,,,,,,
,,,,,,,,8,2021-04-20_15h32.20.294,premceCat2_ses-02_part-02_label-phase2,2020.2.10,MacIntel,60,,,,,right,0.891,3,0.615,0,15,15,41,1,stimuli/objects/flask.jpg,right,new,185,,,,,,,,,,,,,,,
,,,,,,,,8,2021-04-20_15h32.20.294,premceCat2_ses-02_part-02_label-phase2,2020.2.10,MacIntel,60,,,,,left,0.742,4,0.135,,,,,,,,,,left,0.147,0,0,0,0,1,,,,,,,,
,,,,,,,,8,2021-04-20_15h32.20.294,premceCat2_ses-02_part-02_label-phase2,2020.2.10,MacIntel,60,,,,,,,,,0,16,16,98,1,stimuli/objects/cameracase01a.jpg,right,new,242,,,,,,,,,,,,,,,
,,,,,,,,8,2021-04-20_15h32.20.294,premceCat2_ses-02_part-02_label-phase2,2020.2.10,MacIntel,60,,,,,left,1.721,3,0.664,,,,,,,,,,left,0.583,0,0,0,0,1,,,,,,,,
,,,,,,,,8,2021-04-20_15h32.20.294,premceCat2_ses-02_part-02_label-phase2,2020.2.10,MacIntel,60,,,,,,,,,0,17,17,91,1,stimuli/objects/cuttingpliers02.jpg,right,new,235,,,,,,,,,,,,,,,
,,,,,,,,8,2021-04-20_15h32.20.294,premceCat2_ses-02_part-02_label-phase2,2020.2.10,MacIntel,60,,,,,right,1.738,4,0.122,0,18,18,87,1,stimuli/objects/wiicontroller.jpg,right,new,231,,,,,,,,,,,,,,,
,,,,,,,,8,2021-04-20_15h32.20.294,premceCat2_ses-02_part-02_label-phase2,2020.2.10,MacIntel,60,,,,,right,0.99,2,0.231,0,19,19,30,1,stimuli/objects/halogenlightbulb.jpg,right,new,174,,,,,,,,,,,,,,,
,,,,,,,,8,2021-04-20_15h32.20.294,premceCat2_ses-02_part-02_label-phase2,2020.2.10,MacIntel,60,,,,,left,1.039,4,0.047,,,,,,,,,,right,0.066,0,0,0,0,1,,,,,,,,
,,,,,,,,8,2021-04-20_15h32.20.294,premceCat2_ses-02_part-02_label-phase2,2020.2.10,MacIntel,60,,,,,,,,,0,20,20,18,1,stimuli/objects/dvdplayer.jpg,left,old,162,,,,,,,,,,,,,,,
,,,,,,,,8,2021-04-20_15h32.20.294,premceCat2_ses-02_part-02_label-phase2,2020.2.10,MacIntel,60,,,,,left,0.997,4,0,,,,,,,,,,right,0.114,0,0,0,0,1,,,,,,,,
,,,,,,,,8,2021-04-20_15h32.20.294,premceCat2_ses-02_part-02_label-phase2,2020.2.10,MacIntel,60,,,,,,,,,0,21,21,104,1,stimuli/objects/lectern01.jpg,left,old,248,,,,,,,,,,,,,,,
,,,,,,,,8,2021-04-20_15h32.20.294,premceCat2_ses-02_part-02_label-phase2,2020.2.10,MacIntel,60,,,,,left,0.846,4,0.098,,,,,,,,,,left,0.087,0,0,0,0,1,,,,,,,,
,,,,,,,,8,2021-04-20_15h32.20.294,premceCat2_ses-02_part-02_label-phase2,2020.2.10,MacIntel,60,,,,,,,,,0,22,22,64,1,stimuli/objects/fishingrod.jpg,left,old,208,,,,,,,,,,,,,,,
,,,,,,,,8,2021-04-20_15h32.20.294,premceCat2_ses-02_part-02_label-phase2,2020.2.10,MacIntel,60,,,,,left,0.94,4,0.134,,,,,,,,,,right,0.001,0,0,0,0,1,,,,,,,,
,,,,,,,,8,2021-04-20_15h32.20.294,premceCat2_ses-02_part-02_label-phase2,2020.2.10,MacIntel,60,,,,,,,,,0,23,23,31,1,stimuli/objects/outdoorheater.jpg,left,old,175,,,,,,,,,,,,,,,
,,,,,,,,8,2021-04-20_15h32.20.294,premceCat2_ses-02_part-02_label-phase2,2020.2.10,MacIntel,60,,,,,left,0.739,4,0.533,,,,,,,,,,left,0.3,0,0,0,0,1,,,,,,,,
,,,,,,,,8,2021-04-20_15h32.20.294,premceCat2_ses-02_part-02_label-phase2,2020.2.10,MacIntel,60,,,,,,,,,0,24,24,14,1,stimuli/objects/canoepaddle02.jpg,left,old,158,,,,,,,,,,,,,,,
,,,,,,,,8,2021-04-20_15h32.20.294,premceCat2_ses-02_part-02_label-phase2,2020.2.10,MacIntel,60,,,,,left,1.792,4,0.185,,,,,,,,,,right,0.138,0,0,0,0,1,,,,,,,,
,,,,,,,,8,2021-04-20_15h32.20.294,premceCat2_ses-02_part-02_label-phase2,2020.2.10,MacIntel,60,,,,,,,,,0,25,25,32,1,stimuli/objects/potatomasher03b.jpg,left,old,176,,,,,,,,,,,,,,,
,,,,,,,,8,2021-04-20_15h32.20.294,premceCat2_ses-02_part-02_label-phase2,2020.2.10,MacIntel,60,,,,,left,0.99,4,0.181,,,,,,,,,,right,0.105,0,0,0,0,1,,,,,,,,
,,,,,,,,8,2021-04-20_15h32.20.294,premceCat2_ses-02_part-02_label-phase2,2020.2.10,MacIntel,60,,,,,,,,,0,26,26,63,1,stimuli/objects/watercooler.jpg,left,old,207,,,,,,,,,,,,,,,
,,,,,,,,8,2021-04-20_15h32.20.294,premceCat2_ses-02_part-02_label-phase2,2020.2.10,MacIntel,60,,,,,left,0.822,4,0.151,,,,,,,,,,left,0.114,0,0,0,0,1,,,,,,,,
,,,,,,,,8,2021-04-20_15h32.20.294,premceCat2_ses-02_part-02_label-phase2,2020.2.10,MacIntel,60,,,,,,,,,0,27,27,71,1,stimuli/objects/anchor.jpg,left,old,215,,,,,,,,,,,,,,,
,,,,,,,,8,2021-04-20_15h32.20.294,premceCat2_ses-02_part-02_label-phase2,2020.2.10,MacIntel,60,,,,,right,1.096,2,0.213,0,28,28,34,1,stimuli/objects/kneepad01c.jpg,right,new,178,,,,,,,,,,,,,,,
,,,,,,,,8,2021-04-20_15h32.20.294,premceCat2_ses-02_part-02_label-phase2,2020.2.10,MacIntel,60,,,,,right,1.154,3,0.431,0,29,29,101,1,stimuli/objects/lifejacket.jpg,right,new,245,,,,,,,,,,,,,,,
,,,,,,,,8,2021-04-20_15h32.20.294,premceCat2_ses-02_part-02_label-phase2,2020.2.10,MacIntel,60,,,,,left,0.511,4,0.233,,,,,,,,,,left,0.133,0,0,0,0,1,,,,,,,,
,,,,,,,,8,2021-04-20_15h32.20.294,premceCat2_ses-02_part-02_label-phase2,2020.2.10,MacIntel,60,,,,,,,,,0,30,30,110,1,stimuli/objects/bikewheel.jpg,left,old,254,,,,,,,,,,,,,,,
,,,,,,,,8,2021-04-20_15h32.20.294,premceCat2_ses-02_part-02_label-phase2,2020.2.10,MacIntel,60,,,,,right,0.627,1,0.882,0,31,31,117,1,stimuli/objects/iceskate.jpg,left,old,261,,,,,,,,,,,,,,,
,,,,,,,,8,2021-04-20_15h32.20.294,premceCat2_ses-02_part-02_label-phase2,2020.2.10,MacIntel,60,,,,,left,1.04,4,0.306,,,,,,,,,,right,0.186,0,0,0,0,1,,,,,,,,
,,,,,,,,8,2021-04-20_15h32.20.294,premceCat2_ses-02_part-02_label-phase2,2020.2.10,MacIntel,60,,,,,,,,,0,32,32,56,1,stimuli/objects/hourglass.jpg,left,old,200,,,,,,,,,,,,,,,
,,,,,,,,8,2021-04-20_15h32.20.294,premceCat2_ses-02_part-02_label-phase2,2020.2.10,MacIntel,60,,,,,left,2.464,4,0.215,,,,,,,,,,right,0.154,0,0,0,0,1,,,,,,,,
,,,,,,,,8,2021-04-20_15h32.20.294,premceCat2_ses-02_part-02_label-phase2,2020.2.10,MacIntel,60,,,,,,,,,0,33,33,37,1,stimuli/objects/papershredder.jpg,left,old,181,,,,,,,,,,,,,,,
,,,,,,,,8,2021-04-20_15h32.20.294,premceCat2_ses-02_part-02_label-phase2,2020.2.10,MacIntel,60,,,,,right,0.892,4,0.153,0,34,34,133,1,stimuli/objects/birdie.jpg,right,new,277,,,,,,,,,,,,,,,
,,,,,,,,8,2021-04-20_15h32.20.294,premceCat2_ses-02_part-02_label-phase2,2020.2.10,MacIntel,60,,,,,right,0.758,2,0.236,0,35,35,54,1,stimuli/objects/stubbywrench01a.jpg,left,old,198,,,,,,,,,,,,,,,
,,,,,,,,8,2021-04-20_15h32.20.294,premceCat2_ses-02_part-02_label-phase2,2020.2.10,MacIntel,60,,,,,left,0.656,4,0.232,,,,,,,,,,right,0.054,0,0,0,0,1,,,,,,,,
,,,,,,,,8,2021-04-20_15h32.20.294,premceCat2_ses-02_part-02_label-phase2,2020.2.10,MacIntel,60,,,,,,,,,0,36,36,33,1,stimuli/objects/ethernetcable02.jpg,left,old,177,,,,,,,,,,,,,,,
,,,,,,,,8,2021-04-20_15h32.20.294,premceCat2_ses-02_part-02_label-phase2,2020.2.10,MacIntel,60,,,,,right,0.833,3,0.366,0,37,37,74,1,stimuli/objects/poolnet.jpg,left,old,218,,,,,,,,,,,,,,,
,,,,,,,,8,2021-04-20_15h32.20.294,premceCat2_ses-02_part-02_label-phase2,2020.2.10,MacIntel,60,,,,,left,0.81,4,0.137,,,,,,,,,,right,0.457,0,0,0,0,1,,,,,,,,
,,,,,,,,8,2021-04-20_15h32.20.294,premceCat2_ses-02_part-02_label-phase2,2020.2.10,MacIntel,60,,,,,,,,,0,38,38,72,1,stimuli/objects/wheel01.jpg,left,old,216,,,,,,,,,,,,,,,
,,,,,,,,8,2021-04-20_15h32.20.294,premceCat2_ses-02_part-02_label-phase2,2020.2.10,MacIntel,60,,,,,right,1.023,2,0.432,0,39,39,105,1,stimuli/objects/cork02.jpg,left,old,249,,,,,,,,,,,,,,,
,,,,,,,,8,2021-04-20_15h32.20.294,premceCat2_ses-02_part-02_label-phase2,2020.2.10,MacIntel,60,,,,,left,0.827,3,0.848,,,,,,,,,,left,0.236,0,0,0,0,1,,,,,,,,
,,,,,,,,8,2021-04-20_15h32.20.294,premceCat2_ses-02_part-02_label-phase2,2020.2.10,MacIntel,60,,,,,,,,,0,40,40,65,1,stimuli/objects/hoe.jpg,left,old,209,,,,,,,,,,,,,,,
,,,,,,,,8,2021-04-20_15h32.20.294,premceCat2_ses-02_part-02_label-phase2,2020.2.10,MacIntel,60,,,,,right,1.011,1,0.166,0,41,41,77,1,stimuli/objects/thermos.jpg,left,old,221,,,,,,,,,,,,,,,
,,,,,,,,8,2021-04-20_15h32.20.294,premceCat2_ses-02_part-02_label-phase2,2020.2.10,MacIntel,60,,,,,right,1.024,4,0.253,0,42,42,2,1,stimuli/objects/wetfloorsign.jpg,right,new,146,,,,,,,,,,,,,,,
,,,,,,,,8,2021-04-20_15h32.20.294,premceCat2_ses-02_part-02_label-phase2,2020.2.10,MacIntel,60,,,,,left,0.727,3,0.233,,,,,,,,,,right,0.498,0,0,0,0,1,,,,,,,,
,,,,,,,,8,2021-04-20_15h32.20.294,premceCat2_ses-02_part-02_label-phase2,2020.2.10,MacIntel,60,,,,,,,,,0,43,43,62,1,stimuli/objects/spoon01.jpg,left,old,206,,,,,,,,,,,,,,,
,,,,,,,,8,2021-04-20_15h32.20.294,premceCat2_ses-02_part-02_label-phase2,2020.2.10,MacIntel,60,,,,,left,0.679,4,0.117,,,,,,,,,,left,0.182,0,0,0,0,1,,,,,,,,
,,,,,,,,8,2021-04-20_15h32.20.294,premceCat2_ses-02_part-02_label-phase2,2020.2.10,MacIntel,60,,,,,,,,,0,44,44,23,1,stimuli/objects/baseballglove.jpg,left,old,167,,,,,,,,,,,,,,,
,,,,,,,,8,2021-04-20_15h32.20.294,premceCat2_ses-02_part-02_label-phase2,2020.2.10,MacIntel,60,,,,,left,0.556,4,0.347,,,,,,,,,,left,0.195,0,0,0,0,1,,,,,,,,
,,,,,,,,8,2021-04-20_15h32.20.294,premceCat2_ses-02_part-02_label-phase2,2020.2.10,MacIntel,60,,,,,,,,,0,45,45,42,1,stimuli/objects/tennisracket.jpg,right,new,186,,,,,,,,,,,,,,,
,,,,,,,,8,2021-04-20_15h32.20.294,premceCat2_ses-02_part-02_label-phase2,2020.2.10,MacIntel,60,,,,,left,0.607,3,0.281,,,,,,,,,,left,0.215,0,0,0,0,1,,,,,,,,
,,,,,,,,8,2021-04-20_15h32.20.294,premceCat2_ses-02_part-02_label-phase2,2020.2.10,MacIntel,60,,,,,,,,,0,46,46,57,1,stimuli/objects/soccerball.jpg,left,old,201,,,,,,,,,,,,,,,
,,,,,,,,8,2021-04-20_15h32.20.294,premceCat2_ses-02_part-02_label-phase2,2020.2.10,MacIntel,60,,,,,right,0.757,2,0.113,0,47,47,45,1,stimuli/objects/bikelock.jpg,left,old,189,,,,,,,,,,,,,,,
,,,,,,,,8,2021-04-20_15h32.20.294,premceCat2_ses-02_part-02_label-phase2,2020.2.10,MacIntel,60,,,,,left,0.755,4,0.173,,,,,,,,,,right,0.097,0,0,0,0,1,,,,,,,,
,,,,,,,,8,2021-04-20_15h32.20.294,premceCat2_ses-02_part-02_label-phase2,2020.2.10,MacIntel,60,,,,,,,,,0,48,48,130,1,stimuli/objects/scanner.jpg,left,old,274,,,,,,,,,,,,,,,
,,,,,,,,8,2021-04-20_15h32.20.294,premceCat2_ses-02_part-02_label-phase2,2020.2.10,MacIntel,60,,,,,left,0.628,2,0.432,,,,,,,,,,left,0.803,0,0,0,0,1,,,,,,,,
,,,,,,,,8,2021-04-20_15h32.20.294,premceCat2_ses-02_part-02_label-phase2,2020.2.10,MacIntel,60,,,,,,,,,0,49,49,102,1,stimuli/objects/beachumbrella01.jpg,right,new,246,,,,,,,,,,,,,,,
,,,,,,,,8,2021-04-20_15h32.20.294,premceCat2_ses-02_part-02_label-phase2,2020.2.10,MacIntel,60,,,,,right,0.982,2,0.236,0,50,50,12,1,stimuli/objects/fanheater.jpg,right,new,156,,,,,,,,,,,,,,,
,,,,,,,,8,2021-04-20_15h32.20.294,premceCat2_ses-02_part-02_label-phase2,2020.2.10,MacIntel,60,,,,,right,1.078,3,0.074,0,51,51,129,1,stimuli/objects/jigsaw.jpg,left,old,273,,,,,,,,,,,,,,,
,,,,,,,,8,2021-04-20_15h32.20.294,premceCat2_ses-02_part-02_label-phase2,2020.2.10,MacIntel,60,,,,,right,1.078,3,0.191,0,52,52,94,1,stimuli/objects/file.jpg,right,new,238,,,,,,,,,,,,,,,
,,,,,,,,8,2021-04-20_15h32.20.294,premceCat2_ses-02_part-02_label-phase2,2020.2.10,MacIntel,60,,,,,right,0.776,4,0.09,0,53,53,80,1,stimuli/objects/barbecue03.jpg,right,new,224,,,,,,,,,,,,,,,
,,,,,,,,8,2021-04-20_15h32.20.294,premceCat2_ses-02_part-02_label-phase2,2020.2.10,MacIntel,60,,,,,left,1.148,3,0.233,,,,,,,,,,right,0.398,0,0,0,0,1,,,,,,,,
,,,,,,,,8,2021-04-20_15h32.20.294,premceCat2_ses-02_part-02_label-phase2,2020.2.10,MacIntel,60,,,,,,,,,0,54,54,1,1,stimuli/objects/expansioncard.jpg,left,old,145,,,,,,,,,,,,,,,
,,,,,,,,8,2021-04-20_15h32.20.294,premceCat2_ses-02_part-02_label-phase2,2020.2.10,MacIntel,60,,,,,left,0.708,4,0.219,,,,,,,,,,left,0.172,0,0,0,0,1,,,,,,,,
,,,,,,,,8,2021-04-20_15h32.20.294,premceCat2_ses-02_part-02_label-phase2,2020.2.10,MacIntel,60,,,,,,,,,0,55,55,28,1,stimuli/objects/saladspinner.jpg,left,old,172,,,,,,,,,,,,,,,
,,,,,,,,8,2021-04-20_15h32.20.294,premceCat2_ses-02_part-02_label-phase2,2020.2.10,MacIntel,60,,,,,right,1.357,1,0.175,0,56,56,51,1,stimuli/objects/cheeseknife01.jpg,right,new,195,,,,,,,,,,,,,,,
,,,,,,,,8,2021-04-20_15h32.20.294,premceCat2_ses-02_part-02_label-phase2,2020.2.10,MacIntel,60,,,,,right,0.504,2,0.319,0,57,57,16,1,stimuli/objects/bottleopener01.jpg,right,new,160,,,,,,,,,,,,,,,
,,,,,,,,8,2021-04-20_15h32.20.294,premceCat2_ses-02_part-02_label-phase2,2020.2.10,MacIntel,60,,,,,right,1.995,2,0.166,0,58,58,49,1,stimuli/objects/cakeplatter.jpg,right,new,193,,,,,,,,,,,,,,,
,,,,,,,,8,2021-04-20_15h32.20.294,premceCat2_ses-02_part-02_label-phase2,2020.2.10,MacIntel,60,,,,,left,0.728,3,0.265,,,,,,,,,,left,0.571,0,0,0,0,1,,,,,,,,
,,,,,,,,8,2021-04-20_15h32.20.294,premceCat2_ses-02_part-02_label-phase2,2020.2.10,MacIntel,60,,,,,,,,,0,59,59,19,1,stimuli/objects/mug01.jpg,right,new,163,,,,,,,,,,,,,,,
,,,,,,,,8,2021-04-20_15h32.20.294,premceCat2_ses-02_part-02_label-phase2,2020.2.10,MacIntel,60,,,,,right,1.106,3,0.486,0,60,60,73,1,stimuli/objects/weight01.jpg,left,old,217,,,,,,,,,,,,,,,
,,,,,,,,8,2021-04-20_15h32.20.294,premceCat2_ses-02_part-02_label-phase2,2020.2.10,MacIntel,60,,,,,left,0.774,4,0.165,,,,,,,,,,right,0.199,0,0,0,0,1,,,,,,,,
,,,,,,,,8,2021-04-20_15h32.20.294,premceCat2_ses-02_part-02_label-phase2,2020.2.10,MacIntel,60,,,,,,,,,0,61,61,61,1,stimuli/objects/setsquare.jpg,left,old,205,,,,,,,,,,,,,,,
,,,,,,,,8,2021-04-20_15h32.20.294,premceCat2_ses-02_part-02_label-phase2,2020.2.10,MacIntel,60,,,,,right,0.828,2,0.571,0,62,62,76,1,stimuli/objects/satellitedish01.jpg,left,old,220,,,,,,,,,,,,,,,
,,,,,,,,8,2021-04-20_15h32.20.294,premceCat2_ses-02_part-02_label-phase2,2020.2.10,MacIntel,60,,,,,right,1.525,2,0.93,0,63,63,118,1,stimuli/objects/pressurewasher.jpg,left,old,262,,,,,,,,,,,,,,,
,,,,,,,,8,2021-04-20_15h32.20.294,premceCat2_ses-02_part-02_label-phase2,2020.2.10,MacIntel,60,,,,,right,1.241,4,0.265,0,64,64,79,1,stimuli/objects/snowboard.jpg,left,old,223,,,,,,,,,,,,,,,
,,,,,,,,8,2021-04-20_15h32.20.294,premceCat2_ses-02_part-02_label-phase2,2020.2.10,MacIntel,60,,,,,left,0.632,4,0.141,,,,,,,,,,right,0.232,0,0,0,0,1,,,,,,,,
,,,,,,,,8,2021-04-20_15h32.20.294,premceCat2_ses-02_part-02_label-phase2,2020.2.10,MacIntel,60,,,,,,,,,0,65,65,13,1,stimuli/objects/leafrake.jpg,left,old,157,,,,,,,,,,,,,,,
,,,,,,,,8,2021-04-20_15h32.20.294,premceCat2_ses-02_part-02_label-phase2,2020.2.10,MacIntel,60,,,,,right,0.875,4,0.102,0,66,66,15,1,stimuli/objects/computermouse06.jpg,right,new,159,,,,,,,,,,,,,,,
,,,,,,,,8,2021-04-20_15h32.20.294,premceCat2_ses-02_part-02_label-phase2,2020.2.10,MacIntel,60,,,,,right,0.806,2,0.165,0,67,67,116,1,stimuli/objects/lockingplier.jpg,right,new,260,,,,,,,,,,,,,,,
,,,,,,,,8,2021-04-20_15h32.20.294,premceCat2_ses-02_part-02_label-phase2,2020.2.10,MacIntel,60,,,,,left,0.929,3,0.255,,,,,,,,,,left,0.253,0,0,0,0,1,,,,,,,,
,,,,,,,,8,2021-04-20_15h32.20.294,premceCat2_ses-02_part-02_label-phase2,2020.2.10,MacIntel,60,,,,,,,,,0,68,68,8,1,stimuli/objects/sledgehammer.jpg,left,old,152,,,,,,,,,,,,,,,
,,,,,,,,8,2021-04-20_15h32.20.294,premceCat2_ses-02_part-02_label-phase2,2020.2.10,MacIntel,60,,,,,left,0.717,4,0.191,,,,,,,,,,left,0.216,0,0,0,0,1,,,,,,,,
,,,,,,,,8,2021-04-20_15h32.20.294,premceCat2_ses-02_part-02_label-phase2,2020.2.10,MacIntel,60,,,,,,,,,0,69,69,126,1,stimuli/objects/shinpad.jpg,left,old,270,,,,,,,,,,,,,,,
,,,,,,,,8,2021-04-20_15h32.20.294,premceCat2_ses-02_part-02_label-phase2,2020.2.10,MacIntel,60,,,,,left,0.607,3,0.138,,,,,,,,,,right,0.165,0,0,0,0,1,,,,,,,,
,,,,,,,,8,2021-04-20_15h32.20.294,premceCat2_ses-02_part-02_label-phase2,2020.2.10,MacIntel,60,,,,,,,,,0,70,70,107,1,stimuli/objects/dolly01.jpg,right,new,251,,,,,,,,,,,,,,,
,,,,,,,,8,2021-04-20_15h32.20.294,premceCat2_ses-02_part-02_label-phase2,2020.2.10,MacIntel,60,,,,,right,0.776,4,0.098,0,71,71,95,1,stimuli/objects/tennisball01b.jpg,right,new,239,,,,,,,,,,,,,,,
,,,,,,,,8,2021-04-20_15h32.20.294,premceCat2_ses-02_part-02_label-phase2,2020.2.10,MacIntel,60,,,,,right,0.847,2,0.581,0,72,72,17,1,stimuli/objects/propanetank01.jpg,left,old,161,,,,,,,,,,,,,,,
,,,,,,,,8,2021-04-20_15h32.20.294,premceCat2_ses-02_part-02_label-phase2,2020.2.10,MacIntel,60,,,,,right,1.275,1,0.965,0,73,73,11,1,stimuli/objects/antenna.jpg,left,old,155,,,,,,,,,,,,,,,
,,,,,,,,8,2021-04-20_15h32.20.294,premceCat2_ses-02_part-02_label-phase2,2020.2.10,MacIntel,60,,,,,left,0.606,4,0.182,,,,,,,,,,left,0.215,0,0,0,0,1,,,,,,,,
,,,,,,,,8,2021-04-20_15h32.20.294,premceCat2_ses-02_part-02_label-phase2,2020.2.10,MacIntel,60,,,,,,,,,0,74,74,58,1,stimuli/objects/ellipticalmachine.jpg,left,old,202,,,,,,,,,,,,,,,
,,,,,,,,8,2021-04-20_15h32.20.294,premceCat2_ses-02_part-02_label-phase2,2020.2.10,MacIntel,60,,,,,right,0.704,3,0.223,0,75,75,123,1,stimuli/objects/jackhammer.jpg,right,new,267,,,,,,,,,,,,,,,
,,,,,,,,8,2021-04-20_15h32.20.294,premceCat2_ses-02_part-02_label-phase2,2020.2.10,MacIntel,60,,,,,right,1.31,3,0.59,0,76,76,6,1,stimuli/objects/solderingwire.jpg,right,new,150,,,,,,,,,,,,,,,
,,,,,,,,8,2021-04-20_15h32.20.294,premceCat2_ses-02_part-02_label-phase2,2020.2.10,MacIntel,60,,,,,left,0.651,4,0.335,,,,,,,,,,left,0.205,0,0,0,0,1,,,,,,,,
,,,,,,,,8,2021-04-20_15h32.20.294,premceCat2_ses-02_part-02_label-phase2,2020.2.10,MacIntel,60,,,,,,,,,0,77,77,50,1,stimuli/objects/magneticcompass.jpg,left,old,194,,,,,,,,,,,,,,,
,,,,,,,,8,2021-04-20_15h32.20.294,premceCat2_ses-02_part-02_label-phase2,2020.2.10,MacIntel,60,,,,,left,2.306,4,0.165,,,,,,,,,,right,0.281,0,0,0,0,1,,,,,,,,
,,,,,,,,8,2021-04-20_15h32.20.294,premceCat2_ses-02_part-02_label-phase2,2020.2.10,MacIntel,60,,,,,,,,,0,78,78,48,1,stimuli/objects/eggslicer.jpg,right,new,192,,,,,,,,,,,,,,,
,,,,,,,,8,2021-04-20_15h32.20.294,premceCat2_ses-02_part-02_label-phase2,2020.2.10,MacIntel,60,,,,,left,0.658,4,0.131,,,,,,,,,,left,0.153,0,0,0,0,1,,,,,,,,
,,,,,,,,8,2021-04-20_15h32.20.294,premceCat2_ses-02_part-02_label-phase2,2020.2.10,MacIntel,60,,,,,,,,,0,79,79,84,1,stimuli/objects/sportbag.jpg,left,old,228,,,,,,,,,,,,,,,
,,,,,,,,8,2021-04-20_15h32.20.294,premceCat2_ses-02_part-02_label-phase2,2020.2.10,MacIntel,60,,,,,left,0.56,2,0.679,,,,,,,,,,right,0.498,0,0,0,0,1,,,,,,,,
,,,,,,,,8,2021-04-20_15h32.20.294,premceCat2_ses-02_part-02_label-phase2,2020.2.10,MacIntel,60,,,,,,,,,0,80,80,138,1,stimuli/objects/beermug01a.jpg,right,new,282,,,,,,,,,,,,,,,
,,,,,,,,8,2021-04-20_15h32.20.294,premceCat2_ses-02_part-02_label-phase2,2020.2.10,MacIntel,60,,,,,left,0.831,4,0.151,,,,,,,,,,right,0.464,0,0,0,0,1,,,,,,,,
,,,,,,,,8,2021-04-20_15h32.20.294,premceCat2_ses-02_part-02_label-phase2,2020.2.10,MacIntel,60,,,,,,,,,0,81,81,119,1,stimuli/objects/cookiecutter.jpg,left,old,263,,,,,,,,,,,,,,,
,,,,,,,,8,2021-04-20_15h32.20.294,premceCat2_ses-02_part-02_label-phase2,2020.2.10,MacIntel,60,,,,,right,1.191,2,0.133,0,82,82,22,1,stimuli/objects/pipewrench.jpg,left,old,166,,,,,,,,,,,,,,,
,,,,,,,,8,2021-04-20_15h32.20.294,premceCat2_ses-02_part-02_label-phase2,2020.2.10,MacIntel,60,,,,,left,0.672,2,0.503,,,,,,,,,,left,0.622,0,0,0,0,1,,,,,,,,
,,,,,,,,8,2021-04-20_15h32.20.294,premceCat2_ses-02_part-02_label-phase2,2020.2.10,MacIntel,60,,,,,,,,,0,83,83,78,1,stimuli/objects/lightswitch01.jpg,right,new,222,,,,,,,,,,,,,,,
,,,,,,,,8,2021-04-20_15h32.20.294,premceCat2_ses-02_part-02_label-phase2,2020.2.10,MacIntel,60,,,,,right,0.923,4,0.131,0,84,84,127,1,stimuli/objects/skigoggles01.jpg,right,new,271,,,,,,,,,,,,,,,
,,,,,,,,8,2021-04-20_15h32.20.294,premceCat2_ses-02_part-02_label-phase2,2020.2.10,MacIntel,60,,,,,right,1.056,4,0.165,0,85,85,131,1,stimuli/objects/handblender.jpg,right,new,275,,,,,,,,,,,,,,,
,,,,,,,,8,2021-04-20_15h32.20.294,premceCat2_ses-02_part-02_label-phase2,2020.2.10,MacIntel,60,,,,,right,0.888,3,0.29,0,86,86,46,1,stimuli/objects/waterbottleholder.jpg,right,new,190,,,,,,,,,,,,,,,
,,,,,,,,8,2021-04-20_15h32.20.294,premceCat2_ses-02_part-02_label-phase2,2020.2.10,MacIntel,60,,,,,left,0.658,4,0.224,,,,,,,,,,right,0.248,0,0,0,0,1,,,,,,,,
,,,,,,,,8,2021-04-20_15h32.20.294,premceCat2_ses-02_part-02_label-phase2,2020.2.10,MacIntel,60,,,,,,,,,0,87,87,140,1,stimuli/objects/wineglass01.jpg,right,new,284,,,,,,,,,,,,,,,
,,,,,,,,8,2021-04-20_15h32.20.294,premceCat2_ses-02_part-02_label-phase2,2020.2.10,MacIntel,60,,,,,left,1.13,4,0.304,,,,,,,,,,right,0.758,0,0,0,0,1,,,,,,,,
,,,,,,,,8,2021-04-20_15h32.20.294,premceCat2_ses-02_part-02_label-phase2,2020.2.10,MacIntel,60,,,,,,,,,0,88,88,25,1,stimuli/objects/gravyboat.jpg,left,old,169,,,,,,,,,,,,,,,
,,,,,,,,8,2021-04-20_15h32.20.294,premceCat2_ses-02_part-02_label-phase2,2020.2.10,MacIntel,60,,,,,left,1.642,3,0.048,,,,,,,,,,left,0.218,0,0,0,0,1,,,,,,,,
,,,,,,,,8,2021-04-20_15h32.20.294,premceCat2_ses-02_part-02_label-phase2,2020.2.10,MacIntel,60,,,,,,,,,0,89,89,122,1,stimuli/objects/hockeystick.jpg,right,new,266,,,,,,,,,,,,,,,
,,,,,,,,8,2021-04-20_15h32.20.294,premceCat2_ses-02_part-02_label-phase2,2020.2.10,MacIntel,60,,,,,left,0.966,4,0.107,,,,,,,,,,right,0.13,0,0,0,0,1,,,,,,,,
,,,,,,,,8,2021-04-20_15h32.20.294,premceCat2_ses-02_part-02_label-phase2,2020.2.10,MacIntel,60,,,,,,,,,0,90,90,134,1,stimuli/objects/filmnegative.jpg,left,old,278,,,,,,,,,,,,,,,
,,,,,,,,8,2021-04-20_15h32.20.294,premceCat2_ses-02_part-02_label-phase2,2020.2.10,MacIntel,60,,,,,right,0.836,3,0.182,0,91,91,24,1,stimuli/objects/monitor.jpg,right,new,168,,,,,,,,,,,,,,,
,,,,,,,,8,2021-04-20_15h32.20.294,premceCat2_ses-02_part-02_label-phase2,2020.2.10,MacIntel,60,,,,,right,0.838,2,0.298,0,92,92,35,1,stimuli/objects/stroller.jpg,right,new,179,,,,,,,,,,,,,,,
,,,,,,,,8,2021-04-20_15h32.20.294,premceCat2_ses-02_part-02_label-phase2,2020.2.10,MacIntel,60,,,,,left,0.657,4,0.155,,,,,,,,,,left,0.302,0,0,0,0,1,,,,,,,,
,,,,,,,,8,2021-04-20_15h32.20.294,premceCat2_ses-02_part-02_label-phase2,2020.2.10,MacIntel,60,,,,,,,,,0,93,93,38,1,stimuli/objects/rollingpin01a.jpg,left,old,182,,,,,,,,,,,,,,,
,,,,,,,,8,2021-04-20_15h32.20.294,premceCat2_ses-02_part-02_label-phase2,2020.2.10,MacIntel,60,,,,,left,0.73,4,0.15,,,,,,,,,,right,0.138,0,0,0,0,1,,,,,,,,
,,,,,,,,8,2021-04-20_15h32.20.294,premceCat2_ses-02_part-02_label-phase2,2020.2.10,MacIntel,60,,,,,,,,,0,94,94,7,1,stimuli/objects/handmixer01d.jpg,left,old,151,,,,,,,,,,,,,,,
,,,,,,,,8,2021-04-20_15h32.20.294,premceCat2_ses-02_part-02_label-phase2,2020.2.10,MacIntel,60,,,,,right,1.108,4,0.14,0,95,95,120,1,stimuli/objects/tent.jpg,right,new,264,,,,,,,,,,,,,,,
,,,,,,,,8,2021-04-20_15h32.20.294,premceCat2_ses-02_part-02_label-phase2,2020.2.10,MacIntel,60,,,,,right,0.804,4,0.15,0,96,96,83,1,stimuli/objects/icecubetray01a.jpg,right,new,227,,,,,,,,,,,,,,,
,,,,,,,,8,2021-04-20_15h32.20.294,premceCat2_ses-02_part-02_label-phase2,2020.2.10,MacIntel,60,,,,,right,0.786,2,0.62,0,97,97,20,1,stimuli/objects/fishinghook03.jpg,left,old,164,,,,,,,,,,,,,,,
,,,,,,,,8,2021-04-20_15h32.20.294,premceCat2_ses-02_part-02_label-phase2,2020.2.10,MacIntel,60,,,,,left,0.62,4,0.113,,,,,,,,,,right,0.115,0,0,0,0,1,,,,,,,,
,,,,,,,,8,2021-04-20_15h32.20.294,premceCat2_ses-02_part-02_label-phase2,2020.2.10,MacIntel,60,,,,,,,,,0,98,98,29,1,stimuli/objects/ipod.jpg,left,old,173,,,,,,,,,,,,,,,
,,,,,,,,8,2021-04-20_15h32.20.294,premceCat2_ses-02_part-02_label-phase2,2020.2.10,MacIntel,60,,,,,left,0.617,4,0.15,,,,,,,,,,right,0.215,0,0,0,0,1,,,,,,,,
,,,,,,,,8,2021-04-20_15h32.20.294,premceCat2_ses-02_part-02_label-phase2,2020.2.10,MacIntel,60,,,,,,,,,0,99,99,47,1,stimuli/objects/plate01b.jpg,right,new,191,,,,,,,,,,,,,,,
,,,,,,,,8,2021-04-20_15h32.20.294,premceCat2_ses-02_part-02_label-phase2,2020.2.10,MacIntel,60,,,,,left,1.74,4,0.315,,,,,,,,,,left,0.254,0,0,0,0,1,,,,,,,,
,,,,,,,,8,2021-04-20_15h32.20.294,premceCat2_ses-02_part-02_label-phase2,2020.2.10,MacIntel,60,,,,,,,,,0,100,100,132,1,stimuli/objects/wirestripper.jpg,right,new,276,,,,,,,,,,,,,,,
,,,,,,,,8,2021-04-20_15h32.20.294,premceCat2_ses-02_part-02_label-phase2,2020.2.10,MacIntel,60,,,,,right,0.752,4,0.135,0,101,101,111,1,stimuli/objects/diaperbag.jpg,right,new,255,,,,,,,,,,,,,,,
,,,,,,,,8,2021-04-20_15h32.20.294,premceCat2_ses-02_part-02_label-phase2,2020.2.10,MacIntel,60,,,,,left,1.314,3,0.165,,,,,,,,,,right,0.582,0,0,0,0,1,,,,,,,,
,,,,,,,,8,2021-04-20_15h32.20.294,premceCat2_ses-02_part-02_label-phase2,2020.2.10,MacIntel,60,,,,,,,,,0,102,102,92,1,stimuli/objects/gluetube.jpg,left,old,236,,,,,,,,,,,,,,,
,,,,,,,,8,2021-04-20_15h32.20.294,premceCat2_ses-02_part-02_label-phase2,2020.2.10,MacIntel,60,,,,,right,0.909,4,0.1,0,103,103,3,1,stimuli/objects/boxingglove01.jpg,right,new,147,,,,,,,,,,,,,,,
,,,,,,,,8,2021-04-20_15h32.20.294,premceCat2_ses-02_part-02_label-phase2,2020.2.10,MacIntel,60,,,,,left,0.944,3,0.069,,,,,,,,,,left,0.582,0,0,0,0,1,,,,,,,,
,,,,,,,,8,2021-04-20_15h32.20.294,premceCat2_ses-02_part-02_label-phase2,2020.2.10,MacIntel,60,,,,,,,,,0,104,104,36,1,stimuli/objects/loppingshears.jpg,right,new,180,,,,,,,,,,,,,,,
,,,,,,,,8,2021-04-20_15h32.20.294,premceCat2_ses-02_part-02_label-phase2,2020.2.10,MacIntel,60,,,,,right,0.707,4,0.051,0,105,105,60,1,stimuli/objects/kite.jpg,right,new,204,,,,,,,,,,,,,,,
,,,,,,,,8,2021-04-20_15h32.20.294,premceCat2_ses-02_part-02_label-phase2,2020.2.10,MacIntel,60,,,,,right,0.713,4,0.115,0,106,106,99,1,stimuli/objects/floodlight.jpg,right,new,243,,,,,,,,,,,,,,,
,,,,,,,,8,2021-04-20_15h32.20.294,premceCat2_ses-02_part-02_label-phase2,2020.2.10,MacIntel,60,,,,,right,0.833,4,0.072,0,107,107,27,1,stimuli/objects/wateringcan.jpg,left,old,171,,,,,,,,,,,,,,,
,,,,,,,,8,2021-04-20_15h32.20.294,premceCat2_ses-02_part-02_label-phase2,2020.2.10,MacIntel,60,,,,,right,0.927,1,0.081,0,108,108,5,1,stimuli/objects/pickaxe02.jpg,right,new,149,,,,,,,,,,,,,,,
,,,,,,,,8,2021-04-20_15h32.20.294,premceCat2_ses-02_part-02_label-phase2,2020.2.10,MacIntel,60,,,,,right,0.497,2,0.455,0,109,109,93,1,stimuli/objects/axe01.jpg,left,old,237,,,,,,,,,,,,,,,
,,,,,,,,8,2021-04-20_15h32.20.294,premceCat2_ses-02_part-02_label-phase2,2020.2.10,MacIntel,60,,,,,left,0.822,4,0.071,,,,,,,,,,right,0.014,0,0,0,0,1,,,,,,,,
,,,,,,,,8,2021-04-20_15h32.20.294,premceCat2_ses-02_part-02_label-phase2,2020.2.10,MacIntel,60,,,,,,,,,0,110,110,115,1,stimuli/objects/dishrack.jpg,left,old,259,,,,,,,,,,,,,,,
,,,,,,,,8,2021-04-20_15h32.20.294,premceCat2_ses-02_part-02_label-phase2,2020.2.10,MacIntel,60,,,,,left,0.656,4,0.548,,,,,,,,,,left,0.298,0,0,0,0,1,,,,,,,,
,,,,,,,,8,2021-04-20_15h32.20.294,premceCat2_ses-02_part-02_label-phase2,2020.2.10,MacIntel,60,,,,,,,,,0,111,111,139,1,stimuli/objects/measuringcup01.jpg,left,old,283,,,,,,,,,,,,,,,
,,,,,,,,8,2021-04-20_15h32.20.294,premceCat2_ses-02_part-02_label-phase2,2020.2.10,MacIntel,60,,,,,left,1.306,3,0.125,,,,,,,,,,right,0.064,0,0,0,0,1,,,,,,,,
,,,,,,,,8,2021-04-20_15h32.20.294,premceCat2_ses-02_part-02_label-phase2,2020.2.10,MacIntel,60,,,,,,,,,0,112,112,88,1,stimuli/objects/charcoalbarbecue.jpg,left,old,232,,,,,,,,,,,,,,,
,,,,,,,,8,2021-04-20_15h32.20.294,premceCat2_ses-02_part-02_label-phase2,2020.2.10,MacIntel,60,,,,,right,0.978,4,0.114,0,113,113,135,1,stimuli/objects/mortarandpestle.jpg,right,new,279,,,,,,,,,,,,,,,
,,,,,,,,8,2021-04-20_15h32.20.294,premceCat2_ses-02_part-02_label-phase2,2020.2.10,MacIntel,60,,,,,right,0.864,1,0.4,0,114,114,125,1,stimuli/objects/saw02b.jpg,left,old,269,,,,,,,,,,,,,,,
,,,,,,,,8,2021-04-20_15h32.20.294,premceCat2_ses-02_part-02_label-phase2,2020.2.10,MacIntel,60,,,,,left,0.889,4,0.507,,,,,,,,,,right,0.231,0,0,0,0,1,,,,,,,,
,,,,,,,,8,2021-04-20_15h32.20.294,premceCat2_ses-02_part-02_label-phase2,2020.2.10,MacIntel,60,,,,,,,,,0,115,115,53,1,stimuli/objects/chainsaw.jpg,left,old,197,,,,,,,,,,,,,,,
,,,,,,,,8,2021-04-20_15h32.20.294,premceCat2_ses-02_part-02_label-phase2,2020.2.10,MacIntel,60,,,,,right,0.909,3,0.482,0,116,116,39,1,stimuli/objects/wafflemaker.jpg,right,new,183,,,,,,,,,,,,,,,
,,,,,,,,8,2021-04-20_15h32.20.294,premceCat2_ses-02_part-02_label-phase2,2020.2.10,MacIntel,60,,,,,right,1.529,4,0.32,0,117,117,59,1,stimuli/objects/speedball.jpg,right,new,203,,,,,,,,,,,,,,,
,,,,,,,,8,2021-04-20_15h32.20.294,premceCat2_ses-02_part-02_label-phase2,2020.2.10,MacIntel,60,,,,,left,0.688,4,0.097,,,,,,,,,,left,0.099,0,0,0,0,1,,,,,,,,
,,,,,,,,8,2021-04-20_15h32.20.294,premceCat2_ses-02_part-02_label-phase2,2020.2.10,MacIntel,60,,,,,,,,,0,118,118,90,1,stimuli/objects/patioumbrella.jpg,left,old,234,,,,,,,,,,,,,,,
,,,,,,,,8,2021-04-20_15h32.20.294,premceCat2_ses-02_part-02_label-phase2,2020.2.10,MacIntel,60,,,,,left,0.728,4,0.021,,,,,,,,,,right,0.031,0,0,0,0,1,,,,,,,,
,,,,,,,,8,2021-04-20_15h32.20.294,premceCat2_ses-02_part-02_label-phase2,2020.2.10,MacIntel,60,,,,,,,,,0,119,119,100,1,stimuli/objects/lawnmower.jpg,left,old,244,,,,,,,,,,,,,,,
,,,,,,,,8,2021-04-20_15h32.20.294,premceCat2_ses-02_part-02_label-phase2,2020.2.10,MacIntel,60,,,,,left,0.759,4,0.039,,,,,,,,,,left,0.133,0,0,0,0,1,,,,,,,,
,,,,,,,,8,2021-04-20_15h32.20.294,premceCat2_ses-02_part-02_label-phase2,2020.2.10,MacIntel,60,,,,,,,,,0,120,120,4,1,stimuli/objects/cassettetape01a.jpg,right,new,148,,,,,,,,,,,,,,,
,,,,,,,,8,2021-04-20_15h32.20.294,premceCat2_ses-02_part-02_label-phase2,2020.2.10,MacIntel,60,,,,,right,0.846,3,0.199,0,121,121,137,1,stimuli/objects/nutcracker01.jpg,right,new,281,,,,,,,,,,,,,,,
,,,,,,,,8,2021-04-20_15h32.20.294,premceCat2_ses-02_part-02_label-phase2,2020.2.10,MacIntel,60,,,,,left,0.541,4,0.09,,,,,,,,,,right,0.098,0,0,0,0,1,,,,,,,,
,,,,,,,,8,2021-04-20_15h32.20.294,premceCat2_ses-02_part-02_label-phase2,2020.2.10,MacIntel,60,,,,,,,,,0,122,122,52,1,stimuli/objects/extensioncord.jpg,left,old,196,,,,,,,,,,,,,,,
,,,,,,,,8,2021-04-20_15h32.20.294,premceCat2_ses-02_part-02_label-phase2,2020.2.10,MacIntel,60,,,,,right,1.241,2,0.82,0,123,123,114,1,stimuli/objects/drinkshaker.jpg,right,new,258,,,,,,,,,,,,,,,
,,,,,,,,8,2021-04-20_15h32.20.294,premceCat2_ses-02_part-02_label-phase2,2020.2.10,MacIntel,60,,,,,right,0.704,4,0.803,0,124,124,82,1,stimuli/objects/shopvac.jpg,right,new,226,,,,,,,,,,,,,,,
,,,,,,,,8,2021-04-20_15h32.20.294,premceCat2_ses-02_part-02_label-phase2,2020.2.10,MacIntel,60,,,,,right,0.811,2,0.355,0,125,125,109,1,stimuli/objects/peeler01.jpg,left,old,253,,,,,,,,,,,,,,,
,,,,,,,,8,2021-04-20_15h32.20.294,premceCat2_ses-02_part-02_label-phase2,2020.2.10,MacIntel,60,,,,,right,0.854,3,0.183,0,126,126,86,1,stimuli/objects/trampoline.jpg,right,new,230,,,,,,,,,,,,,,,
,,,,,,,,8,2021-04-20_15h32.20.294,premceCat2_ses-02_part-02_label-phase2,2020.2.10,MacIntel,60,,,,,left,0.599,4,0.116,,,,,,,,,,left,0.181,0,0,0,0,1,,,,,,,,
,,,,,,,,8,2021-04-20_15h32.20.294,premceCat2_ses-02_part-02_label-phase2,2020.2.10,MacIntel,60,,,,,,,,,0,127,127,128,1,stimuli/objects/espressomachine.jpg,left,old,272,,,,,,,,,,,,,,,
,,,,,,,,8,2021-04-20_15h32.20.294,premceCat2_ses-02_part-02_label-phase2,2020.2.10,MacIntel,60,,,,,right,0.763,2,0.136,0,128,128,44,1,stimuli/objects/toaster01.jpg,right,new,188,,,,,,,,,,,,,,,
,,,,,,,,8,2021-04-20_15h32.20.294,premceCat2_ses-02_part-02_label-phase2,2020.2.10,MacIntel,60,,,,,left,0.66,3,0.131,,,,,,,,,,left,0.166,0,0,0,0,1,,,,,,,,
,,,,,,,,8,2021-04-20_15h32.20.294,premceCat2_ses-02_part-02_label-phase2,2020.2.10,MacIntel,60,,,,,,,,,0,129,129,40,1,stimuli/objects/tablesaw.jpg,right,new,184,,,,,,,,,,,,,,,
,,,,,,,,8,2021-04-20_15h32.20.294,premceCat2_ses-02_part-02_label-phase2,2020.2.10,MacIntel,60,,,,,left,0.783,4,0.123,,,,,,,,,,right,0.114,0,0,0,0,1,,,,,,,,
,,,,,,,,8,2021-04-20_15h32.20.294,premceCat2_ses-02_part-02_label-phase2,2020.2.10,MacIntel,60,,,,,,,,,0,130,130,97,1,stimuli/objects/shotglass.jpg,left,old,241,,,,,,,,,,,,,,,
,,,,,,,,8,2021-04-20_15h32.20.294,premceCat2_ses-02_part-02_label-phase2,2020.2.10,MacIntel,60,,,,,right,1.53,2,0.088,0,131,131,113,1,stimuli/objects/boltcutter.jpg,left,old,257,,,,,,,,,,,,,,,
,,,,,,,,8,2021-04-20_15h32.20.294,premceCat2_ses-02_part-02_label-phase2,2020.2.10,MacIntel,60,,,,,right,1.96,2,0.049,0,132,132,21,1,stimuli/objects/adjustablewrench01b.jpg,left,old,165,,,,,,,,,,,,,,,
,,,,,,,,8,2021-04-20_15h32.20.294,premceCat2_ses-02_part-02_label-phase2,2020.2.10,MacIntel,60,,,,,right,2.067,4,0.015,0,133,133,103,1,stimuli/objects/swissarmyknife01a.jpg,right,new,247,,,,,,,,,,,,,,,
,,,,,,,,8,2021-04-20_15h32.20.294,premceCat2_ses-02_part-02_label-phase2,2020.2.10,MacIntel,60,,,,,left,0.762,3,0.165,,,,,,,,,,left,1.571,0,0,0,0,1,,,,,,,,
,,,,,,,,8,2021-04-20_15h32.20.294,premceCat2_ses-02_part-02_label-phase2,2020.2.10,MacIntel,60,,,,,,,,,0,134,134,70,1,stimuli/objects/shovel01.jpg,right,new,214,,,,,,,,,,,,,,,
,,,,,,,,8,2021-04-20_15h32.20.294,premceCat2_ses-02_part-02_label-phase2,2020.2.10,MacIntel,60,,,,,right,0.98,4,0.017,0,135,135,121,1,stimuli/objects/parachute.jpg,right,new,265,,,,,,,,,,,,,,,
,,,,,,,,8,2021-04-20_15h32.20.294,premceCat2_ses-02_part-02_label-phase2,2020.2.10,MacIntel,60,,,,,right,0.938,1,0.253,0,136,136,96,1,stimuli/objects/knifesharpener.jpg,left,old,240,,,,,,,,,,,,,,,
,,,,,,,,8,2021-04-20_15h32.20.294,premceCat2_ses-02_part-02_label-phase2,2020.2.10,MacIntel,60,,,,,right,0.964,2,0.13,0,137,137,142,1,stimuli/objects/needlenosepliers01.jpg,right,new,286,,,,,,,,,,,,,,,
,,,,,,,,8,2021-04-20_15h32.20.294,premceCat2_ses-02_part-02_label-phase2,2020.2.10,MacIntel,60,,,,,right,0.891,4,0.067,0,138,138,85,1,stimuli/objects/fan.jpg,left,old,229,,,,,,,,,,,,,,,
,,,,,,,,8,2021-04-20_15h32.20.294,premceCat2_ses-02_part-02_label-phase2,2020.2.10,MacIntel,60,,,,,right,1.156,1,0.14,0,139,139,112,1,stimuli/objects/filmroll.jpg,left,old,256,,,,,,,,,,,,,,,
,,,,,,,,8,2021-04-20_15h32.20.294,premceCat2_ses-02_part-02_label-phase2,2020.2.10,MacIntel,60,,,,,left,0.746,4,0.489,,,,,,,,,,right,0.698,0,0,0,0,1,,,,,,,,
,,,,,,,,8,2021-04-20_15h32.20.294,premceCat2_ses-02_part-02_label-phase2,2020.2.10,MacIntel,60,,,,,,,,,0,140,140,67,1,stimuli/objects/nintendods.jpg,left,old,211,,,,,,,,,,,,,,,
,,,,,,,,8,2021-04-20_15h32.20.294,premceCat2_ses-02_part-02_label-phase2,2020.2.10,MacIntel,60,,,,,left,0.757,4,0.214,,,,,,,,,,right,0.067,0,0,0,0,1,,,,,,,,
,,,,,,,,8,2021-04-20_15h32.20.294,premceCat2_ses-02_part-02_label-phase2,2020.2.10,MacIntel,60,,,,,,,,,0,141,141,106,1,stimuli/objects/usbcable01a.jpg,left,old,250,,,,,,,,,,,,,,,
,,,,,,,,8,2021-04-20_15h32.20.294,premceCat2_ses-02_part-02_label-phase2,2020.2.10,MacIntel,60,,,,,right,1.026,3,0.42,0,142,142,0,1,stimuli/objects/smokedetector02.jpg,right,new,144,,,,,,,,,,,,,,,
,,,,,,,,8,2021-04-20_15h32.20.294,premceCat2_ses-02_part-02_label-phase2,2020.2.10,MacIntel,60,,,,,,,,,,,,,,,,,,,,,,,,,space,4.462,0,1,1,1,1,condition_files/ImagesforRecog1_2.csv
