instructions_loop.thisRepN,instructions_loop.thisTrialN,instructions_loop.thisN,instructions_loop.thisIndex,instructions_loop.ran,text1,text2,text3,participant,date,expName,psychopyVersion,OS,frameRate,key_resp_2.keys,key_resp_2.rt,key_resp_3.keys,key_resp_3.rt,recog_resp.keys,recog_resp.rt,conf_resp.keys,conf_resp.rt,recog_loop.thisRepN,recog_loop.thisTrialN,recog_loop.thisN,recog_loop.thisIndex,recog_loop.ran,images,corr_ans,type,order,resp_assoc.keys,resp_assoc.rt,assoc_loop.thisRepN,assoc_loop.thisTrialN,assoc_loop.thisN,assoc_loop.thisIndex,assoc_loop.ran,key_resp_break.keys,key_resp_break.rt,list_loop.thisRepN,list_loop.thisTrialN,list_loop.thisN,list_loop.thisIndex,list_loop.ran,recog_list
0,0,0,0,1,Welcome to the last phase of this experiment!,.,Please press the space bar to continue,9,2021-04-27_10h33.28.948,premceCat2_ses-02_part-02_label-phase2,2020.2.10,MacIntel,60,,,,,,,,,,,,,,,,,,,,,,,,,,,,,,,,
0,1,1,1,1,.,"In this phase, you will see some objects. 

For each object, you should indicate whether you have seen it before during the experiment.

Press LEFT ARROW for YES
Press RIGHT ARROW for NO

",Please press the space bar to continue ,9,2021-04-27_10h33.28.948,premceCat2_ses-02_part-02_label-phase2,2020.2.10,MacIntel,60,,,,,,,,,,,,,,,,,,,,,,,,,,,,,,,,
0,2,2,2,1,.,"After that, you will be asked how confident you are of your choice.

Please rate the confidence in your choice with the numbers from 1 to 4 of your keyboard. 

The numbers correspond to:

1 = Very unsure
2 = Unsure
3 = Sure
4 = Very Sure",Please press the space bar to continue,9,2021-04-27_10h33.28.948,premceCat2_ses-02_part-02_label-phase2,2020.2.10,MacIntel,60,,,,,,,,,,,,,,,,,,,,,,,,,,,,,,,,
,,,,,,,,9,2021-04-27_10h33.28.948,premceCat2_ses-02_part-02_label-phase2,2020.2.10,MacIntel,60,space,55.798,space,2.527,right,4.737,1,2.506,0,0,0,35,1,stimuli/objects/alarmclock01.jpg,left,old,36,,,,,,,,,,,,,,,
,,,,,,,,9,2021-04-27_10h33.28.948,premceCat2_ses-02_part-02_label-phase2,2020.2.10,MacIntel,60,,,,,right,2.91,2,0.998,0,1,1,85,1,stimuli/objects/golfball.jpg,right,new,86,,,,,,,,,,,,,,,
,,,,,,,,9,2021-04-27_10h33.28.948,premceCat2_ses-02_part-02_label-phase2,2020.2.10,MacIntel,60,,,,,right,1.137,2,0.665,0,2,2,142,1,stimuli/objects/martiniglass01b.jpg,left,old,143,,,,,,,,,,,,,,,
,,,,,,,,9,2021-04-27_10h33.28.948,premceCat2_ses-02_part-02_label-phase2,2020.2.10,MacIntel,60,,,,,right,0.935,2,0.58,0,3,3,138,1,stimuli/objects/taperecorder.jpg,right,new,139,,,,,,,,,,,,,,,
,,,,,,,,9,2021-04-27_10h33.28.948,premceCat2_ses-02_part-02_label-phase2,2020.2.10,MacIntel,60,,,,,right,0.937,3,0.72,0,4,4,4,1,stimuli/objects/microphone01.jpg,right,new,5,,,,,,,,,,,,,,,
,,,,,,,,9,2021-04-27_10h33.28.948,premceCat2_ses-02_part-02_label-phase2,2020.2.10,MacIntel,60,,,,,right,1.189,3,0.315,0,5,5,71,1,stimuli/objects/faxmachine.jpg,right,new,72,,,,,,,,,,,,,,,
,,,,,,,,9,2021-04-27_10h33.28.948,premceCat2_ses-02_part-02_label-phase2,2020.2.10,MacIntel,60,,,,,right,0.822,2,0.522,0,6,6,93,1,stimuli/objects/icepack.jpg,right,new,94,,,,,,,,,,,,,,,
,,,,,,,,9,2021-04-27_10h33.28.948,premceCat2_ses-02_part-02_label-phase2,2020.2.10,MacIntel,60,,,,,right,0.86,3,0.364,0,7,7,81,1,stimuli/objects/avcable.jpg,right,new,82,,,,,,,,,,,,,,,
,,,,,,,,9,2021-04-27_10h33.28.948,premceCat2_ses-02_part-02_label-phase2,2020.2.10,MacIntel,60,,,,,right,0.81,2,0.47,0,8,8,67,1,stimuli/objects/fishingrod.jpg,left,old,68,,,,,,,,,,,,,,,
,,,,,,,,9,2021-04-27_10h33.28.948,premceCat2_ses-02_part-02_label-phase2,2020.2.10,MacIntel,60,,,,,left,0.669,3,0.348,,,,,,,,,,left,2.4,0,0,0,0,1,,,,,,,,
,,,,,,,,9,2021-04-27_10h33.28.948,premceCat2_ses-02_part-02_label-phase2,2020.2.10,MacIntel,60,,,,,,,,,0,9,9,34,1,stimuli/objects/lifesaver.jpg,left,old,35,,,,,,,,,,,,,,,
,,,,,,,,9,2021-04-27_10h33.28.948,premceCat2_ses-02_part-02_label-phase2,2020.2.10,MacIntel,60,,,,,right,0.926,3,0.868,0,10,10,19,1,stimuli/objects/peppermill02b.jpg,right,new,20,,,,,,,,,,,,,,,
,,,,,,,,9,2021-04-27_10h33.28.948,premceCat2_ses-02_part-02_label-phase2,2020.2.10,MacIntel,60,,,,,right,0.637,3,0.299,0,11,11,20,1,stimuli/objects/laptop01a.jpg,right,new,21,,,,,,,,,,,,,,,
,,,,,,,,9,2021-04-27_10h33.28.948,premceCat2_ses-02_part-02_label-phase2,2020.2.10,MacIntel,60,,,,,left,2.869,3,1.03,,,,,,,,,,left,2.668,0,0,0,0,1,,,,,,,,
,,,,,,,,9,2021-04-27_10h33.28.948,premceCat2_ses-02_part-02_label-phase2,2020.2.10,MacIntel,60,,,,,,,,,0,12,12,98,1,stimuli/objects/baseball01a.jpg,left,old,99,,,,,,,,,,,,,,,
,,,,,,,,9,2021-04-27_10h33.28.948,premceCat2_ses-02_part-02_label-phase2,2020.2.10,MacIntel,60,,,,,right,1.622,2,0.329,0,13,13,76,1,stimuli/objects/megaphone.jpg,right,new,77,,,,,,,,,,,,,,,
,,,,,,,,9,2021-04-27_10h33.28.948,premceCat2_ses-02_part-02_label-phase2,2020.2.10,MacIntel,60,,,,,right,0.672,2,0.287,0,14,14,78,1,stimuli/objects/butterknife.jpg,left,old,79,,,,,,,,,,,,,,,
,,,,,,,,9,2021-04-27_10h33.28.948,premceCat2_ses-02_part-02_label-phase2,2020.2.10,MacIntel,60,,,,,right,0.624,3,0.615,0,15,15,109,1,stimuli/objects/winerack.jpg,right,new,110,,,,,,,,,,,,,,,
,,,,,,,,9,2021-04-27_10h33.28.948,premceCat2_ses-02_part-02_label-phase2,2020.2.10,MacIntel,60,,,,,right,0.441,1,0.52,0,16,16,105,1,stimuli/objects/lightbulb01.jpg,left,old,106,,,,,,,,,,,,,,,
,,,,,,,,9,2021-04-27_10h33.28.948,premceCat2_ses-02_part-02_label-phase2,2020.2.10,MacIntel,60,,,,,right,0.736,2,0.314,0,17,17,120,1,stimuli/objects/oven.jpg,left,old,121,,,,,,,,,,,,,,,
,,,,,,,,9,2021-04-27_10h33.28.948,premceCat2_ses-02_part-02_label-phase2,2020.2.10,MacIntel,60,,,,,left,0.885,3,0.766,,,,,,,,,,right,0.885,0,0,0,0,1,,,,,,,,
,,,,,,,,9,2021-04-27_10h33.28.948,premceCat2_ses-02_part-02_label-phase2,2020.2.10,MacIntel,60,,,,,,,,,0,18,18,101,1,stimuli/objects/vhstape.jpg,left,old,102,,,,,,,,,,,,,,,
,,,,,,,,9,2021-04-27_10h33.28.948,premceCat2_ses-02_part-02_label-phase2,2020.2.10,MacIntel,60,,,,,right,0.665,3,0.347,0,19,19,66,1,stimuli/objects/nailgun.jpg,right,new,67,,,,,,,,,,,,,,,
,,,,,,,,9,2021-04-27_10h33.28.948,premceCat2_ses-02_part-02_label-phase2,2020.2.10,MacIntel,60,,,,,right,0.65,3,0.35,0,20,20,54,1,stimuli/objects/pda.jpg,right,new,55,,,,,,,,,,,,,,,
,,,,,,,,9,2021-04-27_10h33.28.948,premceCat2_ses-02_part-02_label-phase2,2020.2.10,MacIntel,60,,,,,right,0.655,3,0.249,0,21,21,91,1,stimuli/objects/metalbrush.jpg,left,old,92,,,,,,,,,,,,,,,
,,,,,,,,9,2021-04-27_10h33.28.948,premceCat2_ses-02_part-02_label-phase2,2020.2.10,MacIntel,60,,,,,right,0.621,3,0.334,0,22,22,18,1,stimuli/objects/cashregister01.jpg,right,new,19,,,,,,,,,,,,,,,
,,,,,,,,9,2021-04-27_10h33.28.948,premceCat2_ses-02_part-02_label-phase2,2020.2.10,MacIntel,60,,,,,right,1.039,3,0.265,0,23,23,43,1,stimuli/objects/punchingball.jpg,right,new,44,,,,,,,,,,,,,,,
,,,,,,,,9,2021-04-27_10h33.28.948,premceCat2_ses-02_part-02_label-phase2,2020.2.10,MacIntel,60,,,,,left,0.958,3,1.413,,,,,,,,,,right,0.6,0,0,0,0,1,,,,,,,,
,,,,,,,,9,2021-04-27_10h33.28.948,premceCat2_ses-02_part-02_label-phase2,2020.2.10,MacIntel,60,,,,,,,,,0,24,24,31,1,stimuli/objects/gastank.jpg,left,old,32,,,,,,,,,,,,,,,
,,,,,,,,9,2021-04-27_10h33.28.948,premceCat2_ses-02_part-02_label-phase2,2020.2.10,MacIntel,60,,,,,left,1.123,3,0.655,,,,,,,,,,left,0.552,0,0,0,0,1,,,,,,,,
,,,,,,,,9,2021-04-27_10h33.28.948,premceCat2_ses-02_part-02_label-phase2,2020.2.10,MacIntel,60,,,,,,,,,0,25,25,113,1,stimuli/objects/powercable.jpg,right,new,114,,,,,,,,,,,,,,,
,,,,,,,,9,2021-04-27_10h33.28.948,premceCat2_ses-02_part-02_label-phase2,2020.2.10,MacIntel,60,,,,,right,0.785,2,0.783,0,26,26,117,1,stimuli/objects/videotape01b.jpg,right,new,118,,,,,,,,,,,,,,,
,,,,,,,,9,2021-04-27_10h33.28.948,premceCat2_ses-02_part-02_label-phase2,2020.2.10,MacIntel,60,,,,,left,1.034,4,0.597,,,,,,,,,,left,1.146,0,0,0,0,1,,,,,,,,
,,,,,,,,9,2021-04-27_10h33.28.948,premceCat2_ses-02_part-02_label-phase2,2020.2.10,MacIntel,60,,,,,,,,,0,27,27,130,1,stimuli/objects/cooler01.jpg,left,old,131,,,,,,,,,,,,,,,
,,,,,,,,9,2021-04-27_10h33.28.948,premceCat2_ses-02_part-02_label-phase2,2020.2.10,MacIntel,60,,,,,right,1.102,2,0.699,0,28,28,119,1,stimuli/objects/tongs01b.jpg,right,new,120,,,,,,,,,,,,,,,
,,,,,,,,9,2021-04-27_10h33.28.948,premceCat2_ses-02_part-02_label-phase2,2020.2.10,MacIntel,60,,,,,right,0.694,3,0.334,0,29,29,41,1,stimuli/objects/pylon01.jpg,right,new,42,,,,,,,,,,,,,,,
,,,,,,,,9,2021-04-27_10h33.28.948,premceCat2_ses-02_part-02_label-phase2,2020.2.10,MacIntel,60,,,,,right,0.8,3,0.282,0,30,30,110,1,stimuli/objects/lock03a.jpg,right,new,111,,,,,,,,,,,,,,,
,,,,,,,,9,2021-04-27_10h33.28.948,premceCat2_ses-02_part-02_label-phase2,2020.2.10,MacIntel,60,,,,,right,0.507,3,0.3,0,31,31,107,1,stimuli/objects/aluminiumfoil.jpg,left,old,108,,,,,,,,,,,,,,,
,,,,,,,,9,2021-04-27_10h33.28.948,premceCat2_ses-02_part-02_label-phase2,2020.2.10,MacIntel,60,,,,,left,0.942,3,0.286,,,,,,,,,,right,0.918,0,0,0,0,1,,,,,,,,
,,,,,,,,9,2021-04-27_10h33.28.948,premceCat2_ses-02_part-02_label-phase2,2020.2.10,MacIntel,60,,,,,,,,,0,32,32,114,1,stimuli/objects/tray.jpg,left,old,115,,,,,,,,,,,,,,,
,,,,,,,,9,2021-04-27_10h33.28.948,premceCat2_ses-02_part-02_label-phase2,2020.2.10,MacIntel,60,,,,,right,0.735,3,0.221,0,33,33,26,1,stimuli/objects/boogieboard.jpg,right,new,27,,,,,,,,,,,,,,,
,,,,,,,,9,2021-04-27_10h33.28.948,premceCat2_ses-02_part-02_label-phase2,2020.2.10,MacIntel,60,,,,,left,0.953,2,0.569,,,,,,,,,,left,0.265,0,0,0,0,1,,,,,,,,
,,,,,,,,9,2021-04-27_10h33.28.948,premceCat2_ses-02_part-02_label-phase2,2020.2.10,MacIntel,60,,,,,,,,,0,34,34,45,1,stimuli/objects/cookingpot.jpg,left,old,46,,,,,,,,,,,,,,,
,,,,,,,,9,2021-04-27_10h33.28.948,premceCat2_ses-02_part-02_label-phase2,2020.2.10,MacIntel,60,,,,,left,0.823,2,0.298,,,,,,,,,,right,0.28,0,0,0,0,1,,,,,,,,
,,,,,,,,9,2021-04-27_10h33.28.948,premceCat2_ses-02_part-02_label-phase2,2020.2.10,MacIntel,60,,,,,,,,,0,35,35,79,1,stimuli/objects/fluorescentlightbulb.jpg,left,old,80,,,,,,,,,,,,,,,
,,,,,,,,9,2021-04-27_10h33.28.948,premceCat2_ses-02_part-02_label-phase2,2020.2.10,MacIntel,60,,,,,right,1.052,2,0.215,0,36,36,133,1,stimuli/objects/icebucket.jpg,right,new,134,,,,,,,,,,,,,,,
,,,,,,,,9,2021-04-27_10h33.28.948,premceCat2_ses-02_part-02_label-phase2,2020.2.10,MacIntel,60,,,,,left,1.076,3,0.397,,,,,,,,,,left,0.235,0,0,0,0,1,,,,,,,,
,,,,,,,,9,2021-04-27_10h33.28.948,premceCat2_ses-02_part-02_label-phase2,2020.2.10,MacIntel,60,,,,,,,,,0,37,37,96,1,stimuli/objects/golfbag.jpg,right,new,97,,,,,,,,,,,,,,,
,,,,,,,,9,2021-04-27_10h33.28.948,premceCat2_ses-02_part-02_label-phase2,2020.2.10,MacIntel,60,,,,,right,0.845,2,0.185,0,38,38,108,1,stimuli/objects/metalscissors.jpg,right,new,109,,,,,,,,,,,,,,,
,,,,,,,,9,2021-04-27_10h33.28.948,premceCat2_ses-02_part-02_label-phase2,2020.2.10,MacIntel,60,,,,,left,1.189,2,1.048,,,,,,,,,,right,0.245,0,0,0,0,1,,,,,,,,
,,,,,,,,9,2021-04-27_10h33.28.948,premceCat2_ses-02_part-02_label-phase2,2020.2.10,MacIntel,60,,,,,,,,,0,39,39,123,1,stimuli/objects/thermos.jpg,left,old,124,,,,,,,,,,,,,,,
,,,,,,,,9,2021-04-27_10h33.28.948,premceCat2_ses-02_part-02_label-phase2,2020.2.10,MacIntel,60,,,,,left,1.017,3,0.32,,,,,,,,,,right,0.714,0,0,0,0,1,,,,,,,,
,,,,,,,,9,2021-04-27_10h33.28.948,premceCat2_ses-02_part-02_label-phase2,2020.2.10,MacIntel,60,,,,,,,,,0,40,40,1,1,stimuli/objects/ipad02.jpg,left,old,2,,,,,,,,,,,,,,,
,,,,,,,,9,2021-04-27_10h33.28.948,premceCat2_ses-02_part-02_label-phase2,2020.2.10,MacIntel,60,,,,,left,0.929,3,0.232,,,,,,,,,,left,0.231,0,0,0,0,1,,,,,,,,
,,,,,,,,9,2021-04-27_10h33.28.948,premceCat2_ses-02_part-02_label-phase2,2020.2.10,MacIntel,60,,,,,,,,,0,41,41,5,1,stimuli/objects/expansioncard.jpg,left,old,6,,,,,,,,,,,,,,,
,,,,,,,,9,2021-04-27_10h33.28.948,premceCat2_ses-02_part-02_label-phase2,2020.2.10,MacIntel,60,,,,,right,0.754,2,0.287,0,42,42,73,1,stimuli/objects/clock01a.jpg,right,new,74,,,,,,,,,,,,,,,
,,,,,,,,9,2021-04-27_10h33.28.948,premceCat2_ses-02_part-02_label-phase2,2020.2.10,MacIntel,60,,,,,right,1.871,1,0.247,0,43,43,14,1,stimuli/objects/puttyknife.jpg,left,old,15,,,,,,,,,,,,,,,
,,,,,,,,9,2021-04-27_10h33.28.948,premceCat2_ses-02_part-02_label-phase2,2020.2.10,MacIntel,60,,,,,left,0.784,3,0.264,,,,,,,,,,right,0.832,0,0,0,0,1,,,,,,,,
,,,,,,,,9,2021-04-27_10h33.28.948,premceCat2_ses-02_part-02_label-phase2,2020.2.10,MacIntel,60,,,,,,,,,0,44,44,77,1,stimuli/objects/satellitedish01.jpg,left,old,78,,,,,,,,,,,,,,,
,,,,,,,,9,2021-04-27_10h33.28.948,premceCat2_ses-02_part-02_label-phase2,2020.2.10,MacIntel,60,,,,,left,0.878,4,0.265,,,,,,,,,,left,0.252,0,0,0,0,1,,,,,,,,
,,,,,,,,9,2021-04-27_10h33.28.948,premceCat2_ses-02_part-02_label-phase2,2020.2.10,MacIntel,60,,,,,,,,,0,45,45,64,1,stimuli/objects/drillbit03a.jpg,left,old,65,,,,,,,,,,,,,,,
,,,,,,,,9,2021-04-27_10h33.28.948,premceCat2_ses-02_part-02_label-phase2,2020.2.10,MacIntel,60,,,,,left,2.06,2,0.332,,,,,,,,,,right,0.265,0,0,0,0,1,,,,,,,,
,,,,,,,,9,2021-04-27_10h33.28.948,premceCat2_ses-02_part-02_label-phase2,2020.2.10,MacIntel,60,,,,,,,,,0,46,46,32,1,stimuli/objects/mitresaw.jpg,right,new,33,,,,,,,,,,,,,,,
,,,,,,,,9,2021-04-27_10h33.28.948,premceCat2_ses-02_part-02_label-phase2,2020.2.10,MacIntel,60,,,,,right,1.553,1,0.236,0,47,47,134,1,stimuli/objects/screwdriver04b.jpg,right,new,135,,,,,,,,,,,,,,,
,,,,,,,,9,2021-04-27_10h33.28.948,premceCat2_ses-02_part-02_label-phase2,2020.2.10,MacIntel,60,,,,,right,0.991,2,0.131,0,48,48,68,1,stimuli/objects/leafblower01.jpg,right,new,69,,,,,,,,,,,,,,,
,,,,,,,,9,2021-04-27_10h33.28.948,premceCat2_ses-02_part-02_label-phase2,2020.2.10,MacIntel,60,,,,,right,0.705,2,0.235,0,49,49,21,1,stimuli/objects/paintbrush01.jpg,right,new,22,,,,,,,,,,,,,,,
,,,,,,,,9,2021-04-27_10h33.28.948,premceCat2_ses-02_part-02_label-phase2,2020.2.10,MacIntel,60,,,,,right,2.772,2,0.483,0,50,50,115,1,stimuli/objects/saw02b.jpg,left,old,116,,,,,,,,,,,,,,,
,,,,,,,,9,2021-04-27_10h33.28.948,premceCat2_ses-02_part-02_label-phase2,2020.2.10,MacIntel,60,,,,,left,1,3,0.248,,,,,,,,,,left,0.419,0,0,0,0,1,,,,,,,,
,,,,,,,,9,2021-04-27_10h33.28.948,premceCat2_ses-02_part-02_label-phase2,2020.2.10,MacIntel,60,,,,,,,,,0,51,51,56,1,stimuli/objects/funnel.jpg,left,old,57,,,,,,,,,,,,,,,
,,,,,,,,9,2021-04-27_10h33.28.948,premceCat2_ses-02_part-02_label-phase2,2020.2.10,MacIntel,60,,,,,right,0.627,2,0.452,0,52,52,139,1,stimuli/objects/frisbee.jpg,right,new,140,,,,,,,,,,,,,,,
,,,,,,,,9,2021-04-27_10h33.28.948,premceCat2_ses-02_part-02_label-phase2,2020.2.10,MacIntel,60,,,,,right,0.951,2,0.254,0,53,53,37,1,stimuli/objects/pressurewasher.jpg,left,old,38,,,,,,,,,,,,,,,
,,,,,,,,9,2021-04-27_10h33.28.948,premceCat2_ses-02_part-02_label-phase2,2020.2.10,MacIntel,60,,,,,right,1.208,2,0.23,0,54,54,100,1,stimuli/objects/remotecontrol04.jpg,right,new,101,,,,,,,,,,,,,,,
,,,,,,,,9,2021-04-27_10h33.28.948,premceCat2_ses-02_part-02_label-phase2,2020.2.10,MacIntel,60,,,,,right,0.61,1,0.586,0,55,55,13,1,stimuli/objects/bastingbrush.jpg,right,new,14,,,,,,,,,,,,,,,
,,,,,,,,9,2021-04-27_10h33.28.948,premceCat2_ses-02_part-02_label-phase2,2020.2.10,MacIntel,60,,,,,right,0.956,3,0.257,0,56,56,86,1,stimuli/objects/toasteroven.jpg,right,new,87,,,,,,,,,,,,,,,
,,,,,,,,9,2021-04-27_10h33.28.948,premceCat2_ses-02_part-02_label-phase2,2020.2.10,MacIntel,60,,,,,right,0.736,1,1.139,0,57,57,7,1,stimuli/objects/painttray.jpg,left,old,8,,,,,,,,,,,,,,,
,,,,,,,,9,2021-04-27_10h33.28.948,premceCat2_ses-02_part-02_label-phase2,2020.2.10,MacIntel,60,,,,,right,1.153,3,0.671,0,58,58,25,1,stimuli/objects/bowlingball.jpg,right,new,26,,,,,,,,,,,,,,,
,,,,,,,,9,2021-04-27_10h33.28.948,premceCat2_ses-02_part-02_label-phase2,2020.2.10,MacIntel,60,,,,,right,1.168,3,0.339,0,59,59,63,1,stimuli/objects/butterdish.jpg,right,new,64,,,,,,,,,,,,,,,
,,,,,,,,9,2021-04-27_10h33.28.948,premceCat2_ses-02_part-02_label-phase2,2020.2.10,MacIntel,60,,,,,right,1.857,3,0.28,0,60,60,82,1,stimuli/objects/snowbrush.jpg,right,new,83,,,,,,,,,,,,,,,
,,,,,,,,9,2021-04-27_10h33.28.948,premceCat2_ses-02_part-02_label-phase2,2020.2.10,MacIntel,60,,,,,left,2.003,2,0.549,,,,,,,,,,left,0.231,0,0,0,0,1,,,,,,,,
,,,,,,,,9,2021-04-27_10h33.28.948,premceCat2_ses-02_part-02_label-phase2,2020.2.10,MacIntel,60,,,,,,,,,0,61,61,33,1,stimuli/objects/microwave.jpg,right,new,34,,,,,,,,,,,,,,,
,,,,,,,,9,2021-04-27_10h33.28.948,premceCat2_ses-02_part-02_label-phase2,2020.2.10,MacIntel,60,,,,,left,3.854,2,2.75,,,,,,,,,,right,1.37,0,0,0,0,1,,,,,,,,
,,,,,,,,9,2021-04-27_10h33.28.948,premceCat2_ses-02_part-02_label-phase2,2020.2.10,MacIntel,60,,,,,,,,,0,62,62,27,1,stimuli/objects/anchor.jpg,left,old,28,,,,,,,,,,,,,,,
,,,,,,,,9,2021-04-27_10h33.28.948,premceCat2_ses-02_part-02_label-phase2,2020.2.10,MacIntel,60,,,,,left,0.81,4,0.386,,,,,,,,,,left,1.065,0,0,0,0,1,,,,,,,,
,,,,,,,,9,2021-04-27_10h33.28.948,premceCat2_ses-02_part-02_label-phase2,2020.2.10,MacIntel,60,,,,,,,,,0,63,63,135,1,stimuli/objects/stubbywrench01a.jpg,left,old,136,,,,,,,,,,,,,,,
,,,,,,,,9,2021-04-27_10h33.28.948,premceCat2_ses-02_part-02_label-phase2,2020.2.10,MacIntel,60,,,,,left,1.223,2,0.34,,,,,,,,,,left,1.449,0,0,0,0,1,,,,,,,,
,,,,,,,,9,2021-04-27_10h33.28.948,premceCat2_ses-02_part-02_label-phase2,2020.2.10,MacIntel,60,,,,,,,,,0,64,64,129,1,stimuli/objects/peeler01.jpg,left,old,130,,,,,,,,,,,,,,,
,,,,,,,,9,2021-04-27_10h33.28.948,premceCat2_ses-02_part-02_label-phase2,2020.2.10,MacIntel,60,,,,,right,1.089,2,0.116,0,65,65,72,1,stimuli/objects/cclamp.jpg,right,new,73,,,,,,,,,,,,,,,
,,,,,,,,9,2021-04-27_10h33.28.948,premceCat2_ses-02_part-02_label-phase2,2020.2.10,MacIntel,60,,,,,right,0.943,2,0.165,0,66,66,55,1,stimuli/objects/toolbox02.jpg,right,new,56,,,,,,,,,,,,,,,
,,,,,,,,9,2021-04-27_10h33.28.948,premceCat2_ses-02_part-02_label-phase2,2020.2.10,MacIntel,60,,,,,right,0.756,3,0.703,0,67,67,88,1,stimuli/objects/gravyboat.jpg,left,old,89,,,,,,,,,,,,,,,
,,,,,,,,9,2021-04-27_10h33.28.948,premceCat2_ses-02_part-02_label-phase2,2020.2.10,MacIntel,60,,,,,left,0.82,3,0.4,,,,,,,,,,left,1.498,0,0,0,0,1,,,,,,,,
,,,,,,,,9,2021-04-27_10h33.28.948,premceCat2_ses-02_part-02_label-phase2,2020.2.10,MacIntel,60,,,,,,,,,0,68,68,44,1,stimuli/objects/lawnmower.jpg,left,old,45,,,,,,,,,,,,,,,
,,,,,,,,9,2021-04-27_10h33.28.948,premceCat2_ses-02_part-02_label-phase2,2020.2.10,MacIntel,60,,,,,right,1.254,1,0.397,0,69,69,59,1,stimuli/objects/studiolight.jpg,right,new,60,,,,,,,,,,,,,,,
,,,,,,,,9,2021-04-27_10h33.28.948,premceCat2_ses-02_part-02_label-phase2,2020.2.10,MacIntel,60,,,,,right,1.192,2,0.221,0,70,70,60,1,stimuli/objects/glass02a.jpg,right,new,61,,,,,,,,,,,,,,,
,,,,,,,,9,2021-04-27_10h33.28.948,premceCat2_ses-02_part-02_label-phase2,2020.2.10,MacIntel,60,,,,,left,3.456,2,0.236,,,,,,,,,,right,0.265,0,0,0,0,1,,,,,,,,
,,,,,,,,9,2021-04-27_10h33.28.948,premceCat2_ses-02_part-02_label-phase2,2020.2.10,MacIntel,60,,,,,,,,,0,71,71,124,1,stimuli/objects/fishinghook03.jpg,left,old,125,,,,,,,,,,,,,,,
,,,,,,,,9,2021-04-27_10h33.28.948,premceCat2_ses-02_part-02_label-phase2,2020.2.10,MacIntel,60,,,,,left,0.818,3,0.264,,,,,,,,,,left,0.3,0,0,0,0,1,,,,,,,,
,,,,,,,,9,2021-04-27_10h33.28.948,premceCat2_ses-02_part-02_label-phase2,2020.2.10,MacIntel,60,,,,,,,,,0,72,72,89,1,stimuli/objects/ducttape.jpg,right,new,90,,,,,,,,,,,,,,,
,,,,,,,,9,2021-04-27_10h33.28.948,premceCat2_ses-02_part-02_label-phase2,2020.2.10,MacIntel,60,,,,,left,0.986,4,0.297,,,,,,,,,,left,0.482,0,0,0,0,1,,,,,,,,
,,,,,,,,9,2021-04-27_10h33.28.948,premceCat2_ses-02_part-02_label-phase2,2020.2.10,MacIntel,60,,,,,,,,,0,73,73,102,1,stimuli/objects/backpack01a.jpg,left,old,103,,,,,,,,,,,,,,,
,,,,,,,,9,2021-04-27_10h33.28.948,premceCat2_ses-02_part-02_label-phase2,2020.2.10,MacIntel,60,,,,,right,0.888,2,0.249,0,74,74,128,1,stimuli/objects/tripod01.jpg,right,new,129,,,,,,,,,,,,,,,
,,,,,,,,9,2021-04-27_10h33.28.948,premceCat2_ses-02_part-02_label-phase2,2020.2.10,MacIntel,60,,,,,right,2.62,2,0.231,0,75,75,131,1,stimuli/objects/spotlight.jpg,right,new,132,,,,,,,,,,,,,,,
,,,,,,,,9,2021-04-27_10h33.28.948,premceCat2_ses-02_part-02_label-phase2,2020.2.10,MacIntel,60,,,,,left,0.834,3,0.25,,,,,,,,,,left,0.234,0,0,0,0,1,,,,,,,,
,,,,,,,,9,2021-04-27_10h33.28.948,premceCat2_ses-02_part-02_label-phase2,2020.2.10,MacIntel,60,,,,,,,,,0,76,76,95,1,stimuli/objects/floppydisk02a.jpg,left,old,96,,,,,,,,,,,,,,,
,,,,,,,,9,2021-04-27_10h33.28.948,premceCat2_ses-02_part-02_label-phase2,2020.2.10,MacIntel,60,,,,,left,0.742,3,0.231,,,,,,,,,,right,0.399,0,0,0,0,1,,,,,,,,
,,,,,,,,9,2021-04-27_10h33.28.948,premceCat2_ses-02_part-02_label-phase2,2020.2.10,MacIntel,60,,,,,,,,,0,77,77,36,1,stimuli/objects/slidetray.jpg,left,old,37,,,,,,,,,,,,,,,
,,,,,,,,9,2021-04-27_10h33.28.948,premceCat2_ses-02_part-02_label-phase2,2020.2.10,MacIntel,60,,,,,right,1.137,2,0.871,0,78,78,6,1,stimuli/objects/pitcher02b.jpg,left,old,7,,,,,,,,,,,,,,,
,,,,,,,,9,2021-04-27_10h33.28.948,premceCat2_ses-02_part-02_label-phase2,2020.2.10,MacIntel,60,,,,,left,2.512,3,0.633,,,,,,,,,,left,0.252,0,0,0,0,1,,,,,,,,
,,,,,,,,9,2021-04-27_10h33.28.948,premceCat2_ses-02_part-02_label-phase2,2020.2.10,MacIntel,60,,,,,,,,,0,79,79,97,1,stimuli/objects/securitycamera.jpg,left,old,98,,,,,,,,,,,,,,,
,,,,,,,,9,2021-04-27_10h33.28.948,premceCat2_ses-02_part-02_label-phase2,2020.2.10,MacIntel,60,,,,,right,0.716,3,0.348,0,80,80,116,1,stimuli/objects/radio01.jpg,right,new,117,,,,,,,,,,,,,,,
,,,,,,,,9,2021-04-27_10h33.28.948,premceCat2_ses-02_part-02_label-phase2,2020.2.10,MacIntel,60,,,,,right,0.955,3,0.236,0,81,81,69,1,stimuli/objects/filmnegative.jpg,left,old,70,,,,,,,,,,,,,,,
,,,,,,,,9,2021-04-27_10h33.28.948,premceCat2_ses-02_part-02_label-phase2,2020.2.10,MacIntel,60,,,,,left,0.977,3,0.231,,,,,,,,,,right,0.449,0,0,0,0,1,,,,,,,,
,,,,,,,,9,2021-04-27_10h33.28.948,premceCat2_ses-02_part-02_label-phase2,2020.2.10,MacIntel,60,,,,,,,,,0,82,82,29,1,stimuli/objects/outletadapter.jpg,left,old,30,,,,,,,,,,,,,,,
,,,,,,,,9,2021-04-27_10h33.28.948,premceCat2_ses-02_part-02_label-phase2,2020.2.10,MacIntel,60,,,,,right,1.461,2,0.214,0,83,83,75,1,stimuli/objects/stepladder.jpg,right,new,76,,,,,,,,,,,,,,,
,,,,,,,,9,2021-04-27_10h33.28.948,premceCat2_ses-02_part-02_label-phase2,2020.2.10,MacIntel,60,,,,,right,0.943,2,0.248,0,84,84,92,1,stimuli/objects/carjack.jpg,right,new,93,,,,,,,,,,,,,,,
,,,,,,,,9,2021-04-27_10h33.28.948,premceCat2_ses-02_part-02_label-phase2,2020.2.10,MacIntel,60,,,,,left,1.269,3,0.203,,,,,,,,,,left,0.231,0,0,0,0,1,,,,,,,,
,,,,,,,,9,2021-04-27_10h33.28.948,premceCat2_ses-02_part-02_label-phase2,2020.2.10,MacIntel,60,,,,,,,,,0,85,85,127,1,stimuli/objects/reflector.jpg,left,old,128,,,,,,,,,,,,,,,
,,,,,,,,9,2021-04-27_10h33.28.948,premceCat2_ses-02_part-02_label-phase2,2020.2.10,MacIntel,60,,,,,right,0.871,4,0.183,0,86,86,42,1,stimuli/objects/snowshoe.jpg,right,new,43,,,,,,,,,,,,,,,
,,,,,,,,9,2021-04-27_10h33.28.948,premceCat2_ses-02_part-02_label-phase2,2020.2.10,MacIntel,60,,,,,right,0.889,4,1.199,0,87,87,136,1,stimuli/objects/battery02b.jpg,right,new,137,,,,,,,,,,,,,,,
,,,,,,,,9,2021-04-27_10h33.28.948,premceCat2_ses-02_part-02_label-phase2,2020.2.10,MacIntel,60,,,,,right,0.818,3,0.224,0,88,88,106,1,stimuli/objects/minifridge.jpg,right,new,107,,,,,,,,,,,,,,,
,,,,,,,,9,2021-04-27_10h33.28.948,premceCat2_ses-02_part-02_label-phase2,2020.2.10,MacIntel,60,,,,,right,0.701,3,0.334,0,89,89,24,1,stimuli/objects/skateboard.jpg,right,new,25,,,,,,,,,,,,,,,
,,,,,,,,9,2021-04-27_10h33.28.948,premceCat2_ses-02_part-02_label-phase2,2020.2.10,MacIntel,60,,,,,right,0.822,3,0.281,0,90,90,17,1,stimuli/objects/exercisebench.jpg,right,new,18,,,,,,,,,,,,,,,
,,,,,,,,9,2021-04-27_10h33.28.948,premceCat2_ses-02_part-02_label-phase2,2020.2.10,MacIntel,60,,,,,right,0.988,1,0.551,0,91,91,58,1,stimuli/objects/weedwacker.jpg,left,old,59,,,,,,,,,,,,,,,
,,,,,,,,9,2021-04-27_10h33.28.948,premceCat2_ses-02_part-02_label-phase2,2020.2.10,MacIntel,60,,,,,right,1.459,2,0.186,0,92,92,126,1,stimuli/objects/tableknife02.jpg,right,new,127,,,,,,,,,,,,,,,
,,,,,,,,9,2021-04-27_10h33.28.948,premceCat2_ses-02_part-02_label-phase2,2020.2.10,MacIntel,60,,,,,left,0.825,2,0.764,,,,,,,,,,left,0.246,0,0,0,0,1,,,,,,,,
,,,,,,,,9,2021-04-27_10h33.28.948,premceCat2_ses-02_part-02_label-phase2,2020.2.10,MacIntel,60,,,,,,,,,0,93,93,23,1,stimuli/objects/football.jpg,right,new,24,,,,,,,,,,,,,,,
,,,,,,,,9,2021-04-27_10h33.28.948,premceCat2_ses-02_part-02_label-phase2,2020.2.10,MacIntel,60,,,,,right,0.761,3,2.615,0,94,94,90,1,stimuli/objects/carlighter02.jpg,right,new,91,,,,,,,,,,,,,,,
,,,,,,,,9,2021-04-27_10h33.28.948,premceCat2_ses-02_part-02_label-phase2,2020.2.10,MacIntel,60,,,,,left,1.111,4,0.299,,,,,,,,,,right,0.913,0,0,0,0,1,,,,,,,,
,,,,,,,,9,2021-04-27_10h33.28.948,premceCat2_ses-02_part-02_label-phase2,2020.2.10,MacIntel,60,,,,,,,,,0,95,95,87,1,stimuli/objects/fanblades.jpg,left,old,88,,,,,,,,,,,,,,,
,,,,,,,,9,2021-04-27_10h33.28.948,premceCat2_ses-02_part-02_label-phase2,2020.2.10,MacIntel,60,,,,,right,0.754,2,0.248,0,96,96,62,1,stimuli/objects/potatomasher03b.jpg,left,old,63,,,,,,,,,,,,,,,
,,,,,,,,9,2021-04-27_10h33.28.948,premceCat2_ses-02_part-02_label-phase2,2020.2.10,MacIntel,60,,,,,left,0.787,4,0.213,,,,,,,,,,left,0.25,0,0,0,0,1,,,,,,,,
,,,,,,,,9,2021-04-27_10h33.28.948,premceCat2_ses-02_part-02_label-phase2,2020.2.10,MacIntel,60,,,,,,,,,0,97,97,48,1,stimuli/objects/bottlecap.jpg,left,old,49,,,,,,,,,,,,,,,
,,,,,,,,9,2021-04-27_10h33.28.948,premceCat2_ses-02_part-02_label-phase2,2020.2.10,MacIntel,60,,,,,right,0.868,2,0.33,0,98,98,52,1,stimuli/objects/handmixer01d.jpg,left,old,53,,,,,,,,,,,,,,,
,,,,,,,,9,2021-04-27_10h33.28.948,premceCat2_ses-02_part-02_label-phase2,2020.2.10,MacIntel,60,,,,,left,1.003,2,0.271,,,,,,,,,,right,0.614,0,0,0,0,1,,,,,,,,
,,,,,,,,9,2021-04-27_10h33.28.948,premceCat2_ses-02_part-02_label-phase2,2020.2.10,MacIntel,60,,,,,,,,,0,99,99,8,1,stimuli/objects/basketballhoop01.jpg,right,new,9,,,,,,,,,,,,,,,
,,,,,,,,9,2021-04-27_10h33.28.948,premceCat2_ses-02_part-02_label-phase2,2020.2.10,MacIntel,60,,,,,right,0.929,3,0.149,0,100,100,22,1,stimuli/objects/umbrella04.jpg,right,new,23,,,,,,,,,,,,,,,
,,,,,,,,9,2021-04-27_10h33.28.948,premceCat2_ses-02_part-02_label-phase2,2020.2.10,MacIntel,60,,,,,right,1.226,3,1.502,0,101,101,12,1,stimuli/objects/garlicpress02a.jpg,right,new,13,,,,,,,,,,,,,,,
,,,,,,,,9,2021-04-27_10h33.28.948,premceCat2_ses-02_part-02_label-phase2,2020.2.10,MacIntel,60,,,,,left,0.877,4,0.222,,,,,,,,,,left,0.295,0,0,0,0,1,,,,,,,,
,,,,,,,,9,2021-04-27_10h33.28.948,premceCat2_ses-02_part-02_label-phase2,2020.2.10,MacIntel,60,,,,,,,,,0,102,102,3,1,stimuli/objects/shotglass.jpg,left,old,4,,,,,,,,,,,,,,,
,,,,,,,,9,2021-04-27_10h33.28.948,premceCat2_ses-02_part-02_label-phase2,2020.2.10,MacIntel,60,,,,,left,1.055,4,0.23,,,,,,,,,,left,0.254,0,0,0,0,1,,,,,,,,
,,,,,,,,9,2021-04-27_10h33.28.948,premceCat2_ses-02_part-02_label-phase2,2020.2.10,MacIntel,60,,,,,,,,,0,103,103,137,1,stimuli/objects/surfboard.jpg,left,old,138,,,,,,,,,,,,,,,
,,,,,,,,9,2021-04-27_10h33.28.948,premceCat2_ses-02_part-02_label-phase2,2020.2.10,MacIntel,60,,,,,left,0.722,4,0.266,,,,,,,,,,left,0.365,0,0,0,0,1,,,,,,,,
,,,,,,,,9,2021-04-27_10h33.28.948,premceCat2_ses-02_part-02_label-phase2,2020.2.10,MacIntel,60,,,,,,,,,0,104,104,132,1,stimuli/objects/payphone.jpg,left,old,133,,,,,,,,,,,,,,,
,,,,,,,,9,2021-04-27_10h33.28.948,premceCat2_ses-02_part-02_label-phase2,2020.2.10,MacIntel,60,,,,,left,0.925,2,0.757,,,,,,,,,,right,0.232,0,0,0,0,1,,,,,,,,
,,,,,,,,9,2021-04-27_10h33.28.948,premceCat2_ses-02_part-02_label-phase2,2020.2.10,MacIntel,60,,,,,,,,,0,105,105,74,1,stimuli/objects/snowboard.jpg,left,old,75,,,,,,,,,,,,,,,
,,,,,,,,9,2021-04-27_10h33.28.948,premceCat2_ses-02_part-02_label-phase2,2020.2.10,MacIntel,60,,,,,left,2.377,2,0.297,,,,,,,,,,left,0.515,0,0,0,0,1,,,,,,,,
,,,,,,,,9,2021-04-27_10h33.28.948,premceCat2_ses-02_part-02_label-phase2,2020.2.10,MacIntel,60,,,,,,,,,0,106,106,57,1,stimuli/objects/audiocablesplitter.jpg,right,new,58,,,,,,,,,,,,,,,
,,,,,,,,9,2021-04-27_10h33.28.948,premceCat2_ses-02_part-02_label-phase2,2020.2.10,MacIntel,60,,,,,right,3.072,2,0.187,0,107,107,121,1,stimuli/objects/ceilingspeaker.jpg,right,new,122,,,,,,,,,,,,,,,
,,,,,,,,9,2021-04-27_10h33.28.948,premceCat2_ses-02_part-02_label-phase2,2020.2.10,MacIntel,60,,,,,left,5.205,2,0.266,,,,,,,,,,left,0.998,0,0,0,0,1,,,,,,,,
,,,,,,,,9,2021-04-27_10h33.28.948,premceCat2_ses-02_part-02_label-phase2,2020.2.10,MacIntel,60,,,,,,,,,0,108,108,2,1,stimuli/objects/ipod.jpg,left,old,3,,,,,,,,,,,,,,,
,,,,,,,,9,2021-04-27_10h33.28.948,premceCat2_ses-02_part-02_label-phase2,2020.2.10,MacIntel,60,,,,,right,0.833,2,0.235,0,109,109,50,1,stimuli/objects/chisel02b.jpg,right,new,51,,,,,,,,,,,,,,,
,,,,,,,,9,2021-04-27_10h33.28.948,premceCat2_ses-02_part-02_label-phase2,2020.2.10,MacIntel,60,,,,,left,0.938,3,0.497,,,,,,,,,,right,0.184,0,0,0,0,1,,,,,,,,
,,,,,,,,9,2021-04-27_10h33.28.948,premceCat2_ses-02_part-02_label-phase2,2020.2.10,MacIntel,60,,,,,,,,,0,110,110,99,1,stimuli/objects/paintroller01.jpg,left,old,100,,,,,,,,,,,,,,,
,,,,,,,,9,2021-04-27_10h33.28.948,premceCat2_ses-02_part-02_label-phase2,2020.2.10,MacIntel,60,,,,,left,8.175,2,0.106,,,,,,,,,,right,0.429,0,0,0,0,1,,,,,,,,
,,,,,,,,9,2021-04-27_10h33.28.948,premceCat2_ses-02_part-02_label-phase2,2020.2.10,MacIntel,60,,,,,,,,,0,111,111,9,1,stimuli/objects/measuringtape01.jpg,right,new,10,,,,,,,,,,,,,,,
,,,,,,,,9,2021-04-27_10h33.28.948,premceCat2_ses-02_part-02_label-phase2,2020.2.10,MacIntel,60,,,,,left,0.654,4,0.253,,,,,,,,,,left,0.182,0,0,0,0,1,,,,,,,,
,,,,,,,,9,2021-04-27_10h33.28.948,premceCat2_ses-02_part-02_label-phase2,2020.2.10,MacIntel,60,,,,,,,,,0,112,112,70,1,stimuli/objects/bowl02a.jpg,left,old,71,,,,,,,,,,,,,,,
,,,,,,,,9,2021-04-27_10h33.28.948,premceCat2_ses-02_part-02_label-phase2,2020.2.10,MacIntel,60,,,,,right,1.354,2,0.18,0,113,113,122,1,stimuli/objects/desktopcomputer.jpg,left,old,123,,,,,,,,,,,,,,,
,,,,,,,,9,2021-04-27_10h33.28.948,premceCat2_ses-02_part-02_label-phase2,2020.2.10,MacIntel,60,,,,,right,1.128,2,0.2,0,114,114,0,1,stimuli/objects/electricoutlet.jpg,left,old,1,,,,,,,,,,,,,,,
,,,,,,,,9,2021-04-27_10h33.28.948,premceCat2_ses-02_part-02_label-phase2,2020.2.10,MacIntel,60,,,,,right,0.836,2,0.417,0,115,115,65,1,stimuli/objects/drill01b.jpg,left,old,66,,,,,,,,,,,,,,,
,,,,,,,,9,2021-04-27_10h33.28.948,premceCat2_ses-02_part-02_label-phase2,2020.2.10,MacIntel,60,,,,,right,0.525,4,0.618,0,116,116,112,1,stimuli/objects/gymnasticring.jpg,right,new,113,,,,,,,,,,,,,,,
,,,,,,,,9,2021-04-27_10h33.28.948,premceCat2_ses-02_part-02_label-phase2,2020.2.10,MacIntel,60,,,,,right,0.844,4,0.237,0,117,117,111,1,stimuli/objects/speaker04.jpg,right,new,112,,,,,,,,,,,,,,,
,,,,,,,,9,2021-04-27_10h33.28.948,premceCat2_ses-02_part-02_label-phase2,2020.2.10,MacIntel,60,,,,,right,0.627,4,0.564,0,118,118,84,1,stimuli/objects/sportbag.jpg,left,old,85,,,,,,,,,,,,,,,
,,,,,,,,9,2021-04-27_10h33.28.948,premceCat2_ses-02_part-02_label-phase2,2020.2.10,MacIntel,60,,,,,right,0.636,4,0.252,0,119,119,38,1,stimuli/objects/soundmixer.jpg,right,new,39,,,,,,,,,,,,,,,
,,,,,,,,9,2021-04-27_10h33.28.948,premceCat2_ses-02_part-02_label-phase2,2020.2.10,MacIntel,60,,,,,left,1.196,3,0.757,,,,,,,,,,left,0.279,0,0,0,0,1,,,,,,,,
,,,,,,,,9,2021-04-27_10h33.28.948,premceCat2_ses-02_part-02_label-phase2,2020.2.10,MacIntel,60,,,,,,,,,0,120,120,49,1,stimuli/objects/exercisebike.jpg,left,old,50,,,,,,,,,,,,,,,
,,,,,,,,9,2021-04-27_10h33.28.948,premceCat2_ses-02_part-02_label-phase2,2020.2.10,MacIntel,60,,,,,left,1.087,3,0.252,,,,,,,,,,left,0.166,0,0,0,0,1,,,,,,,,
,,,,,,,,9,2021-04-27_10h33.28.948,premceCat2_ses-02_part-02_label-phase2,2020.2.10,MacIntel,60,,,,,,,,,0,121,121,10,1,stimuli/objects/dvdplayer.jpg,left,old,11,,,,,,,,,,,,,,,
,,,,,,,,9,2021-04-27_10h33.28.948,premceCat2_ses-02_part-02_label-phase2,2020.2.10,MacIntel,60,,,,,left,0.857,3,0.239,,,,,,,,,,right,0.232,0,0,0,0,1,,,,,,,,
,,,,,,,,9,2021-04-27_10h33.28.948,premceCat2_ses-02_part-02_label-phase2,2020.2.10,MacIntel,60,,,,,,,,,0,122,122,11,1,stimuli/objects/videocamera01a.jpg,left,old,12,,,,,,,,,,,,,,,
,,,,,,,,9,2021-04-27_10h33.28.948,premceCat2_ses-02_part-02_label-phase2,2020.2.10,MacIntel,60,,,,,right,1.125,3,0.18,0,123,123,125,1,stimuli/objects/shoulderpad.jpg,right,new,126,,,,,,,,,,,,,,,
,,,,,,,,9,2021-04-27_10h33.28.948,premceCat2_ses-02_part-02_label-phase2,2020.2.10,MacIntel,60,,,,,right,0.601,3,0.838,0,124,124,51,1,stimuli/objects/webcam.jpg,right,new,52,,,,,,,,,,,,,,,
,,,,,,,,9,2021-04-27_10h33.28.948,premceCat2_ses-02_part-02_label-phase2,2020.2.10,MacIntel,60,,,,,left,1.206,2,0.348,,,,,,,,,,left,0.518,0,0,0,0,1,,,,,,,,
,,,,,,,,9,2021-04-27_10h33.28.948,premceCat2_ses-02_part-02_label-phase2,2020.2.10,MacIntel,60,,,,,,,,,0,125,125,53,1,stimuli/objects/binoculars01b.jpg,right,new,54,,,,,,,,,,,,,,,
,,,,,,,,9,2021-04-27_10h33.28.948,premceCat2_ses-02_part-02_label-phase2,2020.2.10,MacIntel,60,,,,,left,2.125,3,0.248,,,,,,,,,,left,0.219,0,0,0,0,1,,,,,,,,
,,,,,,,,9,2021-04-27_10h33.28.948,premceCat2_ses-02_part-02_label-phase2,2020.2.10,MacIntel,60,,,,,,,,,0,126,126,40,1,stimuli/objects/level03a.jpg,left,old,41,,,,,,,,,,,,,,,
,,,,,,,,9,2021-04-27_10h33.28.948,premceCat2_ses-02_part-02_label-phase2,2020.2.10,MacIntel,60,,,,,right,0.837,4,0.153,0,127,127,39,1,stimuli/objects/sippycup.jpg,right,new,40,,,,,,,,,,,,,,,
,,,,,,,,9,2021-04-27_10h33.28.948,premceCat2_ses-02_part-02_label-phase2,2020.2.10,MacIntel,60,,,,,right,1.589,1,0.499,0,128,128,28,1,stimuli/objects/poolnet.jpg,left,old,29,,,,,,,,,,,,,,,
,,,,,,,,9,2021-04-27_10h33.28.948,premceCat2_ses-02_part-02_label-phase2,2020.2.10,MacIntel,60,,,,,right,0.704,3,0.266,0,129,129,103,1,stimuli/objects/cork02.jpg,left,old,104,,,,,,,,,,,,,,,
,,,,,,,,9,2021-04-27_10h33.28.948,premceCat2_ses-02_part-02_label-phase2,2020.2.10,MacIntel,60,,,,,left,2.226,2,0.618,,,,,,,,,,left,0.18,0,0,0,0,1,,,,,,,,
,,,,,,,,9,2021-04-27_10h33.28.948,premceCat2_ses-02_part-02_label-phase2,2020.2.10,MacIntel,60,,,,,,,,,0,130,130,140,1,stimuli/objects/canoepaddle02.jpg,left,old,141,,,,,,,,,,,,,,,
,,,,,,,,9,2021-04-27_10h33.28.948,premceCat2_ses-02_part-02_label-phase2,2020.2.10,MacIntel,60,,,,,right,0.935,3,0.248,0,131,131,94,1,stimuli/objects/electricmixer.jpg,right,new,95,,,,,,,,,,,,,,,
,,,,,,,,9,2021-04-27_10h33.28.948,premceCat2_ses-02_part-02_label-phase2,2020.2.10,MacIntel,60,,,,,right,0.733,4,0.223,0,132,132,80,1,stimuli/objects/snowman.jpg,right,new,81,,,,,,,,,,,,,,,
,,,,,,,,9,2021-04-27_10h33.28.948,premceCat2_ses-02_part-02_label-phase2,2020.2.10,MacIntel,60,,,,,right,0.731,4,0.183,0,133,133,83,1,stimuli/objects/kitchenscale01a.jpg,right,new,84,,,,,,,,,,,,,,,
,,,,,,,,9,2021-04-27_10h33.28.948,premceCat2_ses-02_part-02_label-phase2,2020.2.10,MacIntel,60,,,,,right,0.624,4,0.831,0,134,134,16,1,stimuli/objects/knifesharpener.jpg,left,old,17,,,,,,,,,,,,,,,
,,,,,,,,9,2021-04-27_10h33.28.948,premceCat2_ses-02_part-02_label-phase2,2020.2.10,MacIntel,60,,,,,right,0.67,4,0.284,0,135,135,47,1,stimuli/objects/caulking.jpg,left,old,48,,,,,,,,,,,,,,,
,,,,,,,,9,2021-04-27_10h33.28.948,premceCat2_ses-02_part-02_label-phase2,2020.2.10,MacIntel,60,,,,,right,0.77,3,0.32,0,136,136,118,1,stimuli/objects/adjustablewrench01b.jpg,left,old,119,,,,,,,,,,,,,,,
,,,,,,,,9,2021-04-27_10h33.28.948,premceCat2_ses-02_part-02_label-phase2,2020.2.10,MacIntel,60,,,,,right,0.575,3,0.332,0,137,137,46,1,stimuli/objects/walkman.jpg,right,new,47,,,,,,,,,,,,,,,
,,,,,,,,9,2021-04-27_10h33.28.948,premceCat2_ses-02_part-02_label-phase2,2020.2.10,MacIntel,60,,,,,right,0.674,1,1.172,0,138,138,104,1,stimuli/objects/lectern01.jpg,left,old,105,,,,,,,,,,,,,,,
,,,,,,,,9,2021-04-27_10h33.28.948,premceCat2_ses-02_part-02_label-phase2,2020.2.10,MacIntel,60,,,,,right,1.742,3,0.253,0,139,139,30,1,stimuli/objects/printer02.jpg,right,new,31,,,,,,,,,,,,,,,
,,,,,,,,9,2021-04-27_10h33.28.948,premceCat2_ses-02_part-02_label-phase2,2020.2.10,MacIntel,60,,,,,right,1.059,4,0.221,0,140,140,141,1,stimuli/objects/generator.jpg,right,new,142,,,,,,,,,,,,,,,
,,,,,,,,9,2021-04-27_10h33.28.948,premceCat2_ses-02_part-02_label-phase2,2020.2.10,MacIntel,60,,,,,right,0.737,2,0.365,0,141,141,61,1,stimuli/objects/squeegee01b.jpg,left,old,62,,,,,,,,,,,,,,,
,,,,,,,,9,2021-04-27_10h33.28.948,premceCat2_ses-02_part-02_label-phase2,2020.2.10,MacIntel,60,,,,,right,0.637,2,0.502,0,142,142,15,1,stimuli/objects/watercooler.jpg,left,old,16,,,,,,,,,,,,,,,
,,,,,,,,9,2021-04-27_10h33.28.948,premceCat2_ses-02_part-02_label-phase2,2020.2.10,MacIntel,60,,,,,,,,,,,,,,,,,,,,,,,,,space,323.439,0,0,0,0,1,condition_files/ImagesforRecog2_1.csv
,,,,,,,,9,2021-04-27_10h33.28.948,premceCat2_ses-02_part-02_label-phase2,2020.2.10,MacIntel,60,,,,,left,2.916,4,0.321,,,,,,,,,,left,0.279,0,0,0,0,1,,,,,,,,
,,,,,,,,9,2021-04-27_10h33.28.948,premceCat2_ses-02_part-02_label-phase2,2020.2.10,MacIntel,60,,,,,,,,,0,0,0,106,1,stimuli/objects/nintendods.jpg,left,old,250,,,,,,,,,,,,,,,
,,,,,,,,9,2021-04-27_10h33.28.948,premceCat2_ses-02_part-02_label-phase2,2020.2.10,MacIntel,60,,,,,right,2.221,2,0.254,0,1,1,59,1,stimuli/objects/speedball.jpg,right,new,203,,,,,,,,,,,,,,,
,,,,,,,,9,2021-04-27_10h33.28.948,premceCat2_ses-02_part-02_label-phase2,2020.2.10,MacIntel,60,,,,,right,0.95,2,0.248,0,2,2,123,1,stimuli/objects/jackhammer.jpg,right,new,267,,,,,,,,,,,,,,,
,,,,,,,,9,2021-04-27_10h33.28.948,premceCat2_ses-02_part-02_label-phase2,2020.2.10,MacIntel,60,,,,,right,0.425,2,0.222,0,3,3,68,1,stimuli/objects/ladle02a.jpg,right,new,212,,,,,,,,,,,,,,,
,,,,,,,,9,2021-04-27_10h33.28.948,premceCat2_ses-02_part-02_label-phase2,2020.2.10,MacIntel,60,,,,,right,0.21,1,0.352,0,4,4,98,1,stimuli/objects/cameracase01a.jpg,right,new,242,,,,,,,,,,,,,,,
,,,,,,,,9,2021-04-27_10h33.28.948,premceCat2_ses-02_part-02_label-phase2,2020.2.10,MacIntel,60,,,,,right,0.22,3,0.254,0,5,5,32,1,stimuli/objects/pastaspoon.jpg,left,old,176,,,,,,,,,,,,,,,
,,,,,,,,9,2021-04-27_10h33.28.948,premceCat2_ses-02_part-02_label-phase2,2020.2.10,MacIntel,60,,,,,right,0.554,3,0.317,0,6,6,119,1,stimuli/objects/cleaver01.jpg,left,old,263,,,,,,,,,,,,,,,
,,,,,,,,9,2021-04-27_10h33.28.948,premceCat2_ses-02_part-02_label-phase2,2020.2.10,MacIntel,60,,,,,right,0.535,3,0.316,0,7,7,120,1,stimuli/objects/tent.jpg,right,new,264,,,,,,,,,,,,,,,
,,,,,,,,9,2021-04-27_10h33.28.948,premceCat2_ses-02_part-02_label-phase2,2020.2.10,MacIntel,60,,,,,right,0.455,4,0.283,0,8,8,2,1,stimuli/objects/wetfloorsign.jpg,right,new,146,,,,,,,,,,,,,,,
,,,,,,,,9,2021-04-27_10h33.28.948,premceCat2_ses-02_part-02_label-phase2,2020.2.10,MacIntel,60,,,,,right,1.079,4,0.254,0,9,9,69,1,stimuli/objects/straw.jpg,right,new,213,,,,,,,,,,,,,,,
,,,,,,,,9,2021-04-27_10h33.28.948,premceCat2_ses-02_part-02_label-phase2,2020.2.10,MacIntel,60,,,,,left,0.969,3,0.098,,,,,,,,,,left,0.38,0,0,0,0,1,,,,,,,,
,,,,,,,,9,2021-04-27_10h33.28.948,premceCat2_ses-02_part-02_label-phase2,2020.2.10,MacIntel,60,,,,,,,,,0,10,10,87,1,stimuli/objects/wiicontroller.jpg,right,new,231,,,,,,,,,,,,,,,
,,,,,,,,9,2021-04-27_10h33.28.948,premceCat2_ses-02_part-02_label-phase2,2020.2.10,MacIntel,60,,,,,left,0.638,3,0.281,,,,,,,,,,right,0.372,0,0,0,0,1,,,,,,,,
,,,,,,,,9,2021-04-27_10h33.28.948,premceCat2_ses-02_part-02_label-phase2,2020.2.10,MacIntel,60,,,,,,,,,0,11,11,141,1,stimuli/objects/spatula04.jpg,left,old,285,,,,,,,,,,,,,,,
,,,,,,,,9,2021-04-27_10h33.28.948,premceCat2_ses-02_part-02_label-phase2,2020.2.10,MacIntel,60,,,,,right,1.343,4,0.17,0,12,12,90,1,stimuli/objects/toyhockeystick01.jpg,left,old,234,,,,,,,,,,,,,,,
,,,,,,,,9,2021-04-27_10h33.28.948,premceCat2_ses-02_part-02_label-phase2,2020.2.10,MacIntel,60,,,,,right,1.587,4,0.165,0,13,13,139,1,stimuli/objects/toothpick02.jpg,left,old,283,,,,,,,,,,,,,,,
,,,,,,,,9,2021-04-27_10h33.28.948,premceCat2_ses-02_part-02_label-phase2,2020.2.10,MacIntel,60,,,,,left,0.669,3,0.318,,,,,,,,,,right,0.214,0,0,0,0,1,,,,,,,,
,,,,,,,,9,2021-04-27_10h33.28.948,premceCat2_ses-02_part-02_label-phase2,2020.2.10,MacIntel,60,,,,,,,,,0,14,14,4,1,stimuli/objects/cassettetape01a.jpg,right,new,148,,,,,,,,,,,,,,,
,,,,,,,,9,2021-04-27_10h33.28.948,premceCat2_ses-02_part-02_label-phase2,2020.2.10,MacIntel,60,,,,,right,0.892,4,0.197,0,15,15,39,1,stimuli/objects/wafflemaker.jpg,right,new,183,,,,,,,,,,,,,,,
,,,,,,,,9,2021-04-27_10h33.28.948,premceCat2_ses-02_part-02_label-phase2,2020.2.10,MacIntel,60,,,,,right,1.642,2,0.115,0,16,16,89,1,stimuli/objects/saladspinner.jpg,left,old,233,,,,,,,,,,,,,,,
,,,,,,,,9,2021-04-27_10h33.28.948,premceCat2_ses-02_part-02_label-phase2,2020.2.10,MacIntel,60,,,,,right,0.975,2,0.148,0,17,17,138,1,stimuli/objects/beermug01a.jpg,right,new,282,,,,,,,,,,,,,,,
,,,,,,,,9,2021-04-27_10h33.28.948,premceCat2_ses-02_part-02_label-phase2,2020.2.10,MacIntel,60,,,,,left,0.817,3,0.265,,,,,,,,,,left,0.199,0,0,0,0,1,,,,,,,,
,,,,,,,,9,2021-04-27_10h33.28.948,premceCat2_ses-02_part-02_label-phase2,2020.2.10,MacIntel,60,,,,,,,,,0,18,18,50,1,stimuli/objects/iceskate.jpg,left,old,194,,,,,,,,,,,,,,,
,,,,,,,,9,2021-04-27_10h33.28.948,premceCat2_ses-02_part-02_label-phase2,2020.2.10,MacIntel,60,,,,,left,0.79,1,0.415,,,,,,,,,,right,0.651,0,0,0,0,1,,,,,,,,
,,,,,,,,9,2021-04-27_10h33.28.948,premceCat2_ses-02_part-02_label-phase2,2020.2.10,MacIntel,60,,,,,,,,,0,19,19,110,1,stimuli/objects/hockeygoaliepad.jpg,left,old,254,,,,,,,,,,,,,,,
,,,,,,,,9,2021-04-27_10h33.28.948,premceCat2_ses-02_part-02_label-phase2,2020.2.10,MacIntel,60,,,,,right,1.005,2,0.035,0,20,20,31,1,stimuli/objects/hockeygoaliemask.jpg,left,old,175,,,,,,,,,,,,,,,
,,,,,,,,9,2021-04-27_10h33.28.948,premceCat2_ses-02_part-02_label-phase2,2020.2.10,MacIntel,60,,,,,left,0.806,3,0.121,,,,,,,,,,left,0.135,0,0,0,0,1,,,,,,,,
,,,,,,,,9,2021-04-27_10h33.28.948,premceCat2_ses-02_part-02_label-phase2,2020.2.10,MacIntel,60,,,,,,,,,0,21,21,104,1,stimuli/objects/lamp04a.jpg,left,old,248,,,,,,,,,,,,,,,
,,,,,,,,9,2021-04-27_10h33.28.948,premceCat2_ses-02_part-02_label-phase2,2020.2.10,MacIntel,60,,,,,right,0.887,3,0.52,0,22,22,26,1,stimuli/objects/flashlight02b.jpg,right,new,170,,,,,,,,,,,,,,,
,,,,,,,,9,2021-04-27_10h33.28.948,premceCat2_ses-02_part-02_label-phase2,2020.2.10,MacIntel,60,,,,,left,1.057,2,0.248,,,,,,,,,,right,0.297,0,0,0,0,1,,,,,,,,
,,,,,,,,9,2021-04-27_10h33.28.948,premceCat2_ses-02_part-02_label-phase2,2020.2.10,MacIntel,60,,,,,,,,,0,23,23,36,1,stimuli/objects/loppingshears.jpg,right,new,180,,,,,,,,,,,,,,,
,,,,,,,,9,2021-04-27_10h33.28.948,premceCat2_ses-02_part-02_label-phase2,2020.2.10,MacIntel,60,,,,,right,0.91,4,0.149,0,24,24,121,1,stimuli/objects/parachute.jpg,right,new,265,,,,,,,,,,,,,,,
,,,,,,,,9,2021-04-27_10h33.28.948,premceCat2_ses-02_part-02_label-phase2,2020.2.10,MacIntel,60,,,,,right,0.836,4,0.266,0,25,25,5,1,stimuli/objects/pickaxe02.jpg,right,new,149,,,,,,,,,,,,,,,
,,,,,,,,9,2021-04-27_10h33.28.948,premceCat2_ses-02_part-02_label-phase2,2020.2.10,MacIntel,60,,,,,right,1.019,4,0.865,0,26,26,82,1,stimuli/objects/shopvac.jpg,right,new,226,,,,,,,,,,,,,,,
,,,,,,,,9,2021-04-27_10h33.28.948,premceCat2_ses-02_part-02_label-phase2,2020.2.10,MacIntel,60,,,,,left,0.752,3,0.203,,,,,,,,,,left,0.216,0,0,0,0,1,,,,,,,,
,,,,,,,,9,2021-04-27_10h33.28.948,premceCat2_ses-02_part-02_label-phase2,2020.2.10,MacIntel,60,,,,,,,,,0,27,27,75,1,stimuli/objects/hammer01.jpg,left,old,219,,,,,,,,,,,,,,,
,,,,,,,,9,2021-04-27_10h33.28.948,premceCat2_ses-02_part-02_label-phase2,2020.2.10,MacIntel,60,,,,,right,1.074,3,0.27,0,28,28,3,1,stimuli/objects/boxingglove01.jpg,right,new,147,,,,,,,,,,,,,,,
,,,,,,,,9,2021-04-27_10h33.28.948,premceCat2_ses-02_part-02_label-phase2,2020.2.10,MacIntel,60,,,,,right,0.735,3,0.232,0,29,29,116,1,stimuli/objects/lockingplier.jpg,right,new,260,,,,,,,,,,,,,,,
,,,,,,,,9,2021-04-27_10h33.28.948,premceCat2_ses-02_part-02_label-phase2,2020.2.10,MacIntel,60,,,,,right,0.721,4,0.299,0,30,30,111,1,stimuli/objects/diaperbag.jpg,right,new,255,,,,,,,,,,,,,,,
,,,,,,,,9,2021-04-27_10h33.28.948,premceCat2_ses-02_part-02_label-phase2,2020.2.10,MacIntel,60,,,,,right,1.019,4,0.248,0,31,31,15,1,stimuli/objects/computermouse06.jpg,right,new,159,,,,,,,,,,,,,,,
,,,,,,,,9,2021-04-27_10h33.28.948,premceCat2_ses-02_part-02_label-phase2,2020.2.10,MacIntel,60,,,,,right,0.824,4,0.235,0,32,32,33,1,stimuli/objects/gps.jpg,left,old,177,,,,,,,,,,,,,,,
,,,,,,,,9,2021-04-27_10h33.28.948,premceCat2_ses-02_part-02_label-phase2,2020.2.10,MacIntel,60,,,,,left,0.954,3,0.154,,,,,,,,,,right,0.263,0,0,0,0,1,,,,,,,,
,,,,,,,,9,2021-04-27_10h33.28.948,premceCat2_ses-02_part-02_label-phase2,2020.2.10,MacIntel,60,,,,,,,,,0,33,33,17,1,stimuli/objects/bikelock.jpg,left,old,161,,,,,,,,,,,,,,,
,,,,,,,,9,2021-04-27_10h33.28.948,premceCat2_ses-02_part-02_label-phase2,2020.2.10,MacIntel,60,,,,,right,0.575,4,0.14,0,34,34,101,1,stimuli/objects/lifejacket.jpg,right,new,245,,,,,,,,,,,,,,,
,,,,,,,,9,2021-04-27_10h33.28.948,premceCat2_ses-02_part-02_label-phase2,2020.2.10,MacIntel,60,,,,,left,1.008,3,0.3,,,,,,,,,,right,0.279,0,0,0,0,1,,,,,,,,
,,,,,,,,9,2021-04-27_10h33.28.948,premceCat2_ses-02_part-02_label-phase2,2020.2.10,MacIntel,60,,,,,,,,,0,35,35,28,1,stimuli/objects/spoon01.jpg,left,old,172,,,,,,,,,,,,,,,
,,,,,,,,9,2021-04-27_10h33.28.948,premceCat2_ses-02_part-02_label-phase2,2020.2.10,MacIntel,60,,,,,right,1.04,2,0.116,0,36,36,25,1,stimuli/objects/jar02.jpg,left,old,169,,,,,,,,,,,,,,,
,,,,,,,,9,2021-04-27_10h33.28.948,premceCat2_ses-02_part-02_label-phase2,2020.2.10,MacIntel,60,,,,,left,0.691,3,0.221,,,,,,,,,,left,0.217,0,0,0,0,1,,,,,,,,
,,,,,,,,9,2021-04-27_10h33.28.948,premceCat2_ses-02_part-02_label-phase2,2020.2.10,MacIntel,60,,,,,,,,,0,37,37,72,1,stimuli/objects/axe01.jpg,left,old,216,,,,,,,,,,,,,,,
,,,,,,,,9,2021-04-27_10h33.28.948,premceCat2_ses-02_part-02_label-phase2,2020.2.10,MacIntel,60,,,,,right,1.102,1,0.253,0,38,38,100,1,stimuli/objects/wheelbarrow01.jpg,left,old,244,,,,,,,,,,,,,,,
,,,,,,,,9,2021-04-27_10h33.28.948,premceCat2_ses-02_part-02_label-phase2,2020.2.10,MacIntel,60,,,,,right,0.917,2,0.103,0,39,39,47,1,stimuli/objects/plate01b.jpg,right,new,191,,,,,,,,,,,,,,,
,,,,,,,,9,2021-04-27_10h33.28.948,premceCat2_ses-02_part-02_label-phase2,2020.2.10,MacIntel,60,,,,,right,0.653,4,0.147,0,40,40,99,1,stimuli/objects/floodlight.jpg,right,new,243,,,,,,,,,,,,,,,
,,,,,,,,9,2021-04-27_10h33.28.948,premceCat2_ses-02_part-02_label-phase2,2020.2.10,MacIntel,60,,,,,left,1.468,3,0.387,,,,,,,,,,left,0.261,0,0,0,0,1,,,,,,,,
,,,,,,,,9,2021-04-27_10h33.28.948,premceCat2_ses-02_part-02_label-phase2,2020.2.10,MacIntel,60,,,,,,,,,0,41,41,132,1,stimuli/objects/wirestripper.jpg,right,new,276,,,,,,,,,,,,,,,
,,,,,,,,9,2021-04-27_10h33.28.948,premceCat2_ses-02_part-02_label-phase2,2020.2.10,MacIntel,60,,,,,left,0.82,2,0.189,,,,,,,,,,right,0.202,0,0,0,0,1,,,,,,,,
,,,,,,,,9,2021-04-27_10h33.28.948,premceCat2_ses-02_part-02_label-phase2,2020.2.10,MacIntel,60,,,,,,,,,0,42,42,97,1,stimuli/objects/coffeepot03a.jpg,left,old,241,,,,,,,,,,,,,,,
,,,,,,,,9,2021-04-27_10h33.28.948,premceCat2_ses-02_part-02_label-phase2,2020.2.10,MacIntel,60,,,,,right,0.767,4,0.107,0,43,43,48,1,stimuli/objects/eggslicer.jpg,right,new,192,,,,,,,,,,,,,,,
,,,,,,,,9,2021-04-27_10h33.28.948,premceCat2_ses-02_part-02_label-phase2,2020.2.10,MacIntel,60,,,,,left,0.97,3,0.201,,,,,,,,,,left,0.148,0,0,0,0,1,,,,,,,,
,,,,,,,,9,2021-04-27_10h33.28.948,premceCat2_ses-02_part-02_label-phase2,2020.2.10,MacIntel,60,,,,,,,,,0,44,44,85,1,stimuli/objects/usbcable01a.jpg,left,old,229,,,,,,,,,,,,,,,
,,,,,,,,9,2021-04-27_10h33.28.948,premceCat2_ses-02_part-02_label-phase2,2020.2.10,MacIntel,60,,,,,right,0.688,3,0.056,0,45,45,115,1,stimuli/objects/towel01.jpg,left,old,259,,,,,,,,,,,,,,,
,,,,,,,,9,2021-04-27_10h33.28.948,premceCat2_ses-02_part-02_label-phase2,2020.2.10,MacIntel,60,,,,,right,1.47,2,0.146,0,46,46,84,1,stimuli/objects/patioumbrella.jpg,left,old,228,,,,,,,,,,,,,,,
,,,,,,,,9,2021-04-27_10h33.28.948,premceCat2_ses-02_part-02_label-phase2,2020.2.10,MacIntel,60,,,,,right,2.301,3,0.319,0,47,47,129,1,stimuli/objects/snowblower.jpg,left,old,273,,,,,,,,,,,,,,,
,,,,,,,,9,2021-04-27_10h33.28.948,premceCat2_ses-02_part-02_label-phase2,2020.2.10,MacIntel,60,,,,,right,0.872,3,0.214,0,48,48,63,1,stimuli/objects/woodenspoon.jpg,left,old,207,,,,,,,,,,,,,,,
,,,,,,,,9,2021-04-27_10h33.28.948,premceCat2_ses-02_part-02_label-phase2,2020.2.10,MacIntel,60,,,,,left,1.609,3,0.1,,,,,,,,,,left,0.079,0,0,0,0,1,,,,,,,,
,,,,,,,,9,2021-04-27_10h33.28.948,premceCat2_ses-02_part-02_label-phase2,2020.2.10,MacIntel,60,,,,,,,,,0,49,49,45,1,stimuli/objects/ellipticalmachine.jpg,left,old,189,,,,,,,,,,,,,,,
,,,,,,,,9,2021-04-27_10h33.28.948,premceCat2_ses-02_part-02_label-phase2,2020.2.10,MacIntel,60,,,,,left,1.237,2,0.201,,,,,,,,,,right,0.086,0,0,0,0,1,,,,,,,,
,,,,,,,,9,2021-04-27_10h33.28.948,premceCat2_ses-02_part-02_label-phase2,2020.2.10,MacIntel,60,,,,,,,,,0,50,50,108,1,stimuli/objects/crocodileclips.jpg,left,old,252,,,,,,,,,,,,,,,
,,,,,,,,9,2021-04-27_10h33.28.948,premceCat2_ses-02_part-02_label-phase2,2020.2.10,MacIntel,60,,,,,right,0.855,4,0.114,0,51,51,74,1,stimuli/objects/shinpad.jpg,left,old,218,,,,,,,,,,,,,,,
,,,,,,,,9,2021-04-27_10h33.28.948,premceCat2_ses-02_part-02_label-phase2,2020.2.10,MacIntel,60,,,,,right,0.728,4,0.168,0,52,52,95,1,stimuli/objects/tennisball01b.jpg,right,new,239,,,,,,,,,,,,,,,
,,,,,,,,9,2021-04-27_10h33.28.948,premceCat2_ses-02_part-02_label-phase2,2020.2.10,MacIntel,60,,,,,left,1.469,2,0.257,,,,,,,,,,left,0.706,0,0,0,0,1,,,,,,,,
,,,,,,,,9,2021-04-27_10h33.28.948,premceCat2_ses-02_part-02_label-phase2,2020.2.10,MacIntel,60,,,,,,,,,0,53,53,67,1,stimuli/objects/filmroll.jpg,left,old,211,,,,,,,,,,,,,,,
,,,,,,,,9,2021-04-27_10h33.28.948,premceCat2_ses-02_part-02_label-phase2,2020.2.10,MacIntel,60,,,,,right,1.736,3,0.731,0,54,54,22,1,stimuli/objects/hoe.jpg,left,old,166,,,,,,,,,,,,,,,
,,,,,,,,9,2021-04-27_10h33.28.948,premceCat2_ses-02_part-02_label-phase2,2020.2.10,MacIntel,60,,,,,right,0.607,2,0.22,0,55,55,54,1,stimuli/objects/toyhardhat.jpg,left,old,198,,,,,,,,,,,,,,,
,,,,,,,,9,2021-04-27_10h33.28.948,premceCat2_ses-02_part-02_label-phase2,2020.2.10,MacIntel,60,,,,,left,0.973,2,0.035,,,,,,,,,,left,0.382,0,0,0,0,1,,,,,,,,
,,,,,,,,9,2021-04-27_10h33.28.948,premceCat2_ses-02_part-02_label-phase2,2020.2.10,MacIntel,60,,,,,,,,,0,56,56,18,1,stimuli/objects/cellphone.jpg,left,old,162,,,,,,,,,,,,,,,
,,,,,,,,9,2021-04-27_10h33.28.948,premceCat2_ses-02_part-02_label-phase2,2020.2.10,MacIntel,60,,,,,right,0.809,4,0.254,0,57,57,135,1,stimuli/objects/mortarandpestle.jpg,right,new,279,,,,,,,,,,,,,,,
,,,,,,,,9,2021-04-27_10h33.28.948,premceCat2_ses-02_part-02_label-phase2,2020.2.10,MacIntel,60,,,,,left,1.062,4,0.099,,,,,,,,,,left,0.727,0,0,0,0,1,,,,,,,,
,,,,,,,,9,2021-04-27_10h33.28.948,premceCat2_ses-02_part-02_label-phase2,2020.2.10,MacIntel,60,,,,,,,,,0,58,58,52,1,stimuli/objects/antenna.jpg,left,old,196,,,,,,,,,,,,,,,
,,,,,,,,9,2021-04-27_10h33.28.948,premceCat2_ses-02_part-02_label-phase2,2020.2.10,MacIntel,60,,,,,left,0.82,3,0.219,,,,,,,,,,right,0.265,0,0,0,0,1,,,,,,,,
,,,,,,,,9,2021-04-27_10h33.28.948,premceCat2_ses-02_part-02_label-phase2,2020.2.10,MacIntel,60,,,,,,,,,0,59,59,43,1,stimuli/objects/bowrake.jpg,right,new,187,,,,,,,,,,,,,,,
,,,,,,,,9,2021-04-27_10h33.28.948,premceCat2_ses-02_part-02_label-phase2,2020.2.10,MacIntel,60,,,,,right,0.992,3,0.272,0,60,60,83,1,stimuli/objects/icecubetray01a.jpg,right,new,227,,,,,,,,,,,,,,,
,,,,,,,,9,2021-04-27_10h33.28.948,premceCat2_ses-02_part-02_label-phase2,2020.2.10,MacIntel,60,,,,,right,0.925,3,0.305,0,61,61,24,1,stimuli/objects/monitor.jpg,right,new,168,,,,,,,,,,,,,,,
,,,,,,,,9,2021-04-27_10h33.28.948,premceCat2_ses-02_part-02_label-phase2,2020.2.10,MacIntel,60,,,,,right,3.608,3,0.232,0,62,62,46,1,stimuli/objects/waterbottleholder.jpg,right,new,190,,,,,,,,,,,,,,,
,,,,,,,,9,2021-04-27_10h33.28.948,premceCat2_ses-02_part-02_label-phase2,2020.2.10,MacIntel,60,,,,,right,0.753,3,0.454,0,63,63,105,1,stimuli/objects/gasburner.jpg,left,old,249,,,,,,,,,,,,,,,
,,,,,,,,9,2021-04-27_10h33.28.948,premceCat2_ses-02_part-02_label-phase2,2020.2.10,MacIntel,60,,,,,left,0.924,2,0.151,,,,,,,,,,right,0.103,0,0,0,0,1,,,,,,,,
,,,,,,,,9,2021-04-27_10h33.28.948,premceCat2_ses-02_part-02_label-phase2,2020.2.10,MacIntel,60,,,,,,,,,0,64,64,73,1,stimuli/objects/propanetank01.jpg,left,old,217,,,,,,,,,,,,,,,
,,,,,,,,9,2021-04-27_10h33.28.948,premceCat2_ses-02_part-02_label-phase2,2020.2.10,MacIntel,60,,,,,right,0.67,4,0.103,0,65,65,79,1,stimuli/objects/bikewheel.jpg,left,old,223,,,,,,,,,,,,,,,
,,,,,,,,9,2021-04-27_10h33.28.948,premceCat2_ses-02_part-02_label-phase2,2020.2.10,MacIntel,60,,,,,right,0.543,4,0.187,0,66,66,57,1,stimuli/objects/soccerball.jpg,left,old,201,,,,,,,,,,,,,,,
,,,,,,,,9,2021-04-27_10h33.28.948,premceCat2_ses-02_part-02_label-phase2,2020.2.10,MacIntel,60,,,,,right,0.925,4,0.937,0,67,67,94,1,stimuli/objects/file.jpg,right,new,238,,,,,,,,,,,,,,,
,,,,,,,,9,2021-04-27_10h33.28.948,premceCat2_ses-02_part-02_label-phase2,2020.2.10,MacIntel,60,,,,,right,0.653,3,0.223,0,68,68,10,1,stimuli/objects/skihelmet01.jpg,left,old,154,,,,,,,,,,,,,,,
,,,,,,,,9,2021-04-27_10h33.28.948,premceCat2_ses-02_part-02_label-phase2,2020.2.10,MacIntel,60,,,,,right,1.145,3,0.363,0,69,69,107,1,stimuli/objects/dolly01.jpg,right,new,251,,,,,,,,,,,,,,,
,,,,,,,,9,2021-04-27_10h33.28.948,premceCat2_ses-02_part-02_label-phase2,2020.2.10,MacIntel,60,,,,,right,1.056,3,0.237,0,70,70,64,1,stimuli/objects/volleyball.jpg,left,old,208,,,,,,,,,,,,,,,
,,,,,,,,9,2021-04-27_10h33.28.948,premceCat2_ses-02_part-02_label-phase2,2020.2.10,MacIntel,60,,,,,left,0.834,3,0.239,,,,,,,,,,left,0.232,0,0,0,0,1,,,,,,,,
,,,,,,,,9,2021-04-27_10h33.28.948,premceCat2_ses-02_part-02_label-phase2,2020.2.10,MacIntel,60,,,,,,,,,0,71,71,109,1,stimuli/objects/waterbottle03.jpg,left,old,253,,,,,,,,,,,,,,,
,,,,,,,,9,2021-04-27_10h33.28.948,premceCat2_ses-02_part-02_label-phase2,2020.2.10,MacIntel,60,,,,,left,0.75,3,0.136,,,,,,,,,,right,0.136,0,0,0,0,1,,,,,,,,
,,,,,,,,9,2021-04-27_10h33.28.948,premceCat2_ses-02_part-02_label-phase2,2020.2.10,MacIntel,60,,,,,,,,,0,72,72,130,1,stimuli/objects/fan.jpg,left,old,274,,,,,,,,,,,,,,,
,,,,,,,,9,2021-04-27_10h33.28.948,premceCat2_ses-02_part-02_label-phase2,2020.2.10,MacIntel,60,,,,,left,0.893,3,0.719,,,,,,,,,,left,0.353,0,0,0,0,1,,,,,,,,
,,,,,,,,9,2021-04-27_10h33.28.948,premceCat2_ses-02_part-02_label-phase2,2020.2.10,MacIntel,60,,,,,,,,,0,73,73,96,1,stimuli/objects/mallet01b.jpg,left,old,240,,,,,,,,,,,,,,,
,,,,,,,,9,2021-04-27_10h33.28.948,premceCat2_ses-02_part-02_label-phase2,2020.2.10,MacIntel,60,,,,,right,0.838,3,0.15,0,74,74,81,1,stimuli/objects/grill.jpg,right,new,225,,,,,,,,,,,,,,,
,,,,,,,,9,2021-04-27_10h33.28.948,premceCat2_ses-02_part-02_label-phase2,2020.2.10,MacIntel,60,,,,,right,0.92,3,0.139,0,75,75,131,1,stimuli/objects/handblender.jpg,right,new,275,,,,,,,,,,,,,,,
,,,,,,,,9,2021-04-27_10h33.28.948,premceCat2_ses-02_part-02_label-phase2,2020.2.10,MacIntel,60,,,,,right,0.67,4,0.134,0,76,76,29,1,stimuli/objects/coffeemachine.jpg,left,old,173,,,,,,,,,,,,,,,
,,,,,,,,9,2021-04-27_10h33.28.948,premceCat2_ses-02_part-02_label-phase2,2020.2.10,MacIntel,60,,,,,right,0.875,3,0.182,0,77,77,61,1,stimuli/objects/wateringcan.jpg,left,old,205,,,,,,,,,,,,,,,
,,,,,,,,9,2021-04-27_10h33.28.948,premceCat2_ses-02_part-02_label-phase2,2020.2.10,MacIntel,60,,,,,left,0.776,3,0.219,,,,,,,,,,right,0.101,0,0,0,0,1,,,,,,,,
,,,,,,,,9,2021-04-27_10h33.28.948,premceCat2_ses-02_part-02_label-phase2,2020.2.10,MacIntel,60,,,,,,,,,0,78,78,112,1,stimuli/objects/telephone01b.jpg,left,old,256,,,,,,,,,,,,,,,
,,,,,,,,9,2021-04-27_10h33.28.948,premceCat2_ses-02_part-02_label-phase2,2020.2.10,MacIntel,60,,,,,left,0.829,3,0.205,,,,,,,,,,left,0.206,0,0,0,0,1,,,,,,,,
,,,,,,,,9,2021-04-27_10h33.28.948,premceCat2_ses-02_part-02_label-phase2,2020.2.10,MacIntel,60,,,,,,,,,0,79,79,136,1,stimuli/objects/bikepump01.jpg,left,old,280,,,,,,,,,,,,,,,
,,,,,,,,9,2021-04-27_10h33.28.948,premceCat2_ses-02_part-02_label-phase2,2020.2.10,MacIntel,60,,,,,right,0.66,4,0.198,0,80,80,137,1,stimuli/objects/nutcracker01.jpg,right,new,281,,,,,,,,,,,,,,,
,,,,,,,,9,2021-04-27_10h33.28.948,premceCat2_ses-02_part-02_label-phase2,2020.2.10,MacIntel,60,,,,,right,0.71,4,0.217,0,81,81,35,1,stimuli/objects/stroller.jpg,right,new,179,,,,,,,,,,,,,,,
,,,,,,,,9,2021-04-27_10h33.28.948,premceCat2_ses-02_part-02_label-phase2,2020.2.10,MacIntel,60,,,,,left,0.907,3,0.165,,,,,,,,,,left,0.222,0,0,0,0,1,,,,,,,,
,,,,,,,,9,2021-04-27_10h33.28.948,premceCat2_ses-02_part-02_label-phase2,2020.2.10,MacIntel,60,,,,,,,,,0,82,82,21,1,stimuli/objects/boltcutter.jpg,left,old,165,,,,,,,,,,,,,,,
,,,,,,,,9,2021-04-27_10h33.28.948,premceCat2_ses-02_part-02_label-phase2,2020.2.10,MacIntel,60,,,,,right,0.954,3,0.281,0,83,83,124,1,stimuli/objects/basketball01.jpg,right,new,268,,,,,,,,,,,,,,,
,,,,,,,,9,2021-04-27_10h33.28.948,premceCat2_ses-02_part-02_label-phase2,2020.2.10,MacIntel,60,,,,,left,0.836,1,0.19,,,,,,,,,,left,0.287,0,0,0,0,1,,,,,,,,
,,,,,,,,9,2021-04-27_10h33.28.948,premceCat2_ses-02_part-02_label-phase2,2020.2.10,MacIntel,60,,,,,,,,,0,84,84,91,1,stimuli/objects/cuttingpliers02.jpg,right,new,235,,,,,,,,,,,,,,,
,,,,,,,,9,2021-04-27_10h33.28.948,premceCat2_ses-02_part-02_label-phase2,2020.2.10,MacIntel,60,,,,,right,1.002,3,0.133,0,85,85,103,1,stimuli/objects/swissarmyknife01a.jpg,right,new,247,,,,,,,,,,,,,,,
,,,,,,,,9,2021-04-27_10h33.28.948,premceCat2_ses-02_part-02_label-phase2,2020.2.10,MacIntel,60,,,,,left,0.72,3,1.003,,,,,,,,,,right,0.199,0,0,0,0,1,,,,,,,,
,,,,,,,,9,2021-04-27_10h33.28.948,premceCat2_ses-02_part-02_label-phase2,2020.2.10,MacIntel,60,,,,,,,,,0,86,86,62,1,stimuli/objects/hourglass.jpg,left,old,206,,,,,,,,,,,,,,,
,,,,,,,,9,2021-04-27_10h33.28.948,premceCat2_ses-02_part-02_label-phase2,2020.2.10,MacIntel,60,,,,,left,0.722,3,0.167,,,,,,,,,,left,0.164,0,0,0,0,1,,,,,,,,
,,,,,,,,9,2021-04-27_10h33.28.948,premceCat2_ses-02_part-02_label-phase2,2020.2.10,MacIntel,60,,,,,,,,,0,87,87,8,1,stimuli/objects/wheel01.jpg,left,old,152,,,,,,,,,,,,,,,
,,,,,,,,9,2021-04-27_10h33.28.948,premceCat2_ses-02_part-02_label-phase2,2020.2.10,MacIntel,60,,,,,left,0.904,3,0.153,,,,,,,,,,right,0.139,0,0,0,0,1,,,,,,,,
,,,,,,,,9,2021-04-27_10h33.28.948,premceCat2_ses-02_part-02_label-phase2,2020.2.10,MacIntel,60,,,,,,,,,0,88,88,65,1,stimuli/objects/jigsaw.jpg,left,old,209,,,,,,,,,,,,,,,
,,,,,,,,9,2021-04-27_10h33.28.948,premceCat2_ses-02_part-02_label-phase2,2020.2.10,MacIntel,60,,,,,left,0.602,1,0.651,,,,,,,,,,left,0.132,0,0,0,0,1,,,,,,,,
,,,,,,,,9,2021-04-27_10h33.28.948,premceCat2_ses-02_part-02_label-phase2,2020.2.10,MacIntel,60,,,,,,,,,0,89,89,19,1,stimuli/objects/mug01.jpg,right,new,163,,,,,,,,,,,,,,,
,,,,,,,,9,2021-04-27_10h33.28.948,premceCat2_ses-02_part-02_label-phase2,2020.2.10,MacIntel,60,,,,,right,0.87,3,0.348,0,90,90,66,1,stimuli/objects/heatpump.jpg,right,new,210,,,,,,,,,,,,,,,
,,,,,,,,9,2021-04-27_10h33.28.948,premceCat2_ses-02_part-02_label-phase2,2020.2.10,MacIntel,60,,,,,right,1.342,3,0.183,0,91,91,7,1,stimuli/objects/dishrack.jpg,left,old,151,,,,,,,,,,,,,,,
,,,,,,,,9,2021-04-27_10h33.28.948,premceCat2_ses-02_part-02_label-phase2,2020.2.10,MacIntel,60,,,,,right,0.625,4,0.3,0,92,92,6,1,stimuli/objects/solderingwire.jpg,right,new,150,,,,,,,,,,,,,,,
,,,,,,,,9,2021-04-27_10h33.28.948,premceCat2_ses-02_part-02_label-phase2,2020.2.10,MacIntel,60,,,,,left,0.906,3,0.154,,,,,,,,,,right,0.02,0,0,0,0,1,,,,,,,,
,,,,,,,,9,2021-04-27_10h33.28.948,premceCat2_ses-02_part-02_label-phase2,2020.2.10,MacIntel,60,,,,,,,,,0,93,93,126,1,stimuli/objects/badmintonracket.jpg,left,old,270,,,,,,,,,,,,,,,
,,,,,,,,9,2021-04-27_10h33.28.948,premceCat2_ses-02_part-02_label-phase2,2020.2.10,MacIntel,60,,,,,left,0.605,3,0.248,,,,,,,,,,left,0.116,0,0,0,0,1,,,,,,,,
,,,,,,,,9,2021-04-27_10h33.28.948,premceCat2_ses-02_part-02_label-phase2,2020.2.10,MacIntel,60,,,,,,,,,0,94,94,140,1,stimuli/objects/wineglass01.jpg,right,new,284,,,,,,,,,,,,,,,
,,,,,,,,9,2021-04-27_10h33.28.948,premceCat2_ses-02_part-02_label-phase2,2020.2.10,MacIntel,60,,,,,left,0.954,3,0.367,,,,,,,,,,left,0.472,0,0,0,0,1,,,,,,,,
,,,,,,,,9,2021-04-27_10h33.28.948,premceCat2_ses-02_part-02_label-phase2,2020.2.10,MacIntel,60,,,,,,,,,0,95,95,77,1,stimuli/objects/corkscrew03a.jpg,left,old,221,,,,,,,,,,,,,,,
,,,,,,,,9,2021-04-27_10h33.28.948,premceCat2_ses-02_part-02_label-phase2,2020.2.10,MacIntel,60,,,,,right,4.82,2,0.965,0,96,96,23,1,stimuli/objects/hockeypuck.jpg,left,old,167,,,,,,,,,,,,,,,
,,,,,,,,9,2021-04-27_10h33.28.948,premceCat2_ses-02_part-02_label-phase2,2020.2.10,MacIntel,60,,,,,right,0.723,2,0.299,0,97,97,93,1,stimuli/objects/rope03.jpg,left,old,237,,,,,,,,,,,,,,,
,,,,,,,,9,2021-04-27_10h33.28.948,premceCat2_ses-02_part-02_label-phase2,2020.2.10,MacIntel,60,,,,,right,0.454,2,0.299,0,98,98,88,1,stimuli/objects/kiddiepool.jpg,left,old,232,,,,,,,,,,,,,,,
,,,,,,,,9,2021-04-27_10h33.28.948,premceCat2_ses-02_part-02_label-phase2,2020.2.10,MacIntel,60,,,,,left,0.909,3,0.216,,,,,,,,,,left,0.879,0,0,0,0,1,,,,,,,,
,,,,,,,,9,2021-04-27_10h33.28.948,premceCat2_ses-02_part-02_label-phase2,2020.2.10,MacIntel,60,,,,,,,,,0,99,99,14,1,stimuli/objects/boatmotor.jpg,left,old,158,,,,,,,,,,,,,,,
,,,,,,,,9,2021-04-27_10h33.28.948,premceCat2_ses-02_part-02_label-phase2,2020.2.10,MacIntel,60,,,,,left,0.741,3,0.183,,,,,,,,,,right,0.198,0,0,0,0,1,,,,,,,,
,,,,,,,,9,2021-04-27_10h33.28.948,premceCat2_ses-02_part-02_label-phase2,2020.2.10,MacIntel,60,,,,,,,,,0,100,100,30,1,stimuli/objects/halogenlightbulb.jpg,right,new,174,,,,,,,,,,,,,,,
,,,,,,,,9,2021-04-27_10h33.28.948,premceCat2_ses-02_part-02_label-phase2,2020.2.10,MacIntel,60,,,,,left,0.803,4,0.301,,,,,,,,,,left,0.196,0,0,0,0,1,,,,,,,,
,,,,,,,,9,2021-04-27_10h33.28.948,premceCat2_ses-02_part-02_label-phase2,2020.2.10,MacIntel,60,,,,,,,,,0,101,101,117,1,stimuli/objects/podium.jpg,left,old,261,,,,,,,,,,,,,,,
,,,,,,,,9,2021-04-27_10h33.28.948,premceCat2_ses-02_part-02_label-phase2,2020.2.10,MacIntel,60,,,,,left,0.692,3,0.229,,,,,,,,,,right,0.18,0,0,0,0,1,,,,,,,,
,,,,,,,,9,2021-04-27_10h33.28.948,premceCat2_ses-02_part-02_label-phase2,2020.2.10,MacIntel,60,,,,,,,,,0,102,102,70,1,stimuli/objects/shovel01.jpg,right,new,214,,,,,,,,,,,,,,,
,,,,,,,,9,2021-04-27_10h33.28.948,premceCat2_ses-02_part-02_label-phase2,2020.2.10,MacIntel,60,,,,,right,0.922,3,0.188,0,103,103,78,1,stimuli/objects/lightswitch01.jpg,right,new,222,,,,,,,,,,,,,,,
,,,,,,,,9,2021-04-27_10h33.28.948,premceCat2_ses-02_part-02_label-phase2,2020.2.10,MacIntel,60,,,,,right,0.523,3,0.184,0,104,104,60,1,stimuli/objects/kite.jpg,right,new,204,,,,,,,,,,,,,,,
,,,,,,,,9,2021-04-27_10h33.28.948,premceCat2_ses-02_part-02_label-phase2,2020.2.10,MacIntel,60,,,,,left,0.594,3,0.215,,,,,,,,,,left,0.186,0,0,0,0,1,,,,,,,,
,,,,,,,,9,2021-04-27_10h33.28.948,premceCat2_ses-02_part-02_label-phase2,2020.2.10,MacIntel,60,,,,,,,,,0,105,105,53,1,stimuli/objects/tape02a.jpg,left,old,197,,,,,,,,,,,,,,,
,,,,,,,,9,2021-04-27_10h33.28.948,premceCat2_ses-02_part-02_label-phase2,2020.2.10,MacIntel,60,,,,,right,1.018,3,0.148,0,106,106,0,1,stimuli/objects/smokedetector02.jpg,right,new,144,,,,,,,,,,,,,,,
,,,,,,,,9,2021-04-27_10h33.28.948,premceCat2_ses-02_part-02_label-phase2,2020.2.10,MacIntel,60,,,,,left,0.589,3,0.157,,,,,,,,,,left,0.368,0,0,0,0,1,,,,,,,,
,,,,,,,,9,2021-04-27_10h33.28.948,premceCat2_ses-02_part-02_label-phase2,2020.2.10,MacIntel,60,,,,,,,,,0,107,107,80,1,stimuli/objects/barbecue03.jpg,right,new,224,,,,,,,,,,,,,,,
,,,,,,,,9,2021-04-27_10h33.28.948,premceCat2_ses-02_part-02_label-phase2,2020.2.10,MacIntel,60,,,,,right,1.128,3,0.338,0,108,108,133,1,stimuli/objects/birdie.jpg,right,new,277,,,,,,,,,,,,,,,
,,,,,,,,9,2021-04-27_10h33.28.948,premceCat2_ses-02_part-02_label-phase2,2020.2.10,MacIntel,60,,,,,right,0.892,3,0.183,0,109,109,118,1,stimuli/objects/gardenshears01a.jpg,left,old,262,,,,,,,,,,,,,,,
,,,,,,,,9,2021-04-27_10h33.28.948,premceCat2_ses-02_part-02_label-phase2,2020.2.10,MacIntel,60,,,,,left,1.535,2,0.223,,,,,,,,,,left,0.246,0,0,0,0,1,,,,,,,,
,,,,,,,,9,2021-04-27_10h33.28.948,premceCat2_ses-02_part-02_label-phase2,2020.2.10,MacIntel,60,,,,,,,,,0,110,110,134,1,stimuli/objects/chandelier.jpg,left,old,278,,,,,,,,,,,,,,,
,,,,,,,,9,2021-04-27_10h33.28.948,premceCat2_ses-02_part-02_label-phase2,2020.2.10,MacIntel,60,,,,,left,1.806,2,0.901,,,,,,,,,,right,1.303,0,0,0,0,1,,,,,,,,
,,,,,,,,9,2021-04-27_10h33.28.948,premceCat2_ses-02_part-02_label-phase2,2020.2.10,MacIntel,60,,,,,,,,,0,111,111,1,1,stimuli/objects/photocopier.jpg,left,old,145,,,,,,,,,,,,,,,
,,,,,,,,9,2021-04-27_10h33.28.948,premceCat2_ses-02_part-02_label-phase2,2020.2.10,MacIntel,60,,,,,right,0.719,3,0.233,0,112,112,55,1,stimuli/objects/fonduefork01.jpg,right,new,199,,,,,,,,,,,,,,,
,,,,,,,,9,2021-04-27_10h33.28.948,premceCat2_ses-02_part-02_label-phase2,2020.2.10,MacIntel,60,,,,,left,0.805,3,0.129,,,,,,,,,,right,0.163,0,0,0,0,1,,,,,,,,
,,,,,,,,9,2021-04-27_10h33.28.948,premceCat2_ses-02_part-02_label-phase2,2020.2.10,MacIntel,60,,,,,,,,,0,113,113,113,1,stimuli/objects/gluetube.jpg,left,old,257,,,,,,,,,,,,,,,
,,,,,,,,9,2021-04-27_10h33.28.948,premceCat2_ses-02_part-02_label-phase2,2020.2.10,MacIntel,60,,,,,right,1.304,3,0.216,0,114,114,40,1,stimuli/objects/tablesaw.jpg,right,new,184,,,,,,,,,,,,,,,
,,,,,,,,9,2021-04-27_10h33.28.948,premceCat2_ses-02_part-02_label-phase2,2020.2.10,MacIntel,60,,,,,right,0.553,4,0.199,0,115,115,127,1,stimuli/objects/skigoggles01.jpg,right,new,271,,,,,,,,,,,,,,,
,,,,,,,,9,2021-04-27_10h33.28.948,premceCat2_ses-02_part-02_label-phase2,2020.2.10,MacIntel,60,,,,,right,1.256,2,0.148,0,116,116,128,1,stimuli/objects/pot01.jpg,left,old,272,,,,,,,,,,,,,,,
,,,,,,,,9,2021-04-27_10h33.28.948,premceCat2_ses-02_part-02_label-phase2,2020.2.10,MacIntel,60,,,,,right,0.554,2,0.248,0,117,117,27,1,stimuli/objects/hedgeshears.jpg,left,old,171,,,,,,,,,,,,,,,
,,,,,,,,9,2021-04-27_10h33.28.948,premceCat2_ses-02_part-02_label-phase2,2020.2.10,MacIntel,60,,,,,right,0.742,2,0.266,0,118,118,42,1,stimuli/objects/tennisracket.jpg,right,new,186,,,,,,,,,,,,,,,
,,,,,,,,9,2021-04-27_10h33.28.948,premceCat2_ses-02_part-02_label-phase2,2020.2.10,MacIntel,60,,,,,right,0.772,2,0.23,0,119,119,122,1,stimuli/objects/hockeystick.jpg,right,new,266,,,,,,,,,,,,,,,
,,,,,,,,9,2021-04-27_10h33.28.948,premceCat2_ses-02_part-02_label-phase2,2020.2.10,MacIntel,60,,,,,right,0.657,4,0.282,0,120,120,16,1,stimuli/objects/bottleopener01.jpg,right,new,160,,,,,,,,,,,,,,,
,,,,,,,,9,2021-04-27_10h33.28.948,premceCat2_ses-02_part-02_label-phase2,2020.2.10,MacIntel,60,,,,,right,0.721,4,0.217,0,121,121,71,1,stimuli/objects/handgripper.jpg,left,old,215,,,,,,,,,,,,,,,
,,,,,,,,9,2021-04-27_10h33.28.948,premceCat2_ses-02_part-02_label-phase2,2020.2.10,MacIntel,60,,,,,left,1.021,4,0.105,,,,,,,,,,left,0.23,0,0,0,0,1,,,,,,,,
,,,,,,,,9,2021-04-27_10h33.28.948,premceCat2_ses-02_part-02_label-phase2,2020.2.10,MacIntel,60,,,,,,,,,0,122,122,38,1,stimuli/objects/espressomachine.jpg,left,old,182,,,,,,,,,,,,,,,
,,,,,,,,9,2021-04-27_10h33.28.948,premceCat2_ses-02_part-02_label-phase2,2020.2.10,MacIntel,60,,,,,left,0.809,3,0.136,,,,,,,,,,right,0.104,0,0,0,0,1,,,,,,,,
,,,,,,,,9,2021-04-27_10h33.28.948,premceCat2_ses-02_part-02_label-phase2,2020.2.10,MacIntel,60,,,,,,,,,0,123,123,92,1,stimuli/objects/leafrake.jpg,left,old,236,,,,,,,,,,,,,,,
,,,,,,,,9,2021-04-27_10h33.28.948,premceCat2_ses-02_part-02_label-phase2,2020.2.10,MacIntel,60,,,,,right,1.185,1,0.217,0,124,124,76,1,stimuli/objects/extensioncord.jpg,left,old,220,,,,,,,,,,,,,,,
,,,,,,,,9,2021-04-27_10h33.28.948,premceCat2_ses-02_part-02_label-phase2,2020.2.10,MacIntel,60,,,,,right,0.644,4,0.215,0,125,125,49,1,stimuli/objects/cakeplatter.jpg,right,new,193,,,,,,,,,,,,,,,
,,,,,,,,9,2021-04-27_10h33.28.948,premceCat2_ses-02_part-02_label-phase2,2020.2.10,MacIntel,60,,,,,right,0.689,1,0.299,0,126,126,12,1,stimuli/objects/fanheater.jpg,right,new,156,,,,,,,,,,,,,,,
,,,,,,,,9,2021-04-27_10h33.28.948,premceCat2_ses-02_part-02_label-phase2,2020.2.10,MacIntel,60,,,,,right,0.872,3,0.099,0,127,127,102,1,stimuli/objects/beachumbrella01.jpg,right,new,246,,,,,,,,,,,,,,,
,,,,,,,,9,2021-04-27_10h33.28.948,premceCat2_ses-02_part-02_label-phase2,2020.2.10,MacIntel,60,,,,,right,0.772,1,0.15,0,128,128,56,1,stimuli/objects/tupperware03a.jpg,left,old,200,,,,,,,,,,,,,,,
,,,,,,,,9,2021-04-27_10h33.28.948,premceCat2_ses-02_part-02_label-phase2,2020.2.10,MacIntel,60,,,,,left,1.622,2,0.134,,,,,,,,,,left,0.218,0,0,0,0,1,,,,,,,,
,,,,,,,,9,2021-04-27_10h33.28.948,premceCat2_ses-02_part-02_label-phase2,2020.2.10,MacIntel,60,,,,,,,,,0,129,129,20,1,stimuli/objects/bikehelmet.jpg,left,old,164,,,,,,,,,,,,,,,
,,,,,,,,9,2021-04-27_10h33.28.948,premceCat2_ses-02_part-02_label-phase2,2020.2.10,MacIntel,60,,,,,right,1.142,3,0.068,0,130,130,51,1,stimuli/objects/cheeseknife01.jpg,right,new,195,,,,,,,,,,,,,,,
,,,,,,,,9,2021-04-27_10h33.28.948,premceCat2_ses-02_part-02_label-phase2,2020.2.10,MacIntel,60,,,,,right,1.024,3,0.171,0,131,131,34,1,stimuli/objects/kneepad01c.jpg,right,new,178,,,,,,,,,,,,,,,
,,,,,,,,9,2021-04-27_10h33.28.948,premceCat2_ses-02_part-02_label-phase2,2020.2.10,MacIntel,60,,,,,right,0.636,3,0.199,0,132,132,44,1,stimuli/objects/toaster01.jpg,right,new,188,,,,,,,,,,,,,,,
,,,,,,,,9,2021-04-27_10h33.28.948,premceCat2_ses-02_part-02_label-phase2,2020.2.10,MacIntel,60,,,,,right,1.108,2,0.082,0,133,133,86,1,stimuli/objects/trampoline.jpg,right,new,230,,,,,,,,,,,,,,,
,,,,,,,,9,2021-04-27_10h33.28.948,premceCat2_ses-02_part-02_label-phase2,2020.2.10,MacIntel,60,,,,,right,1.34,3,0.333,0,134,134,114,1,stimuli/objects/drinkshaker.jpg,right,new,258,,,,,,,,,,,,,,,
,,,,,,,,9,2021-04-27_10h33.28.948,premceCat2_ses-02_part-02_label-phase2,2020.2.10,MacIntel,60,,,,,left,1.171,4,0.089,,,,,,,,,,left,0.312,0,0,0,0,1,,,,,,,,
,,,,,,,,9,2021-04-27_10h33.28.948,premceCat2_ses-02_part-02_label-phase2,2020.2.10,MacIntel,60,,,,,,,,,0,135,135,37,1,stimuli/objects/carantenna.jpg,left,old,181,,,,,,,,,,,,,,,
,,,,,,,,9,2021-04-27_10h33.28.948,premceCat2_ses-02_part-02_label-phase2,2020.2.10,MacIntel,60,,,,,left,1.374,3,0.435,,,,,,,,,,right,0.035,0,0,0,0,1,,,,,,,,
,,,,,,,,9,2021-04-27_10h33.28.948,premceCat2_ses-02_part-02_label-phase2,2020.2.10,MacIntel,60,,,,,,,,,0,136,136,11,1,stimuli/objects/fuse.jpg,left,old,155,,,,,,,,,,,,,,,
,,,,,,,,9,2021-04-27_10h33.28.948,premceCat2_ses-02_part-02_label-phase2,2020.2.10,MacIntel,60,,,,,right,0.754,4,0.101,0,137,137,9,1,stimuli/objects/alarmsystem.jpg,right,new,153,,,,,,,,,,,,,,,
,,,,,,,,9,2021-04-27_10h33.28.948,premceCat2_ses-02_part-02_label-phase2,2020.2.10,MacIntel,60,,,,,right,1.106,2,0.134,0,138,138,142,1,stimuli/objects/needlenosepliers01.jpg,right,new,286,,,,,,,,,,,,,,,
,,,,,,,,9,2021-04-27_10h33.28.948,premceCat2_ses-02_part-02_label-phase2,2020.2.10,MacIntel,60,,,,,right,0.872,2,0.265,0,139,139,41,1,stimuli/objects/flask.jpg,right,new,185,,,,,,,,,,,,,,,
,,,,,,,,9,2021-04-27_10h33.28.948,premceCat2_ses-02_part-02_label-phase2,2020.2.10,MacIntel,60,,,,,right,0.976,2,0.165,0,140,140,13,1,stimuli/objects/jumpercables.jpg,left,old,157,,,,,,,,,,,,,,,
,,,,,,,,9,2021-04-27_10h33.28.948,premceCat2_ses-02_part-02_label-phase2,2020.2.10,MacIntel,60,,,,,left,0.862,1,0.164,,,,,,,,,,right,0.344,0,0,0,0,1,,,,,,,,
,,,,,,,,9,2021-04-27_10h33.28.948,premceCat2_ses-02_part-02_label-phase2,2020.2.10,MacIntel,60,,,,,,,,,0,141,141,58,1,stimuli/objects/swimgoggles.jpg,left,old,202,,,,,,,,,,,,,,,
,,,,,,,,9,2021-04-27_10h33.28.948,premceCat2_ses-02_part-02_label-phase2,2020.2.10,MacIntel,60,,,,,left,0.952,3,0.182,,,,,,,,,,right,0.179,0,0,0,0,1,,,,,,,,
,,,,,,,,9,2021-04-27_10h33.28.948,premceCat2_ses-02_part-02_label-phase2,2020.2.10,MacIntel,60,,,,,,,,,0,142,142,125,1,stimuli/objects/pliers02b.jpg,left,old,269,,,,,,,,,,,,,,,
,,,,,,,,9,2021-04-27_10h33.28.948,premceCat2_ses-02_part-02_label-phase2,2020.2.10,MacIntel,60,,,,,,,,,,,,,,,,,,,,,,,,,space,6.426,0,1,1,1,1,condition_files/ImagesforRecog2_2.csv
