instructions_loop.thisRepN,instructions_loop.thisTrialN,instructions_loop.thisN,instructions_loop.thisIndex,instructions_loop.ran,text1,text2,text3,participant,date,expName,psychopyVersion,OS,frameRate,key_resp_2.keys,key_resp_2.rt,key_resp_3.keys,key_resp_3.rt,recog_resp.keys,recog_resp.rt,conf_resp.keys,conf_resp.rt,recog_loop.thisRepN,recog_loop.thisTrialN,recog_loop.thisN,recog_loop.thisIndex,recog_loop.ran,images,corr_ans,type,order,resp_assoc.keys,resp_assoc.rt,assoc_loop.thisRepN,assoc_loop.thisTrialN,assoc_loop.thisN,assoc_loop.thisIndex,assoc_loop.ran,key_resp_break.keys,key_resp_break.rt,list_loop.thisRepN,list_loop.thisTrialN,list_loop.thisN,list_loop.thisIndex,list_loop.ran,recog_list
0,0,0,0,1,Welcome to the last phase of this experiment!,.,Please press the space bar to continue,10,2021-04-29_12h36.38.064,premceCat2_ses-02_part-02_label-phase2,2020.2.10,MacIntel,60,,,,,,,,,,,,,,,,,,,,,,,,,,,,,,,,
0,1,1,1,1,.,"In this phase, you will see some objects. 

For each object, you should indicate whether you have seen it before during the experiment.

Press LEFT ARROW for YES
Press RIGHT ARROW for NO

",Please press the space bar to continue ,10,2021-04-29_12h36.38.064,premceCat2_ses-02_part-02_label-phase2,2020.2.10,MacIntel,60,,,,,,,,,,,,,,,,,,,,,,,,,,,,,,,,
0,2,2,2,1,.,"After that, you will be asked how confident you are of your choice.

Please rate the confidence in your choice with the numbers from 1 to 4 of your keyboard. 

The numbers correspond to:

1 = Very unsure
2 = Unsure
3 = Sure
4 = Very Sure",Please press the space bar to continue,10,2021-04-29_12h36.38.064,premceCat2_ses-02_part-02_label-phase2,2020.2.10,MacIntel,60,,,,,,,,,,,,,,,,,,,,,,,,,,,,,,,,
,,,,,,,,10,2021-04-29_12h36.38.064,premceCat2_ses-02_part-02_label-phase2,2020.2.10,MacIntel,60,space,4.943085,space,9.88031,right,2.193675,2,2.102845,0,0,0,82,1,stimuli/objects/snowbrush.jpg,right,new,83,,,,,,,,,,,,,,,
,,,,,,,,10,2021-04-29_12h36.38.064,premceCat2_ses-02_part-02_label-phase2,2020.2.10,MacIntel,60,,,,,right,1.522375,4,1.44107,0,1,1,112,1,stimuli/objects/gymnasticring.jpg,right,new,113,,,,,,,,,,,,,,,
,,,,,,,,10,2021-04-29_12h36.38.064,premceCat2_ses-02_part-02_label-phase2,2020.2.10,MacIntel,60,,,,,left,1.413695,4,1.96302,,,,,,,,,,right,1.132805,0,0,0,0,1,,,,,,,,
,,,,,,,,10,2021-04-29_12h36.38.064,premceCat2_ses-02_part-02_label-phase2,2020.2.10,MacIntel,60,,,,,,,,,0,2,2,0,1,stimuli/objects/electricoutlet.jpg,left,old,1,,,,,,,,,,,,,,,
,,,,,,,,10,2021-04-29_12h36.38.064,premceCat2_ses-02_part-02_label-phase2,2020.2.10,MacIntel,60,,,,,left,1.17217,4,1.069,,,,,,,,,,right,1.35853,0,0,0,0,1,,,,,,,,
,,,,,,,,10,2021-04-29_12h36.38.064,premceCat2_ses-02_part-02_label-phase2,2020.2.10,MacIntel,60,,,,,,,,,0,3,3,62,1,stimuli/objects/pastaspoon.jpg,left,old,63,,,,,,,,,,,,,,,
,,,,,,,,10,2021-04-29_12h36.38.064,premceCat2_ses-02_part-02_label-phase2,2020.2.10,MacIntel,60,,,,,left,1.116415,4,0.34842,,,,,,,,,,right,0.58968,0,0,0,0,1,,,,,,,,
,,,,,,,,10,2021-04-29_12h36.38.064,premceCat2_ses-02_part-02_label-phase2,2020.2.10,MacIntel,60,,,,,,,,,0,4,4,132,1,stimuli/objects/expansioncard.jpg,left,old,133,,,,,,,,,,,,,,,
,,,,,,,,10,2021-04-29_12h36.38.064,premceCat2_ses-02_part-02_label-phase2,2020.2.10,MacIntel,60,,,,,left,1.09769,4,0.411665,,,,,,,,,,right,1.04828,0,0,0,0,1,,,,,,,,
,,,,,,,,10,2021-04-29_12h36.38.064,premceCat2_ses-02_part-02_label-phase2,2020.2.10,MacIntel,60,,,,,,,,,0,5,5,91,1,stimuli/objects/snowblower.jpg,left,old,92,,,,,,,,,,,,,,,
,,,,,,,,10,2021-04-29_12h36.38.064,premceCat2_ses-02_part-02_label-phase2,2020.2.10,MacIntel,60,,,,,right,3.64982,2,0.34624,0,6,6,141,1,stimuli/objects/generator.jpg,right,new,142,,,,,,,,,,,,,,,
,,,,,,,,10,2021-04-29_12h36.38.064,premceCat2_ses-02_part-02_label-phase2,2020.2.10,MacIntel,60,,,,,left,0.780045,4,1.35011,,,,,,,,,,left,0.476925,0,0,0,0,1,,,,,,,,
,,,,,,,,10,2021-04-29_12h36.38.064,premceCat2_ses-02_part-02_label-phase2,2020.2.10,MacIntel,60,,,,,,,,,0,7,7,74,1,stimuli/objects/baseball01a.jpg,left,old,75,,,,,,,,,,,,,,,
,,,,,,,,10,2021-04-29_12h36.38.064,premceCat2_ses-02_part-02_label-phase2,2020.2.10,MacIntel,60,,,,,right,3.98774,2,0.47703,0,8,8,20,1,stimuli/objects/laptop01a.jpg,right,new,21,,,,,,,,,,,,,,,
,,,,,,,,10,2021-04-29_12h36.38.064,premceCat2_ses-02_part-02_label-phase2,2020.2.10,MacIntel,60,,,,,right,3.690965,2,0.513335,0,9,9,117,1,stimuli/objects/videotape01b.jpg,right,new,118,,,,,,,,,,,,,,,
,,,,,,,,10,2021-04-29_12h36.38.064,premceCat2_ses-02_part-02_label-phase2,2020.2.10,MacIntel,60,,,,,right,3.36415,2,1.193365,0,10,10,59,1,stimuli/objects/studiolight.jpg,right,new,60,,,,,,,,,,,,,,,
,,,,,,,,10,2021-04-29_12h36.38.064,premceCat2_ses-02_part-02_label-phase2,2020.2.10,MacIntel,60,,,,,right,1.898555,2,2.309745,0,11,11,76,1,stimuli/objects/megaphone.jpg,right,new,77,,,,,,,,,,,,,,,
,,,,,,,,10,2021-04-29_12h36.38.064,premceCat2_ses-02_part-02_label-phase2,2020.2.10,MacIntel,60,,,,,left,0.96757,4,0.79237,,,,,,,,,,left,0.42549,0,0,0,0,1,,,,,,,,
,,,,,,,,10,2021-04-29_12h36.38.064,premceCat2_ses-02_part-02_label-phase2,2020.2.10,MacIntel,60,,,,,,,,,0,12,12,125,1,stimuli/objects/shoulderpad.jpg,right,new,126,,,,,,,,,,,,,,,
,,,,,,,,10,2021-04-29_12h36.38.064,premceCat2_ses-02_part-02_label-phase2,2020.2.10,MacIntel,60,,,,,left,1.12983,4,0.950005,,,,,,,,,,right,0.47675,0,0,0,0,1,,,,,,,,
,,,,,,,,10,2021-04-29_12h36.38.064,premceCat2_ses-02_part-02_label-phase2,2020.2.10,MacIntel,60,,,,,,,,,0,13,13,64,1,stimuli/objects/axe01.jpg,left,old,65,,,,,,,,,,,,,,,
,,,,,,,,10,2021-04-29_12h36.38.064,premceCat2_ses-02_part-02_label-phase2,2020.2.10,MacIntel,60,,,,,left,0.909895,4,1.004625,,,,,,,,,,left,0.438805,0,0,0,0,1,,,,,,,,
,,,,,,,,10,2021-04-29_12h36.38.064,premceCat2_ses-02_part-02_label-phase2,2020.2.10,MacIntel,60,,,,,,,,,0,14,14,98,1,stimuli/objects/podium.jpg,left,old,99,,,,,,,,,,,,,,,
,,,,,,,,10,2021-04-29_12h36.38.064,premceCat2_ses-02_part-02_label-phase2,2020.2.10,MacIntel,60,,,,,left,4.9796,2,0.778125,,,,,,,,,,right,1.80755,0,0,0,0,1,,,,,,,,
,,,,,,,,10,2021-04-29_12h36.38.064,premceCat2_ses-02_part-02_label-phase2,2020.2.10,MacIntel,60,,,,,,,,,0,15,15,138,1,stimuli/objects/taperecorder.jpg,right,new,139,,,,,,,,,,,,,,,
,,,,,,,,10,2021-04-29_12h36.38.064,premceCat2_ses-02_part-02_label-phase2,2020.2.10,MacIntel,60,,,,,left,3.45344,2,1.15865,,,,,,,,,,right,0.7942,0,0,0,0,1,,,,,,,,
,,,,,,,,10,2021-04-29_12h36.38.064,premceCat2_ses-02_part-02_label-phase2,2020.2.10,MacIntel,60,,,,,,,,,0,16,16,113,1,stimuli/objects/powercable.jpg,right,new,114,,,,,,,,,,,,,,,
,,,,,,,,10,2021-04-29_12h36.38.064,premceCat2_ses-02_part-02_label-phase2,2020.2.10,MacIntel,60,,,,,right,1.51345,3,1.793455,0,17,17,42,1,stimuli/objects/snowshoe.jpg,right,new,43,,,,,,,,,,,,,,,
,,,,,,,,10,2021-04-29_12h36.38.064,premceCat2_ses-02_part-02_label-phase2,2020.2.10,MacIntel,60,,,,,left,1.129475,4,1.41083,,,,,,,,,,right,1.404115,0,0,0,0,1,,,,,,,,
,,,,,,,,10,2021-04-29_12h36.38.064,premceCat2_ses-02_part-02_label-phase2,2020.2.10,MacIntel,60,,,,,,,,,0,18,18,61,1,stimuli/objects/weedwacker.jpg,left,old,62,,,,,,,,,,,,,,,
,,,,,,,,10,2021-04-29_12h36.38.064,premceCat2_ses-02_part-02_label-phase2,2020.2.10,MacIntel,60,,,,,left,1.64654,4,1.25356,,,,,,,,,,right,0.52154,0,0,0,0,1,,,,,,,,
,,,,,,,,10,2021-04-29_12h36.38.064,premceCat2_ses-02_part-02_label-phase2,2020.2.10,MacIntel,60,,,,,,,,,0,19,19,2,1,stimuli/objects/dvdcase01.jpg,left,old,3,,,,,,,,,,,,,,,
,,,,,,,,10,2021-04-29_12h36.38.064,premceCat2_ses-02_part-02_label-phase2,2020.2.10,MacIntel,60,,,,,right,1.89668,2,1.311935,0,20,20,63,1,stimuli/objects/butterdish.jpg,right,new,64,,,,,,,,,,,,,,,
,,,,,,,,10,2021-04-29_12h36.38.064,premceCat2_ses-02_part-02_label-phase2,2020.2.10,MacIntel,60,,,,,left,2.554695,2,1.21849,,,,,,,,,,right,0.57801,0,0,0,0,1,,,,,,,,
,,,,,,,,10,2021-04-29_12h36.38.064,premceCat2_ses-02_part-02_label-phase2,2020.2.10,MacIntel,60,,,,,,,,,0,21,21,38,1,stimuli/objects/soundmixer.jpg,right,new,39,,,,,,,,,,,,,,,
,,,,,,,,10,2021-04-29_12h36.38.064,premceCat2_ses-02_part-02_label-phase2,2020.2.10,MacIntel,60,,,,,left,2.264375,4,0.96415,,,,,,,,,,right,1.301165,0,0,0,0,1,,,,,,,,
,,,,,,,,10,2021-04-29_12h36.38.064,premceCat2_ses-02_part-02_label-phase2,2020.2.10,MacIntel,60,,,,,,,,,0,22,22,1,1,stimuli/objects/nintendods.jpg,left,old,2,,,,,,,,,,,,,,,
,,,,,,,,10,2021-04-29_12h36.38.064,premceCat2_ses-02_part-02_label-phase2,2020.2.10,MacIntel,60,,,,,right,4.557735,2,0.835185,0,23,23,22,1,stimuli/objects/umbrella04.jpg,right,new,23,,,,,,,,,,,,,,,
,,,,,,,,10,2021-04-29_12h36.38.064,premceCat2_ses-02_part-02_label-phase2,2020.2.10,MacIntel,60,,,,,left,1.33574,4,0.45117,,,,,,,,,,left,0.81491,0,0,0,0,1,,,,,,,,
,,,,,,,,10,2021-04-29_12h36.38.064,premceCat2_ses-02_part-02_label-phase2,2020.2.10,MacIntel,60,,,,,,,,,0,24,24,127,1,stimuli/objects/hockeygoaliepad.jpg,left,old,128,,,,,,,,,,,,,,,
,,,,,,,,10,2021-04-29_12h36.38.064,premceCat2_ses-02_part-02_label-phase2,2020.2.10,MacIntel,60,,,,,right,1.76268,1,3.552065,0,25,25,92,1,stimuli/objects/carjack.jpg,right,new,93,,,,,,,,,,,,,,,
,,,,,,,,10,2021-04-29_12h36.38.064,premceCat2_ses-02_part-02_label-phase2,2020.2.10,MacIntel,60,,,,,right,1.89881,2,0.66269,0,26,26,39,1,stimuli/objects/sippycup.jpg,right,new,40,,,,,,,,,,,,,,,
,,,,,,,,10,2021-04-29_12h36.38.064,premceCat2_ses-02_part-02_label-phase2,2020.2.10,MacIntel,60,,,,,left,0.851775,4,1.044705,,,,,,,,,,left,1.7964,0,0,0,0,1,,,,,,,,
,,,,,,,,10,2021-04-29_12h36.38.064,premceCat2_ses-02_part-02_label-phase2,2020.2.10,MacIntel,60,,,,,,,,,0,27,27,140,1,stimuli/objects/anchor.jpg,left,old,141,,,,,,,,,,,,,,,
,,,,,,,,10,2021-04-29_12h36.38.064,premceCat2_ses-02_part-02_label-phase2,2020.2.10,MacIntel,60,,,,,left,1.450645,4,1.15004,,,,,,,,,,right,3.114805,0,0,0,0,1,,,,,,,,
,,,,,,,,10,2021-04-29_12h36.38.064,premceCat2_ses-02_part-02_label-phase2,2020.2.10,MacIntel,60,,,,,,,,,0,28,28,101,1,stimuli/objects/gps.jpg,left,old,102,,,,,,,,,,,,,,,
,,,,,,,,10,2021-04-29_12h36.38.064,premceCat2_ses-02_part-02_label-phase2,2020.2.10,MacIntel,60,,,,,left,1.18008,4,0.445055,,,,,,,,,,right,0.5136,0,0,0,0,1,,,,,,,,
,,,,,,,,10,2021-04-29_12h36.38.064,premceCat2_ses-02_part-02_label-phase2,2020.2.10,MacIntel,60,,,,,,,,,0,29,29,69,1,stimuli/objects/cellphone.jpg,left,old,70,,,,,,,,,,,,,,,
,,,,,,,,10,2021-04-29_12h36.38.064,premceCat2_ses-02_part-02_label-phase2,2020.2.10,MacIntel,60,,,,,right,4.21442,1,0.610375,0,30,30,13,1,stimuli/objects/bastingbrush.jpg,right,new,14,,,,,,,,,,,,,,,
,,,,,,,,10,2021-04-29_12h36.38.064,premceCat2_ses-02_part-02_label-phase2,2020.2.10,MacIntel,60,,,,,left,0.85557,4,0.7474,,,,,,,,,,right,0.42819,0,0,0,0,1,,,,,,,,
,,,,,,,,10,2021-04-29_12h36.38.064,premceCat2_ses-02_part-02_label-phase2,2020.2.10,MacIntel,60,,,,,,,,,0,31,31,104,1,stimuli/objects/lightbulb01.jpg,left,old,105,,,,,,,,,,,,,,,
,,,,,,,,10,2021-04-29_12h36.38.064,premceCat2_ses-02_part-02_label-phase2,2020.2.10,MacIntel,60,,,,,right,2.318795,2,1.20862,0,32,32,66,1,stimuli/objects/nailgun.jpg,right,new,67,,,,,,,,,,,,,,,
,,,,,,,,10,2021-04-29_12h36.38.064,premceCat2_ses-02_part-02_label-phase2,2020.2.10,MacIntel,60,,,,,right,5.159295,2,0.541065,0,33,33,133,1,stimuli/objects/icebucket.jpg,right,new,134,,,,,,,,,,,,,,,
,,,,,,,,10,2021-04-29_12h36.38.064,premceCat2_ses-02_part-02_label-phase2,2020.2.10,MacIntel,60,,,,,left,1.03689,4,0.913545,,,,,,,,,,right,0.559825,0,0,0,0,1,,,,,,,,
,,,,,,,,10,2021-04-29_12h36.38.064,premceCat2_ses-02_part-02_label-phase2,2020.2.10,MacIntel,60,,,,,,,,,0,34,34,58,1,stimuli/objects/rope03.jpg,left,old,59,,,,,,,,,,,,,,,
,,,,,,,,10,2021-04-29_12h36.38.064,premceCat2_ses-02_part-02_label-phase2,2020.2.10,MacIntel,60,,,,,left,2.743055,3,1.406955,,,,,,,,,,right,0.998695,0,0,0,0,1,,,,,,,,
,,,,,,,,10,2021-04-29_12h36.38.064,premceCat2_ses-02_part-02_label-phase2,2020.2.10,MacIntel,60,,,,,,,,,0,35,35,95,1,stimuli/objects/lectern01.jpg,left,old,96,,,,,,,,,,,,,,,
,,,,,,,,10,2021-04-29_12h36.38.064,premceCat2_ses-02_part-02_label-phase2,2020.2.10,MacIntel,60,,,,,left,6.79031,4,5.158215,,,,,,,,,,left,0.826605,0,0,0,0,1,,,,,,,,
,,,,,,,,10,2021-04-29_12h36.38.064,premceCat2_ses-02_part-02_label-phase2,2020.2.10,MacIntel,60,,,,,,,,,0,36,36,15,1,stimuli/objects/spicerack.jpg,left,old,16,,,,,,,,,,,,,,,
,,,,,,,,10,2021-04-29_12h36.38.064,premceCat2_ses-02_part-02_label-phase2,2020.2.10,MacIntel,60,,,,,left,2.10275,4,0.613685,,,,,,,,,,right,3.18976,0,0,0,0,1,,,,,,,,
,,,,,,,,10,2021-04-29_12h36.38.064,premceCat2_ses-02_part-02_label-phase2,2020.2.10,MacIntel,60,,,,,,,,,0,37,37,65,1,stimuli/objects/pipewrench.jpg,left,old,66,,,,,,,,,,,,,,,
,,,,,,,,10,2021-04-29_12h36.38.064,premceCat2_ses-02_part-02_label-phase2,2020.2.10,MacIntel,60,,,,,right,2.449365,1,0.376535,0,38,38,60,1,stimuli/objects/glass02a.jpg,right,new,61,,,,,,,,,,,,,,,
,,,,,,,,10,2021-04-29_12h36.38.064,premceCat2_ses-02_part-02_label-phase2,2020.2.10,MacIntel,60,,,,,right,1.636345,2,0.44689,0,39,39,7,1,stimuli/objects/jigsaw.jpg,left,old,8,,,,,,,,,,,,,,,
,,,,,,,,10,2021-04-29_12h36.38.064,premceCat2_ses-02_part-02_label-phase2,2020.2.10,MacIntel,60,,,,,right,1.91132,1,0.69651,0,40,40,94,1,stimuli/objects/electricmixer.jpg,right,new,95,,,,,,,,,,,,,,,
,,,,,,,,10,2021-04-29_12h36.38.064,premceCat2_ses-02_part-02_label-phase2,2020.2.10,MacIntel,60,,,,,right,4.267605,2,0.997175,0,41,41,136,1,stimuli/objects/battery02b.jpg,right,new,137,,,,,,,,,,,,,,,
,,,,,,,,10,2021-04-29_12h36.38.064,premceCat2_ses-02_part-02_label-phase2,2020.2.10,MacIntel,60,,,,,left,1.15236,4,0.54715,,,,,,,,,,right,1.792475,0,0,0,0,1,,,,,,,,
,,,,,,,,10,2021-04-29_12h36.38.064,premceCat2_ses-02_part-02_label-phase2,2020.2.10,MacIntel,60,,,,,,,,,0,42,42,16,1,stimuli/objects/pressurewasher.jpg,left,old,17,,,,,,,,,,,,,,,
,,,,,,,,10,2021-04-29_12h36.38.064,premceCat2_ses-02_part-02_label-phase2,2020.2.10,MacIntel,60,,,,,left,2.02286,4,0.380015,,,,,,,,,,right,9.05051,0,0,0,0,1,,,,,,,,
,,,,,,,,10,2021-04-29_12h36.38.064,premceCat2_ses-02_part-02_label-phase2,2020.2.10,MacIntel,60,,,,,,,,,0,43,43,77,1,stimuli/objects/photocopier.jpg,left,old,78,,,,,,,,,,,,,,,
,,,,,,,,10,2021-04-29_12h36.38.064,premceCat2_ses-02_part-02_label-phase2,2020.2.10,MacIntel,60,,,,,right,1.21932,4,0.37557,0,44,44,80,1,stimuli/objects/snowman.jpg,right,new,81,,,,,,,,,,,,,,,
,,,,,,,,10,2021-04-29_12h36.38.064,premceCat2_ses-02_part-02_label-phase2,2020.2.10,MacIntel,60,,,,,left,1.15259,4,0.29584,,,,,,,,,,left,0.80871,0,0,0,0,1,,,,,,,,
,,,,,,,,10,2021-04-29_12h36.38.064,premceCat2_ses-02_part-02_label-phase2,2020.2.10,MacIntel,60,,,,,,,,,0,45,45,49,1,stimuli/objects/canoepaddle02.jpg,left,old,50,,,,,,,,,,,,,,,
,,,,,,,,10,2021-04-29_12h36.38.064,premceCat2_ses-02_part-02_label-phase2,2020.2.10,MacIntel,60,,,,,left,2.75956,2,0.858565,,,,,,,,,,left,1.36453,0,0,0,0,1,,,,,,,,
,,,,,,,,10,2021-04-29_12h36.38.064,premceCat2_ses-02_part-02_label-phase2,2020.2.10,MacIntel,60,,,,,,,,,0,46,46,68,1,stimuli/objects/leafblower01.jpg,right,new,69,,,,,,,,,,,,,,,
,,,,,,,,10,2021-04-29_12h36.38.064,premceCat2_ses-02_part-02_label-phase2,2020.2.10,MacIntel,60,,,,,left,1.60292,2,0.730045,,,,,,,,,,right,0.862735,0,0,0,0,1,,,,,,,,
,,,,,,,,10,2021-04-29_12h36.38.064,premceCat2_ses-02_part-02_label-phase2,2020.2.10,MacIntel,60,,,,,,,,,0,47,47,50,1,stimuli/objects/chisel02b.jpg,right,new,51,,,,,,,,,,,,,,,
,,,,,,,,10,2021-04-29_12h36.38.064,premceCat2_ses-02_part-02_label-phase2,2020.2.10,MacIntel,60,,,,,left,1.07103,4,1.581,,,,,,,,,,left,1.584445,0,0,0,0,1,,,,,,,,
,,,,,,,,10,2021-04-29_12h36.38.064,premceCat2_ses-02_part-02_label-phase2,2020.2.10,MacIntel,60,,,,,,,,,0,48,48,118,1,stimuli/objects/toyhardhat.jpg,left,old,119,,,,,,,,,,,,,,,
,,,,,,,,10,2021-04-29_12h36.38.064,premceCat2_ses-02_part-02_label-phase2,2020.2.10,MacIntel,60,,,,,left,1.41888,3,1.562005,,,,,,,,,,right,0.742725,0,0,0,0,1,,,,,,,,
,,,,,,,,10,2021-04-29_12h36.38.064,premceCat2_ses-02_part-02_label-phase2,2020.2.10,MacIntel,60,,,,,,,,,0,49,49,54,1,stimuli/objects/pda.jpg,right,new,55,,,,,,,,,,,,,,,
,,,,,,,,10,2021-04-29_12h36.38.064,premceCat2_ses-02_part-02_label-phase2,2020.2.10,MacIntel,60,,,,,right,1.56346,3,1.710965,0,50,50,85,1,stimuli/objects/golfball.jpg,right,new,86,,,,,,,,,,,,,,,
,,,,,,,,10,2021-04-29_12h36.38.064,premceCat2_ses-02_part-02_label-phase2,2020.2.10,MacIntel,60,,,,,left,1.223245,4,0.37695,,,,,,,,,,left,0.49481,0,0,0,0,1,,,,,,,,
,,,,,,,,10,2021-04-29_12h36.38.064,premceCat2_ses-02_part-02_label-phase2,2020.2.10,MacIntel,60,,,,,,,,,0,51,51,56,1,stimuli/objects/cookingpot.jpg,left,old,57,,,,,,,,,,,,,,,
,,,,,,,,10,2021-04-29_12h36.38.064,premceCat2_ses-02_part-02_label-phase2,2020.2.10,MacIntel,60,,,,,left,1.085535,4,1.86008,,,,,,,,,,left,0.67493,0,0,0,0,1,,,,,,,,
,,,,,,,,10,2021-04-29_12h36.38.064,premceCat2_ses-02_part-02_label-phase2,2020.2.10,MacIntel,60,,,,,,,,,0,52,52,137,1,stimuli/objects/iceskate.jpg,left,old,138,,,,,,,,,,,,,,,
,,,,,,,,10,2021-04-29_12h36.38.064,premceCat2_ses-02_part-02_label-phase2,2020.2.10,MacIntel,60,,,,,left,2.109645,3,0.77901,,,,,,,,,,right,0.499795,0,0,0,0,1,,,,,,,,
,,,,,,,,10,2021-04-29_12h36.38.064,premceCat2_ses-02_part-02_label-phase2,2020.2.10,MacIntel,60,,,,,,,,,0,53,53,115,1,stimuli/objects/boltcutter.jpg,left,old,116,,,,,,,,,,,,,,,
,,,,,,,,10,2021-04-29_12h36.38.064,premceCat2_ses-02_part-02_label-phase2,2020.2.10,MacIntel,60,,,,,left,1.111085,4,0.634865,,,,,,,,,,right,1.466545,0,0,0,0,1,,,,,,,,
,,,,,,,,10,2021-04-29_12h36.38.064,premceCat2_ses-02_part-02_label-phase2,2020.2.10,MacIntel,60,,,,,,,,,0,54,54,89,1,stimuli/objects/ducttape.jpg,right,new,90,,,,,,,,,,,,,,,
,,,,,,,,10,2021-04-29_12h36.38.064,premceCat2_ses-02_part-02_label-phase2,2020.2.10,MacIntel,60,,,,,right,0.8912,1,2.697265,0,55,55,67,1,stimuli/objects/cooler01.jpg,left,old,68,,,,,,,,,,,,,,,
,,,,,,,,10,2021-04-29_12h36.38.064,premceCat2_ses-02_part-02_label-phase2,2020.2.10,MacIntel,60,,,,,right,2.49128,2,0.995435,0,56,56,106,1,stimuli/objects/minifridge.jpg,right,new,107,,,,,,,,,,,,,,,
,,,,,,,,10,2021-04-29_12h36.38.064,premceCat2_ses-02_part-02_label-phase2,2020.2.10,MacIntel,60,,,,,left,0.941405,4,0.992095,,,,,,,,,,left,0.693075,0,0,0,0,1,,,,,,,,
,,,,,,,,10,2021-04-29_12h36.38.064,premceCat2_ses-02_part-02_label-phase2,2020.2.10,MacIntel,60,,,,,,,,,0,57,57,52,1,stimuli/objects/cookiecutter.jpg,left,old,53,,,,,,,,,,,,,,,
,,,,,,,,10,2021-04-29_12h36.38.064,premceCat2_ses-02_part-02_label-phase2,2020.2.10,MacIntel,60,,,,,left,3.42126,3,0.63305,,,,,,,,,,right,0.51686,0,0,0,0,1,,,,,,,,
,,,,,,,,10,2021-04-29_12h36.38.064,premceCat2_ses-02_part-02_label-phase2,2020.2.10,MacIntel,60,,,,,,,,,0,58,58,47,1,stimuli/objects/flooringstapler.jpg,left,old,48,,,,,,,,,,,,,,,
,,,,,,,,10,2021-04-29_12h36.38.064,premceCat2_ses-02_part-02_label-phase2,2020.2.10,MacIntel,60,,,,,right,2.209525,2,1.881905,0,59,59,4,1,stimuli/objects/microphone01.jpg,right,new,5,,,,,,,,,,,,,,,
,,,,,,,,10,2021-04-29_12h36.38.064,premceCat2_ses-02_part-02_label-phase2,2020.2.10,MacIntel,60,,,,,left,1.56741,1,2.227525,,,,,,,,,,right,0.360485,0,0,0,0,1,,,,,,,,
,,,,,,,,10,2021-04-29_12h36.38.064,premceCat2_ses-02_part-02_label-phase2,2020.2.10,MacIntel,60,,,,,,,,,0,60,60,51,1,stimuli/objects/webcam.jpg,right,new,52,,,,,,,,,,,,,,,
,,,,,,,,10,2021-04-29_12h36.38.064,premceCat2_ses-02_part-02_label-phase2,2020.2.10,MacIntel,60,,,,,left,1.053455,3,1.314635,,,,,,,,,,right,1.41767,0,0,0,0,1,,,,,,,,
,,,,,,,,10,2021-04-29_12h36.38.064,premceCat2_ses-02_part-02_label-phase2,2020.2.10,MacIntel,60,,,,,,,,,0,61,61,40,1,stimuli/objects/sledgehammer.jpg,left,old,41,,,,,,,,,,,,,,,
,,,,,,,,10,2021-04-29_12h36.38.064,premceCat2_ses-02_part-02_label-phase2,2020.2.10,MacIntel,60,,,,,right,1.27765,2,0.396075,0,62,62,131,1,stimuli/objects/spotlight.jpg,right,new,132,,,,,,,,,,,,,,,
,,,,,,,,10,2021-04-29_12h36.38.064,premceCat2_ses-02_part-02_label-phase2,2020.2.10,MacIntel,60,,,,,right,1.77083,3,0.429795,0,63,63,9,1,stimuli/objects/measuringtape01.jpg,right,new,10,,,,,,,,,,,,,,,
,,,,,,,,10,2021-04-29_12h36.38.064,premceCat2_ses-02_part-02_label-phase2,2020.2.10,MacIntel,60,,,,,left,2.063025,4,0.4808,,,,,,,,,,right,0.81245,0,0,0,0,1,,,,,,,,
,,,,,,,,10,2021-04-29_12h36.38.064,premceCat2_ses-02_part-02_label-phase2,2020.2.10,MacIntel,60,,,,,,,,,0,64,64,29,1,stimuli/objects/djmixer02.jpg,left,old,30,,,,,,,,,,,,,,,
,,,,,,,,10,2021-04-29_12h36.38.064,premceCat2_ses-02_part-02_label-phase2,2020.2.10,MacIntel,60,,,,,right,1.104935,3,0.99586,0,65,65,43,1,stimuli/objects/punchingball.jpg,right,new,44,,,,,,,,,,,,,,,
,,,,,,,,10,2021-04-29_12h36.38.064,premceCat2_ses-02_part-02_label-phase2,2020.2.10,MacIntel,60,,,,,left,0.96678,4,0.39856,,,,,,,,,,right,0.442995,0,0,0,0,1,,,,,,,,
,,,,,,,,10,2021-04-29_12h36.38.064,premceCat2_ses-02_part-02_label-phase2,2020.2.10,MacIntel,60,,,,,,,,,0,66,66,135,1,stimuli/objects/wheelbarrow01.jpg,left,old,136,,,,,,,,,,,,,,,
,,,,,,,,10,2021-04-29_12h36.38.064,premceCat2_ses-02_part-02_label-phase2,2020.2.10,MacIntel,60,,,,,left,3.393445,3,0.28616,,,,,,,,,,left,0.81289,0,0,0,0,1,,,,,,,,
,,,,,,,,10,2021-04-29_12h36.38.064,premceCat2_ses-02_part-02_label-phase2,2020.2.10,MacIntel,60,,,,,,,,,0,67,67,123,1,stimuli/objects/cowbell.jpg,left,old,124,,,,,,,,,,,,,,,
,,,,,,,,10,2021-04-29_12h36.38.064,premceCat2_ses-02_part-02_label-phase2,2020.2.10,MacIntel,60,,,,,left,2.59073,2,0.419475,,,,,,,,,,right,0.50977,0,0,0,0,1,,,,,,,,
,,,,,,,,10,2021-04-29_12h36.38.064,premceCat2_ses-02_part-02_label-phase2,2020.2.10,MacIntel,60,,,,,,,,,0,68,68,33,1,stimuli/objects/microwave.jpg,right,new,34,,,,,,,,,,,,,,,
,,,,,,,,10,2021-04-29_12h36.38.064,premceCat2_ses-02_part-02_label-phase2,2020.2.10,MacIntel,60,,,,,right,2.087355,2,1.914795,0,69,69,93,1,stimuli/objects/icepack.jpg,right,new,94,,,,,,,,,,,,,,,
,,,,,,,,10,2021-04-29_12h36.38.064,premceCat2_ses-02_part-02_label-phase2,2020.2.10,MacIntel,60,,,,,right,1.5411,3,0.63901,0,70,70,73,1,stimuli/objects/clock01a.jpg,right,new,74,,,,,,,,,,,,,,,
,,,,,,,,10,2021-04-29_12h36.38.064,premceCat2_ses-02_part-02_label-phase2,2020.2.10,MacIntel,60,,,,,right,0.87189,3,0.361785,0,71,71,46,1,stimuli/objects/walkman.jpg,right,new,47,,,,,,,,,,,,,,,
,,,,,,,,10,2021-04-29_12h36.38.064,premceCat2_ses-02_part-02_label-phase2,2020.2.10,MacIntel,60,,,,,left,1.762475,2,0.512775,,,,,,,,,,right,0.29838,0,0,0,0,1,,,,,,,,
,,,,,,,,10,2021-04-29_12h36.38.064,premceCat2_ses-02_part-02_label-phase2,2020.2.10,MacIntel,60,,,,,,,,,0,72,72,72,1,stimuli/objects/cclamp.jpg,right,new,73,,,,,,,,,,,,,,,
,,,,,,,,10,2021-04-29_12h36.38.064,premceCat2_ses-02_part-02_label-phase2,2020.2.10,MacIntel,60,,,,,left,1.339435,4,0.217835,,,,,,,,,,right,0.402165,0,0,0,0,1,,,,,,,,
,,,,,,,,10,2021-04-29_12h36.38.064,premceCat2_ses-02_part-02_label-phase2,2020.2.10,MacIntel,60,,,,,,,,,0,73,73,35,1,stimuli/objects/phonejack.jpg,left,old,36,,,,,,,,,,,,,,,
,,,,,,,,10,2021-04-29_12h36.38.064,premceCat2_ses-02_part-02_label-phase2,2020.2.10,MacIntel,60,,,,,left,1.972755,2,0.330575,,,,,,,,,,left,0.447925,0,0,0,0,1,,,,,,,,
,,,,,,,,10,2021-04-29_12h36.38.064,premceCat2_ses-02_part-02_label-phase2,2020.2.10,MacIntel,60,,,,,,,,,0,74,74,119,1,stimuli/objects/tongs01b.jpg,right,new,120,,,,,,,,,,,,,,,
,,,,,,,,10,2021-04-29_12h36.38.064,premceCat2_ses-02_part-02_label-phase2,2020.2.10,MacIntel,60,,,,,left,2.80435,2,0.458195,,,,,,,,,,left,0.38611,0,0,0,0,1,,,,,,,,
,,,,,,,,10,2021-04-29_12h36.38.064,premceCat2_ses-02_part-02_label-phase2,2020.2.10,MacIntel,60,,,,,,,,,0,75,75,28,1,stimuli/objects/baseballbat.jpg,left,old,29,,,,,,,,,,,,,,,
,,,,,,,,10,2021-04-29_12h36.38.064,premceCat2_ses-02_part-02_label-phase2,2020.2.10,MacIntel,60,,,,,right,1.21778,2,0.945775,0,76,76,71,1,stimuli/objects/faxmachine.jpg,right,new,72,,,,,,,,,,,,,,,
,,,,,,,,10,2021-04-29_12h36.38.064,premceCat2_ses-02_part-02_label-phase2,2020.2.10,MacIntel,60,,,,,left,1.020695,4,0.37968,,,,,,,,,,left,2.532775,0,0,0,0,1,,,,,,,,
,,,,,,,,10,2021-04-29_12h36.38.064,premceCat2_ses-02_part-02_label-phase2,2020.2.10,MacIntel,60,,,,,,,,,0,77,77,10,1,stimuli/objects/desktopcomputer.jpg,left,old,11,,,,,,,,,,,,,,,
,,,,,,,,10,2021-04-29_12h36.38.064,premceCat2_ses-02_part-02_label-phase2,2020.2.10,MacIntel,60,,,,,left,2.17029,4,0.610875,,,,,,,,,,left,1.226125,0,0,0,0,1,,,,,,,,
,,,,,,,,10,2021-04-29_12h36.38.064,premceCat2_ses-02_part-02_label-phase2,2020.2.10,MacIntel,60,,,,,,,,,0,78,78,34,1,stimuli/objects/treadmill.jpg,left,old,35,,,,,,,,,,,,,,,
,,,,,,,,10,2021-04-29_12h36.38.064,premceCat2_ses-02_part-02_label-phase2,2020.2.10,MacIntel,60,,,,,right,5.430355,1,2.047095,0,79,79,27,1,stimuli/objects/downhillski.jpg,left,old,28,,,,,,,,,,,,,,,
,,,,,,,,10,2021-04-29_12h36.38.064,premceCat2_ses-02_part-02_label-phase2,2020.2.10,MacIntel,60,,,,,right,1.387,3,0.279705,0,80,80,18,1,stimuli/objects/cashregister01.jpg,right,new,19,,,,,,,,,,,,,,,
,,,,,,,,10,2021-04-29_12h36.38.064,premceCat2_ses-02_part-02_label-phase2,2020.2.10,MacIntel,60,,,,,left,1.221285,4,0.66241,,,,,,,,,,left,0.450245,0,0,0,0,1,,,,,,,,
,,,,,,,,10,2021-04-29_12h36.38.064,premceCat2_ses-02_part-02_label-phase2,2020.2.10,MacIntel,60,,,,,,,,,0,81,81,6,1,stimuli/objects/saladspinner.jpg,left,old,7,,,,,,,,,,,,,,,
,,,,,,,,10,2021-04-29_12h36.38.064,premceCat2_ses-02_part-02_label-phase2,2020.2.10,MacIntel,60,,,,,left,1.485495,4,0.28319,,,,,,,,,,left,0.67597,0,0,0,0,1,,,,,,,,
,,,,,,,,10,2021-04-29_12h36.38.064,premceCat2_ses-02_part-02_label-phase2,2020.2.10,MacIntel,60,,,,,,,,,0,82,82,3,1,stimuli/objects/bowl02a.jpg,left,old,4,,,,,,,,,,,,,,,
,,,,,,,,10,2021-04-29_12h36.38.064,premceCat2_ses-02_part-02_label-phase2,2020.2.10,MacIntel,60,,,,,right,1.68717,3,0.59655,0,83,83,30,1,stimuli/objects/printer02.jpg,right,new,31,,,,,,,,,,,,,,,
,,,,,,,,10,2021-04-29_12h36.38.064,premceCat2_ses-02_part-02_label-phase2,2020.2.10,MacIntel,60,,,,,left,1.638065,3,0.645555,,,,,,,,,,right,0.63424,0,0,0,0,1,,,,,,,,
,,,,,,,,10,2021-04-29_12h36.38.064,premceCat2_ses-02_part-02_label-phase2,2020.2.10,MacIntel,60,,,,,,,,,0,84,84,134,1,stimuli/objects/screwdriver04b.jpg,right,new,135,,,,,,,,,,,,,,,
,,,,,,,,10,2021-04-29_12h36.38.064,premceCat2_ses-02_part-02_label-phase2,2020.2.10,MacIntel,60,,,,,right,1.21965,4,1.636385,0,85,85,23,1,stimuli/objects/football.jpg,right,new,24,,,,,,,,,,,,,,,
,,,,,,,,10,2021-04-29_12h36.38.064,premceCat2_ses-02_part-02_label-phase2,2020.2.10,MacIntel,60,,,,,left,1.202595,4,0.252125,,,,,,,,,,left,0.427995,0,0,0,0,1,,,,,,,,
,,,,,,,,10,2021-04-29_12h36.38.064,premceCat2_ses-02_part-02_label-phase2,2020.2.10,MacIntel,60,,,,,,,,,0,86,86,114,1,stimuli/objects/espressomachine.jpg,left,old,115,,,,,,,,,,,,,,,
,,,,,,,,10,2021-04-29_12h36.38.064,premceCat2_ses-02_part-02_label-phase2,2020.2.10,MacIntel,60,,,,,right,0.98852,3,1.566665,0,87,87,55,1,stimuli/objects/toolbox02.jpg,right,new,56,,,,,,,,,,,,,,,
,,,,,,,,10,2021-04-29_12h36.38.064,premceCat2_ses-02_part-02_label-phase2,2020.2.10,MacIntel,60,,,,,right,1.10497,3,0.202685,0,88,88,81,1,stimuli/objects/avcable.jpg,right,new,82,,,,,,,,,,,,,,,
,,,,,,,,10,2021-04-29_12h36.38.064,premceCat2_ses-02_part-02_label-phase2,2020.2.10,MacIntel,60,,,,,left,0.92638,4,0.217695,,,,,,,,,,left,0.33287,0,0,0,0,1,,,,,,,,
,,,,,,,,10,2021-04-29_12h36.38.064,premceCat2_ses-02_part-02_label-phase2,2020.2.10,MacIntel,60,,,,,,,,,0,89,89,78,1,stimuli/objects/handmixer01d.jpg,left,old,79,,,,,,,,,,,,,,,
,,,,,,,,10,2021-04-29_12h36.38.064,premceCat2_ses-02_part-02_label-phase2,2020.2.10,MacIntel,60,,,,,right,1.89013,4,1.930745,0,90,90,41,1,stimuli/objects/pylon01.jpg,right,new,42,,,,,,,,,,,,,,,
,,,,,,,,10,2021-04-29_12h36.38.064,premceCat2_ses-02_part-02_label-phase2,2020.2.10,MacIntel,60,,,,,left,1.04587,4,1.161635,,,,,,,,,,left,0.543685,0,0,0,0,1,,,,,,,,
,,,,,,,,10,2021-04-29_12h36.38.064,premceCat2_ses-02_part-02_label-phase2,2020.2.10,MacIntel,60,,,,,,,,,0,91,91,124,1,stimuli/objects/bikepump01.jpg,left,old,125,,,,,,,,,,,,,,,
,,,,,,,,10,2021-04-29_12h36.38.064,premceCat2_ses-02_part-02_label-phase2,2020.2.10,MacIntel,60,,,,,right,2.738885,3,1.739725,0,92,92,126,1,stimuli/objects/tableknife02.jpg,right,new,127,,,,,,,,,,,,,,,
,,,,,,,,10,2021-04-29_12h36.38.064,premceCat2_ses-02_part-02_label-phase2,2020.2.10,MacIntel,60,,,,,right,3.73552,3,0.90981,0,93,93,24,1,stimuli/objects/skateboard.jpg,right,new,25,,,,,,,,,,,,,,,
,,,,,,,,10,2021-04-29_12h36.38.064,premceCat2_ses-02_part-02_label-phase2,2020.2.10,MacIntel,60,,,,,right,1.318915,3,0.58026,0,94,94,32,1,stimuli/objects/mitresaw.jpg,right,new,33,,,,,,,,,,,,,,,
,,,,,,,,10,2021-04-29_12h36.38.064,premceCat2_ses-02_part-02_label-phase2,2020.2.10,MacIntel,60,,,,,left,0.8959,4,0.362595,,,,,,,,,,left,2.01917,0,0,0,0,1,,,,,,,,
,,,,,,,,10,2021-04-29_12h36.38.064,premceCat2_ses-02_part-02_label-phase2,2020.2.10,MacIntel,60,,,,,,,,,0,95,95,97,1,stimuli/objects/satellitedish01.jpg,left,old,98,,,,,,,,,,,,,,,
,,,,,,,,10,2021-04-29_12h36.38.064,premceCat2_ses-02_part-02_label-phase2,2020.2.10,MacIntel,60,,,,,left,2.01454,4,0.729835,,,,,,,,,,right,0.4362,0,0,0,0,1,,,,,,,,
,,,,,,,,10,2021-04-29_12h36.38.064,premceCat2_ses-02_part-02_label-phase2,2020.2.10,MacIntel,60,,,,,,,,,0,96,96,37,1,stimuli/objects/setsquare.jpg,left,old,38,,,,,,,,,,,,,,,
,,,,,,,,10,2021-04-29_12h36.38.064,premceCat2_ses-02_part-02_label-phase2,2020.2.10,MacIntel,60,,,,,right,2.720745,3,2.01222,0,97,97,128,1,stimuli/objects/tripod01.jpg,right,new,129,,,,,,,,,,,,,,,
,,,,,,,,10,2021-04-29_12h36.38.064,premceCat2_ses-02_part-02_label-phase2,2020.2.10,MacIntel,60,,,,,right,1.337415,3,0.381725,0,98,98,111,1,stimuli/objects/speaker04.jpg,right,new,112,,,,,,,,,,,,,,,
,,,,,,,,10,2021-04-29_12h36.38.064,premceCat2_ses-02_part-02_label-phase2,2020.2.10,MacIntel,60,,,,,left,1.4294,4,1.53225,,,,,,,,,,left,2.715695,0,0,0,0,1,,,,,,,,
,,,,,,,,10,2021-04-29_12h36.38.064,premceCat2_ses-02_part-02_label-phase2,2020.2.10,MacIntel,60,,,,,,,,,0,99,99,70,1,stimuli/objects/hourglass.jpg,left,old,71,,,,,,,,,,,,,,,
,,,,,,,,10,2021-04-29_12h36.38.064,premceCat2_ses-02_part-02_label-phase2,2020.2.10,MacIntel,60,,,,,right,5.740435,2,0.3627,0,100,100,90,1,stimuli/objects/carlighter02.jpg,right,new,91,,,,,,,,,,,,,,,
,,,,,,,,10,2021-04-29_12h36.38.064,premceCat2_ses-02_part-02_label-phase2,2020.2.10,MacIntel,60,,,,,left,1.502315,4,0.42051,,,,,,,,,,right,3.227495,0,0,0,0,1,,,,,,,,
,,,,,,,,10,2021-04-29_12h36.38.064,premceCat2_ses-02_part-02_label-phase2,2020.2.10,MacIntel,60,,,,,,,,,0,101,101,105,1,stimuli/objects/fanblades.jpg,left,old,106,,,,,,,,,,,,,,,
,,,,,,,,10,2021-04-29_12h36.38.064,premceCat2_ses-02_part-02_label-phase2,2020.2.10,MacIntel,60,,,,,right,1.03743,4,1.063435,0,102,102,17,1,stimuli/objects/exercisebench.jpg,right,new,18,,,,,,,,,,,,,,,
,,,,,,,,10,2021-04-29_12h36.38.064,premceCat2_ses-02_part-02_label-phase2,2020.2.10,MacIntel,60,,,,,right,1.65686,3,0.395155,0,103,103,19,1,stimuli/objects/peppermill02b.jpg,right,new,20,,,,,,,,,,,,,,,
,,,,,,,,10,2021-04-29_12h36.38.064,premceCat2_ses-02_part-02_label-phase2,2020.2.10,MacIntel,60,,,,,right,1.189265,4,0.39839,0,104,104,109,1,stimuli/objects/winerack.jpg,right,new,110,,,,,,,,,,,,,,,
,,,,,,,,10,2021-04-29_12h36.38.064,premceCat2_ses-02_part-02_label-phase2,2020.2.10,MacIntel,60,,,,,left,1.670185,4,0.350865,,,,,,,,,,left,0.629005,0,0,0,0,1,,,,,,,,
,,,,,,,,10,2021-04-29_12h36.38.064,premceCat2_ses-02_part-02_label-phase2,2020.2.10,MacIntel,60,,,,,,,,,0,105,105,88,1,stimuli/objects/cork02.jpg,left,old,89,,,,,,,,,,,,,,,
,,,,,,,,10,2021-04-29_12h36.38.064,premceCat2_ses-02_part-02_label-phase2,2020.2.10,MacIntel,60,,,,,left,1.19438,4,0.53475,,,,,,,,,,left,0.41636,0,0,0,0,1,,,,,,,,
,,,,,,,,10,2021-04-29_12h36.38.064,premceCat2_ses-02_part-02_label-phase2,2020.2.10,MacIntel,60,,,,,,,,,0,106,106,48,1,stimuli/objects/woodenspoon.jpg,left,old,49,,,,,,,,,,,,,,,
,,,,,,,,10,2021-04-29_12h36.38.064,premceCat2_ses-02_part-02_label-phase2,2020.2.10,MacIntel,60,,,,,left,1.436505,3,0.812065,,,,,,,,,,left,0.353655,0,0,0,0,1,,,,,,,,
,,,,,,,,10,2021-04-29_12h36.38.064,premceCat2_ses-02_part-02_label-phase2,2020.2.10,MacIntel,60,,,,,,,,,0,107,107,103,1,stimuli/objects/oven.jpg,left,old,104,,,,,,,,,,,,,,,
,,,,,,,,10,2021-04-29_12h36.38.064,premceCat2_ses-02_part-02_label-phase2,2020.2.10,MacIntel,60,,,,,left,1.151915,3,0.347955,,,,,,,,,,right,0.349765,0,0,0,0,1,,,,,,,,
,,,,,,,,10,2021-04-29_12h36.38.064,premceCat2_ses-02_part-02_label-phase2,2020.2.10,MacIntel,60,,,,,,,,,0,108,108,99,1,stimuli/objects/gardenshears01a.jpg,left,old,100,,,,,,,,,,,,,,,
,,,,,,,,10,2021-04-29_12h36.38.064,premceCat2_ses-02_part-02_label-phase2,2020.2.10,MacIntel,60,,,,,right,1.6776,3,0.9209,0,109,109,100,1,stimuli/objects/remotecontrol04.jpg,right,new,101,,,,,,,,,,,,,,,
,,,,,,,,10,2021-04-29_12h36.38.064,premceCat2_ses-02_part-02_label-phase2,2020.2.10,MacIntel,60,,,,,right,1.90528,4,0.330535,0,110,110,83,1,stimuli/objects/kitchenscale01a.jpg,right,new,84,,,,,,,,,,,,,,,
,,,,,,,,10,2021-04-29_12h36.38.064,premceCat2_ses-02_part-02_label-phase2,2020.2.10,MacIntel,60,,,,,left,1.987305,4,0.36144,,,,,,,,,,right,0.510805,0,0,0,0,1,,,,,,,,
,,,,,,,,10,2021-04-29_12h36.38.064,premceCat2_ses-02_part-02_label-phase2,2020.2.10,MacIntel,60,,,,,,,,,0,111,111,44,1,stimuli/objects/level03a.jpg,left,old,45,,,,,,,,,,,,,,,
,,,,,,,,10,2021-04-29_12h36.38.064,premceCat2_ses-02_part-02_label-phase2,2020.2.10,MacIntel,60,,,,,right,1.708455,2,0.379215,0,112,112,110,1,stimuli/objects/lock03a.jpg,right,new,111,,,,,,,,,,,,,,,
,,,,,,,,10,2021-04-29_12h36.38.064,premceCat2_ses-02_part-02_label-phase2,2020.2.10,MacIntel,60,,,,,left,1.154195,4,0.48521,,,,,,,,,,left,0.415255,0,0,0,0,1,,,,,,,,
,,,,,,,,10,2021-04-29_12h36.38.064,premceCat2_ses-02_part-02_label-phase2,2020.2.10,MacIntel,60,,,,,,,,,0,113,113,102,1,stimuli/objects/hockeygoalieglove.jpg,left,old,103,,,,,,,,,,,,,,,
,,,,,,,,10,2021-04-29_12h36.38.064,premceCat2_ses-02_part-02_label-phase2,2020.2.10,MacIntel,60,,,,,left,1.389715,3,0.676195,,,,,,,,,,right,1.131405,0,0,0,0,1,,,,,,,,
,,,,,,,,10,2021-04-29_12h36.38.064,premceCat2_ses-02_part-02_label-phase2,2020.2.10,MacIntel,60,,,,,,,,,0,114,114,5,1,stimuli/objects/lamp04a.jpg,left,old,6,,,,,,,,,,,,,,,
,,,,,,,,10,2021-04-29_12h36.38.064,premceCat2_ses-02_part-02_label-phase2,2020.2.10,MacIntel,60,,,,,right,1.187745,3,0.246725,0,115,115,86,1,stimuli/objects/toasteroven.jpg,right,new,87,,,,,,,,,,,,,,,
,,,,,,,,10,2021-04-29_12h36.38.064,premceCat2_ses-02_part-02_label-phase2,2020.2.10,MacIntel,60,,,,,left,1.10141,4,0.78575,,,,,,,,,,right,0.54615,0,0,0,0,1,,,,,,,,
,,,,,,,,10,2021-04-29_12h36.38.064,premceCat2_ses-02_part-02_label-phase2,2020.2.10,MacIntel,60,,,,,,,,,0,116,116,79,1,stimuli/objects/wire.jpg,left,old,80,,,,,,,,,,,,,,,
,,,,,,,,10,2021-04-29_12h36.38.064,premceCat2_ses-02_part-02_label-phase2,2020.2.10,MacIntel,60,,,,,right,1.18375,3,0.370025,0,117,117,57,1,stimuli/objects/audiocablesplitter.jpg,right,new,58,,,,,,,,,,,,,,,
,,,,,,,,10,2021-04-29_12h36.38.064,premceCat2_ses-02_part-02_label-phase2,2020.2.10,MacIntel,60,,,,,left,0.85293,4,0.517395,,,,,,,,,,left,0.5125,0,0,0,0,1,,,,,,,,
,,,,,,,,10,2021-04-29_12h36.38.064,premceCat2_ses-02_part-02_label-phase2,2020.2.10,MacIntel,60,,,,,,,,,0,118,118,120,1,stimuli/objects/martiniglass01b.jpg,left,old,121,,,,,,,,,,,,,,,
,,,,,,,,10,2021-04-29_12h36.38.064,premceCat2_ses-02_part-02_label-phase2,2020.2.10,MacIntel,60,,,,,left,0.92435,4,0.362095,,,,,,,,,,left,0.3576,0,0,0,0,1,,,,,,,,
,,,,,,,,10,2021-04-29_12h36.38.064,premceCat2_ses-02_part-02_label-phase2,2020.2.10,MacIntel,60,,,,,,,,,0,119,119,84,1,stimuli/objects/catchermask.jpg,left,old,85,,,,,,,,,,,,,,,
,,,,,,,,10,2021-04-29_12h36.38.064,premceCat2_ses-02_part-02_label-phase2,2020.2.10,MacIntel,60,,,,,right,1.153155,3,0.344355,0,120,120,12,1,stimuli/objects/garlicpress02a.jpg,right,new,13,,,,,,,,,,,,,,,
,,,,,,,,10,2021-04-29_12h36.38.064,premceCat2_ses-02_part-02_label-phase2,2020.2.10,MacIntel,60,,,,,left,1.1381,3,0.515345,,,,,,,,,,right,0.384365,0,0,0,0,1,,,,,,,,
,,,,,,,,10,2021-04-29_12h36.38.064,premceCat2_ses-02_part-02_label-phase2,2020.2.10,MacIntel,60,,,,,,,,,0,121,121,21,1,stimuli/objects/paintbrush01.jpg,right,new,22,,,,,,,,,,,,,,,
,,,,,,,,10,2021-04-29_12h36.38.064,premceCat2_ses-02_part-02_label-phase2,2020.2.10,MacIntel,60,,,,,right,1.60327,3,1.21203,0,122,122,130,1,stimuli/objects/bikewheel.jpg,left,old,131,,,,,,,,,,,,,,,
,,,,,,,,10,2021-04-29_12h36.38.064,premceCat2_ses-02_part-02_label-phase2,2020.2.10,MacIntel,60,,,,,right,1.03602,3,0.29541,0,123,123,108,1,stimuli/objects/metalscissors.jpg,right,new,109,,,,,,,,,,,,,,,
,,,,,,,,10,2021-04-29_12h36.38.064,premceCat2_ses-02_part-02_label-phase2,2020.2.10,MacIntel,60,,,,,left,1.137285,4,0.604075,,,,,,,,,,left,0.51454,0,0,0,0,1,,,,,,,,
,,,,,,,,10,2021-04-29_12h36.38.064,premceCat2_ses-02_part-02_label-phase2,2020.2.10,MacIntel,60,,,,,,,,,0,124,124,11,1,stimuli/objects/usbkey.jpg,left,old,12,,,,,,,,,,,,,,,
,,,,,,,,10,2021-04-29_12h36.38.064,premceCat2_ses-02_part-02_label-phase2,2020.2.10,MacIntel,60,,,,,right,3.935745,2,4.213975,0,125,125,116,1,stimuli/objects/radio01.jpg,right,new,117,,,,,,,,,,,,,,,
,,,,,,,,10,2021-04-29_12h36.38.064,premceCat2_ses-02_part-02_label-phase2,2020.2.10,MacIntel,60,,,,,right,1.869695,1,0.409745,0,126,126,26,1,stimuli/objects/boogieboard.jpg,right,new,27,,,,,,,,,,,,,,,
,,,,,,,,10,2021-04-29_12h36.38.064,premceCat2_ses-02_part-02_label-phase2,2020.2.10,MacIntel,60,,,,,left,1.070335,4,0.296295,,,,,,,,,,right,0.31022,0,0,0,0,1,,,,,,,,
,,,,,,,,10,2021-04-29_12h36.38.064,premceCat2_ses-02_part-02_label-phase2,2020.2.10,MacIntel,60,,,,,,,,,0,127,127,36,1,stimuli/objects/antenna.jpg,left,old,37,,,,,,,,,,,,,,,
,,,,,,,,10,2021-04-29_12h36.38.064,premceCat2_ses-02_part-02_label-phase2,2020.2.10,MacIntel,60,,,,,right,2.27833,3,1.819115,0,128,128,75,1,stimuli/objects/stepladder.jpg,right,new,76,,,,,,,,,,,,,,,
,,,,,,,,10,2021-04-29_12h36.38.064,premceCat2_ses-02_part-02_label-phase2,2020.2.10,MacIntel,60,,,,,left,1.39163,4,0.79487,,,,,,,,,,right,0.40297,0,0,0,0,1,,,,,,,,
,,,,,,,,10,2021-04-29_12h36.38.064,premceCat2_ses-02_part-02_label-phase2,2020.2.10,MacIntel,60,,,,,,,,,0,129,129,122,1,stimuli/objects/atm.jpg,left,old,123,,,,,,,,,,,,,,,
,,,,,,,,10,2021-04-29_12h36.38.064,premceCat2_ses-02_part-02_label-phase2,2020.2.10,MacIntel,60,,,,,left,1.481225,4,0.24956,,,,,,,,,,right,0.67537,0,0,0,0,1,,,,,,,,
,,,,,,,,10,2021-04-29_12h36.38.064,premceCat2_ses-02_part-02_label-phase2,2020.2.10,MacIntel,60,,,,,,,,,0,130,130,14,1,stimuli/objects/aircompressor.jpg,left,old,15,,,,,,,,,,,,,,,
,,,,,,,,10,2021-04-29_12h36.38.064,premceCat2_ses-02_part-02_label-phase2,2020.2.10,MacIntel,60,,,,,right,1.545585,2,0.21197,0,131,131,31,1,stimuli/objects/ladder.jpg,left,old,32,,,,,,,,,,,,,,,
,,,,,,,,10,2021-04-29_12h36.38.064,premceCat2_ses-02_part-02_label-phase2,2020.2.10,MacIntel,60,,,,,right,1.188545,2,0.31288,0,132,132,96,1,stimuli/objects/golfbag.jpg,right,new,97,,,,,,,,,,,,,,,
,,,,,,,,10,2021-04-29_12h36.38.064,premceCat2_ses-02_part-02_label-phase2,2020.2.10,MacIntel,60,,,,,left,0.958065,4,0.2963,,,,,,,,,,left,2.81747,0,0,0,0,1,,,,,,,,
,,,,,,,,10,2021-04-29_12h36.38.064,premceCat2_ses-02_part-02_label-phase2,2020.2.10,MacIntel,60,,,,,,,,,0,133,133,142,1,stimuli/objects/funnel.jpg,left,old,143,,,,,,,,,,,,,,,
,,,,,,,,10,2021-04-29_12h36.38.064,premceCat2_ses-02_part-02_label-phase2,2020.2.10,MacIntel,60,,,,,right,1.30938,1,1.109975,0,134,134,139,1,stimuli/objects/frisbee.jpg,right,new,140,,,,,,,,,,,,,,,
,,,,,,,,10,2021-04-29_12h36.38.064,premceCat2_ses-02_part-02_label-phase2,2020.2.10,MacIntel,60,,,,,right,1.40954,2,0.878565,0,135,135,121,1,stimuli/objects/ceilingspeaker.jpg,right,new,122,,,,,,,,,,,,,,,
,,,,,,,,10,2021-04-29_12h36.38.064,premceCat2_ses-02_part-02_label-phase2,2020.2.10,MacIntel,60,,,,,right,1.10323,3,0.57189,0,136,136,8,1,stimuli/objects/basketballhoop01.jpg,right,new,9,,,,,,,,,,,,,,,
,,,,,,,,10,2021-04-29_12h36.38.064,premceCat2_ses-02_part-02_label-phase2,2020.2.10,MacIntel,60,,,,,left,0.900135,4,0.74605,,,,,,,,,,left,0.448915,0,0,0,0,1,,,,,,,,
,,,,,,,,10,2021-04-29_12h36.38.064,premceCat2_ses-02_part-02_label-phase2,2020.2.10,MacIntel,60,,,,,,,,,0,137,137,45,1,stimuli/objects/measuringcup01.jpg,left,old,46,,,,,,,,,,,,,,,
,,,,,,,,10,2021-04-29_12h36.38.064,premceCat2_ses-02_part-02_label-phase2,2020.2.10,MacIntel,60,,,,,left,1.624525,4,1.25652,,,,,,,,,,right,0.29416,0,0,0,0,1,,,,,,,,
,,,,,,,,10,2021-04-29_12h36.38.064,premceCat2_ses-02_part-02_label-phase2,2020.2.10,MacIntel,60,,,,,,,,,0,138,138,87,1,stimuli/objects/dvdplayer.jpg,left,old,88,,,,,,,,,,,,,,,
,,,,,,,,10,2021-04-29_12h36.38.064,premceCat2_ses-02_part-02_label-phase2,2020.2.10,MacIntel,60,,,,,right,0.935865,4,0.39947,0,139,139,25,1,stimuli/objects/bowlingball.jpg,right,new,26,,,,,,,,,,,,,,,
,,,,,,,,10,2021-04-29_12h36.38.064,premceCat2_ses-02_part-02_label-phase2,2020.2.10,MacIntel,60,,,,,right,0.87829,1,0.845845,0,140,140,107,1,stimuli/objects/waterbottle03.jpg,left,old,108,,,,,,,,,,,,,,,
,,,,,,,,10,2021-04-29_12h36.38.064,premceCat2_ses-02_part-02_label-phase2,2020.2.10,MacIntel,60,,,,,left,1.492085,4,0.826845,,,,,,,,,,left,0.43589,0,0,0,0,1,,,,,,,,
,,,,,,,,10,2021-04-29_12h36.38.064,premceCat2_ses-02_part-02_label-phase2,2020.2.10,MacIntel,60,,,,,,,,,0,141,141,129,1,stimuli/objects/gasburner.jpg,left,old,130,,,,,,,,,,,,,,,
,,,,,,,,10,2021-04-29_12h36.38.064,premceCat2_ses-02_part-02_label-phase2,2020.2.10,MacIntel,60,,,,,right,1.140865,2,0.72895,0,142,142,53,1,stimuli/objects/binoculars01b.jpg,right,new,54,,,,,,,,,,,,,,,
,,,,,,,,10,2021-04-29_12h36.38.064,premceCat2_ses-02_part-02_label-phase2,2020.2.10,MacIntel,60,,,,,,,,,,,,,,,,,,,,,,,,,space,29.969885,0,0,0,0,1,condition_files/ImagesforRecog3_1.csv
,,,,,,,,10,2021-04-29_12h36.38.064,premceCat2_ses-02_part-02_label-phase2,2020.2.10,MacIntel,60,,,,,right,1.91829,4,0.330315,0,0,0,137,1,stimuli/objects/nutcracker01.jpg,right,new,281,,,,,,,,,,,,,,,
,,,,,,,,10,2021-04-29_12h36.38.064,premceCat2_ses-02_part-02_label-phase2,2020.2.10,MacIntel,60,,,,,left,0.96763,4,0.56168,,,,,,,,,,left,0.34251,0,0,0,0,1,,,,,,,,
,,,,,,,,10,2021-04-29_12h36.38.064,premceCat2_ses-02_part-02_label-phase2,2020.2.10,MacIntel,60,,,,,,,,,0,1,1,58,1,stimuli/objects/volleyball.jpg,left,old,202,,,,,,,,,,,,,,,
,,,,,,,,10,2021-04-29_12h36.38.064,premceCat2_ses-02_part-02_label-phase2,2020.2.10,MacIntel,60,,,,,right,1.270405,4,0.16887,0,2,2,51,1,stimuli/objects/cheeseknife01.jpg,right,new,195,,,,,,,,,,,,,,,
,,,,,,,,10,2021-04-29_12h36.38.064,premceCat2_ses-02_part-02_label-phase2,2020.2.10,MacIntel,60,,,,,right,1.637025,4,0.634265,0,3,3,5,1,stimuli/objects/pickaxe02.jpg,right,new,149,,,,,,,,,,,,,,,
,,,,,,,,10,2021-04-29_12h36.38.064,premceCat2_ses-02_part-02_label-phase2,2020.2.10,MacIntel,60,,,,,left,2.454795,4,0.352915,,,,,,,,,,left,2.276955,0,0,0,0,1,,,,,,,,
,,,,,,,,10,2021-04-29_12h36.38.064,premceCat2_ses-02_part-02_label-phase2,2020.2.10,MacIntel,60,,,,,,,,,0,4,4,96,1,stimuli/objects/wateringcan.jpg,left,old,240,,,,,,,,,,,,,,,
,,,,,,,,10,2021-04-29_12h36.38.064,premceCat2_ses-02_part-02_label-phase2,2020.2.10,MacIntel,60,,,,,right,1.38623,3,0.33038,0,5,5,99,1,stimuli/objects/floodlight.jpg,right,new,243,,,,,,,,,,,,,,,
,,,,,,,,10,2021-04-29_12h36.38.064,premceCat2_ses-02_part-02_label-phase2,2020.2.10,MacIntel,60,,,,,right,0.96804,3,0.29421,0,6,6,124,1,stimuli/objects/basketball01.jpg,right,new,268,,,,,,,,,,,,,,,
,,,,,,,,10,2021-04-29_12h36.38.064,premceCat2_ses-02_part-02_label-phase2,2020.2.10,MacIntel,60,,,,,left,1.642735,4,0.30932,,,,,,,,,,left,0.431155,0,0,0,0,1,,,,,,,,
,,,,,,,,10,2021-04-29_12h36.38.064,premceCat2_ses-02_part-02_label-phase2,2020.2.10,MacIntel,60,,,,,,,,,0,7,7,89,1,stimuli/objects/cleaver01.jpg,left,old,233,,,,,,,,,,,,,,,
,,,,,,,,10,2021-04-29_12h36.38.064,premceCat2_ses-02_part-02_label-phase2,2020.2.10,MacIntel,60,,,,,right,1.105745,3,1.66118,0,8,8,138,1,stimuli/objects/beermug01a.jpg,right,new,282,,,,,,,,,,,,,,,
,,,,,,,,10,2021-04-29_12h36.38.064,premceCat2_ses-02_part-02_label-phase2,2020.2.10,MacIntel,60,,,,,left,1.099635,3,0.72353,,,,,,,,,,right,0.577165,0,0,0,0,1,,,,,,,,
,,,,,,,,10,2021-04-29_12h36.38.064,premceCat2_ses-02_part-02_label-phase2,2020.2.10,MacIntel,60,,,,,,,,,0,9,9,18,1,stimuli/objects/fluorescentlightbulb.jpg,left,old,162,,,,,,,,,,,,,,,
,,,,,,,,10,2021-04-29_12h36.38.064,premceCat2_ses-02_part-02_label-phase2,2020.2.10,MacIntel,60,,,,,right,1.26682,3,1.24122,0,10,10,83,1,stimuli/objects/icecubetray01a.jpg,right,new,227,,,,,,,,,,,,,,,
,,,,,,,,10,2021-04-29_12h36.38.064,premceCat2_ses-02_part-02_label-phase2,2020.2.10,MacIntel,60,,,,,right,1.808955,4,1.63481,0,11,11,69,1,stimuli/objects/straw.jpg,right,new,213,,,,,,,,,,,,,,,
,,,,,,,,10,2021-04-29_12h36.38.064,premceCat2_ses-02_part-02_label-phase2,2020.2.10,MacIntel,60,,,,,left,4.348715,2,0.30344,,,,,,,,,,right,0.414515,0,0,0,0,1,,,,,,,,
,,,,,,,,10,2021-04-29_12h36.38.064,premceCat2_ses-02_part-02_label-phase2,2020.2.10,MacIntel,60,,,,,,,,,0,12,12,19,1,stimuli/objects/mug01.jpg,right,new,163,,,,,,,,,,,,,,,
,,,,,,,,10,2021-04-29_12h36.38.064,premceCat2_ses-02_part-02_label-phase2,2020.2.10,MacIntel,60,,,,,left,0.96932,4,0.261835,,,,,,,,,,left,0.327595,0,0,0,0,1,,,,,,,,
,,,,,,,,10,2021-04-29_12h36.38.064,premceCat2_ses-02_part-02_label-phase2,2020.2.10,MacIntel,60,,,,,,,,,0,13,13,38,1,stimuli/objects/breadknife.jpg,left,old,182,,,,,,,,,,,,,,,
,,,,,,,,10,2021-04-29_12h36.38.064,premceCat2_ses-02_part-02_label-phase2,2020.2.10,MacIntel,60,,,,,left,1.10172,4,0.567305,,,,,,,,,,left,1.30828,0,0,0,0,1,,,,,,,,
,,,,,,,,10,2021-04-29_12h36.38.064,premceCat2_ses-02_part-02_label-phase2,2020.2.10,MacIntel,60,,,,,,,,,0,14,14,43,1,stimuli/objects/bowrake.jpg,right,new,187,,,,,,,,,,,,,,,
,,,,,,,,10,2021-04-29_12h36.38.064,premceCat2_ses-02_part-02_label-phase2,2020.2.10,MacIntel,60,,,,,left,1.08614,4,0.6159,,,,,,,,,,right,0.26661,0,0,0,0,1,,,,,,,,
,,,,,,,,10,2021-04-29_12h36.38.064,premceCat2_ses-02_part-02_label-phase2,2020.2.10,MacIntel,60,,,,,,,,,0,15,15,85,1,stimuli/objects/filmnegative.jpg,left,old,229,,,,,,,,,,,,,,,
,,,,,,,,10,2021-04-29_12h36.38.064,premceCat2_ses-02_part-02_label-phase2,2020.2.10,MacIntel,60,,,,,left,0.950135,4,0.14313,,,,,,,,,,right,0.49731,0,0,0,0,1,,,,,,,,
,,,,,,,,10,2021-04-29_12h36.38.064,premceCat2_ses-02_part-02_label-phase2,2020.2.10,MacIntel,60,,,,,,,,,0,16,16,56,1,stimuli/objects/thermos.jpg,left,old,200,,,,,,,,,,,,,,,
,,,,,,,,10,2021-04-29_12h36.38.064,premceCat2_ses-02_part-02_label-phase2,2020.2.10,MacIntel,60,,,,,right,2.15304,4,0.94836,0,17,17,121,1,stimuli/objects/parachute.jpg,right,new,265,,,,,,,,,,,,,,,
,,,,,,,,10,2021-04-29_12h36.38.064,premceCat2_ses-02_part-02_label-phase2,2020.2.10,MacIntel,60,,,,,left,1.22175,4,0.346955,,,,,,,,,,right,2.058945,0,0,0,0,1,,,,,,,,
,,,,,,,,10,2021-04-29_12h36.38.064,premceCat2_ses-02_part-02_label-phase2,2020.2.10,MacIntel,60,,,,,,,,,0,18,18,65,1,stimuli/objects/bucket02.jpg,left,old,209,,,,,,,,,,,,,,,
,,,,,,,,10,2021-04-29_12h36.38.064,premceCat2_ses-02_part-02_label-phase2,2020.2.10,MacIntel,60,,,,,left,2.521115,3,1.944975,,,,,,,,,,left,2.699515,0,0,0,0,1,,,,,,,,
,,,,,,,,10,2021-04-29_12h36.38.064,premceCat2_ses-02_part-02_label-phase2,2020.2.10,MacIntel,60,,,,,,,,,0,19,19,126,1,stimuli/objects/reflector.jpg,left,old,270,,,,,,,,,,,,,,,
,,,,,,,,10,2021-04-29_12h36.38.064,premceCat2_ses-02_part-02_label-phase2,2020.2.10,MacIntel,60,,,,,right,1.460025,4,1.049355,0,20,20,136,1,stimuli/objects/hockeypuck.jpg,left,old,280,,,,,,,,,,,,,,,
,,,,,,,,10,2021-04-29_12h36.38.064,premceCat2_ses-02_part-02_label-phase2,2020.2.10,MacIntel,60,,,,,left,0.992775,4,0.49827,,,,,,,,,,left,0.46606,0,0,0,0,1,,,,,,,,
,,,,,,,,10,2021-04-29_12h36.38.064,premceCat2_ses-02_part-02_label-phase2,2020.2.10,MacIntel,60,,,,,,,,,0,21,21,88,1,stimuli/objects/magneticcompass.jpg,left,old,232,,,,,,,,,,,,,,,
,,,,,,,,10,2021-04-29_12h36.38.064,premceCat2_ses-02_part-02_label-phase2,2020.2.10,MacIntel,60,,,,,left,1.007915,4,0.430215,,,,,,,,,,right,0.376405,0,0,0,0,1,,,,,,,,
,,,,,,,,10,2021-04-29_12h36.38.064,premceCat2_ses-02_part-02_label-phase2,2020.2.10,MacIntel,60,,,,,,,,,0,22,22,13,1,stimuli/objects/bungeecord02.jpg,left,old,157,,,,,,,,,,,,,,,
,,,,,,,,10,2021-04-29_12h36.38.064,premceCat2_ses-02_part-02_label-phase2,2020.2.10,MacIntel,60,,,,,left,1.57269,2,0.31887,,,,,,,,,,right,0.259205,0,0,0,0,1,,,,,,,,
,,,,,,,,10,2021-04-29_12h36.38.064,premceCat2_ses-02_part-02_label-phase2,2020.2.10,MacIntel,60,,,,,,,,,0,23,23,91,1,stimuli/objects/cuttingpliers02.jpg,right,new,235,,,,,,,,,,,,,,,
,,,,,,,,10,2021-04-29_12h36.38.064,premceCat2_ses-02_part-02_label-phase2,2020.2.10,MacIntel,60,,,,,left,1.10696,3,0.285705,,,,,,,,,,right,0.576535,0,0,0,0,1,,,,,,,,
,,,,,,,,10,2021-04-29_12h36.38.064,premceCat2_ses-02_part-02_label-phase2,2020.2.10,MacIntel,60,,,,,,,,,0,24,24,118,1,stimuli/objects/pliers02b.jpg,left,old,262,,,,,,,,,,,,,,,
,,,,,,,,10,2021-04-29_12h36.38.064,premceCat2_ses-02_part-02_label-phase2,2020.2.10,MacIntel,60,,,,,left,1.82304,3,0.597275,,,,,,,,,,right,0.392525,0,0,0,0,1,,,,,,,,
,,,,,,,,10,2021-04-29_12h36.38.064,premceCat2_ses-02_part-02_label-phase2,2020.2.10,MacIntel,60,,,,,,,,,0,25,25,92,1,stimuli/objects/snowshovel.jpg,left,old,236,,,,,,,,,,,,,,,
,,,,,,,,10,2021-04-29_12h36.38.064,premceCat2_ses-02_part-02_label-phase2,2020.2.10,MacIntel,60,,,,,left,0.73696,3,1.09717,,,,,,,,,,left,0.77974,0,0,0,0,1,,,,,,,,
,,,,,,,,10,2021-04-29_12h36.38.064,premceCat2_ses-02_part-02_label-phase2,2020.2.10,MacIntel,60,,,,,,,,,0,26,26,73,1,stimuli/objects/baseballglove.jpg,left,old,217,,,,,,,,,,,,,,,
,,,,,,,,10,2021-04-29_12h36.38.064,premceCat2_ses-02_part-02_label-phase2,2020.2.10,MacIntel,60,,,,,right,1.107925,2,1.745145,0,27,27,12,1,stimuli/objects/fanheater.jpg,right,new,156,,,,,,,,,,,,,,,
,,,,,,,,10,2021-04-29_12h36.38.064,premceCat2_ses-02_part-02_label-phase2,2020.2.10,MacIntel,60,,,,,left,2.75956,2,0.096625,,,,,,,,,,left,0.11225,0,0,0,0,1,,,,,,,,
,,,,,,,,10,2021-04-29_12h36.38.064,premceCat2_ses-02_part-02_label-phase2,2020.2.10,MacIntel,60,,,,,,,,,0,28,28,140,1,stimuli/objects/wineglass01.jpg,right,new,284,,,,,,,,,,,,,,,
,,,,,,,,10,2021-04-29_12h36.38.064,premceCat2_ses-02_part-02_label-phase2,2020.2.10,MacIntel,60,,,,,right,1.777345,2,1.012245,0,29,29,128,1,stimuli/objects/spoon01.jpg,left,old,272,,,,,,,,,,,,,,,
,,,,,,,,10,2021-04-29_12h36.38.064,premceCat2_ses-02_part-02_label-phase2,2020.2.10,MacIntel,60,,,,,right,0.917655,4,0.066275,0,30,30,9,1,stimuli/objects/alarmsystem.jpg,right,new,153,,,,,,,,,,,,,,,
,,,,,,,,10,2021-04-29_12h36.38.064,premceCat2_ses-02_part-02_label-phase2,2020.2.10,MacIntel,60,,,,,right,1.25469,4,0.18146,0,31,31,116,1,stimuli/objects/lockingplier.jpg,right,new,260,,,,,,,,,,,,,,,
,,,,,,,,10,2021-04-29_12h36.38.064,premceCat2_ses-02_part-02_label-phase2,2020.2.10,MacIntel,60,,,,,left,1.75014,4,0.22785,,,,,,,,,,right,0.11608,0,0,0,0,1,,,,,,,,
,,,,,,,,10,2021-04-29_12h36.38.064,premceCat2_ses-02_part-02_label-phase2,2020.2.10,MacIntel,60,,,,,,,,,0,32,32,125,1,stimuli/objects/sewingmachine01a.jpg,left,old,269,,,,,,,,,,,,,,,
,,,,,,,,10,2021-04-29_12h36.38.064,premceCat2_ses-02_part-02_label-phase2,2020.2.10,MacIntel,60,,,,,right,1.00567,3,0.19366,0,33,33,131,1,stimuli/objects/handblender.jpg,right,new,275,,,,,,,,,,,,,,,
,,,,,,,,10,2021-04-29_12h36.38.064,premceCat2_ses-02_part-02_label-phase2,2020.2.10,MacIntel,60,,,,,left,1.291205,4,0.09685,,,,,,,,,,right,0.178975,0,0,0,0,1,,,,,,,,
,,,,,,,,10,2021-04-29_12h36.38.064,premceCat2_ses-02_part-02_label-phase2,2020.2.10,MacIntel,60,,,,,,,,,0,34,34,129,1,stimuli/objects/hoe.jpg,left,old,273,,,,,,,,,,,,,,,
,,,,,,,,10,2021-04-29_12h36.38.064,premceCat2_ses-02_part-02_label-phase2,2020.2.10,MacIntel,60,,,,,right,1.014415,4,0.108145,0,35,35,95,1,stimuli/objects/tennisball01b.jpg,right,new,239,,,,,,,,,,,,,,,
,,,,,,,,10,2021-04-29_12h36.38.064,premceCat2_ses-02_part-02_label-phase2,2020.2.10,MacIntel,60,,,,,right,1.967905,4,0.125765,0,36,36,94,1,stimuli/objects/file.jpg,right,new,238,,,,,,,,,,,,,,,
,,,,,,,,10,2021-04-29_12h36.38.064,premceCat2_ses-02_part-02_label-phase2,2020.2.10,MacIntel,60,,,,,right,0.803625,4,0.246165,0,37,37,111,1,stimuli/objects/diaperbag.jpg,right,new,255,,,,,,,,,,,,,,,
,,,,,,,,10,2021-04-29_12h36.38.064,premceCat2_ses-02_part-02_label-phase2,2020.2.10,MacIntel,60,,,,,right,0.98542,3,0.449665,0,38,38,30,1,stimuli/objects/halogenlightbulb.jpg,right,new,174,,,,,,,,,,,,,,,
,,,,,,,,10,2021-04-29_12h36.38.064,premceCat2_ses-02_part-02_label-phase2,2020.2.10,MacIntel,60,,,,,right,1.040065,3,0.110925,0,39,39,78,1,stimuli/objects/lightswitch01.jpg,right,new,222,,,,,,,,,,,,,,,
,,,,,,,,10,2021-04-29_12h36.38.064,premceCat2_ses-02_part-02_label-phase2,2020.2.10,MacIntel,60,,,,,left,0.9153,4,0.17774,,,,,,,,,,left,0.390845,0,0,0,0,1,,,,,,,,
,,,,,,,,10,2021-04-29_12h36.38.064,premceCat2_ses-02_part-02_label-phase2,2020.2.10,MacIntel,60,,,,,,,,,0,40,40,97,1,stimuli/objects/tupperware03a.jpg,left,old,241,,,,,,,,,,,,,,,
,,,,,,,,10,2021-04-29_12h36.38.064,premceCat2_ses-02_part-02_label-phase2,2020.2.10,MacIntel,60,,,,,right,1.8258,3,0.243995,0,41,41,82,1,stimuli/objects/shopvac.jpg,right,new,226,,,,,,,,,,,,,,,
,,,,,,,,10,2021-04-29_12h36.38.064,premceCat2_ses-02_part-02_label-phase2,2020.2.10,MacIntel,60,,,,,right,1.1409,1,0.459545,0,42,42,77,1,stimuli/objects/contactlens.jpg,left,old,221,,,,,,,,,,,,,,,
,,,,,,,,10,2021-04-29_12h36.38.064,premceCat2_ses-02_part-02_label-phase2,2020.2.10,MacIntel,60,,,,,left,1.21245,4,0.111095,,,,,,,,,,left,0.260135,0,0,0,0,1,,,,,,,,
,,,,,,,,10,2021-04-29_12h36.38.064,premceCat2_ses-02_part-02_label-phase2,2020.2.10,MacIntel,60,,,,,,,,,0,43,43,71,1,stimuli/objects/handgripper.jpg,left,old,215,,,,,,,,,,,,,,,
,,,,,,,,10,2021-04-29_12h36.38.064,premceCat2_ses-02_part-02_label-phase2,2020.2.10,MacIntel,60,,,,,right,1.00457,2,1.177855,0,44,44,16,1,stimuli/objects/bottleopener01.jpg,right,new,160,,,,,,,,,,,,,,,
,,,,,,,,10,2021-04-29_12h36.38.064,premceCat2_ses-02_part-02_label-phase2,2020.2.10,MacIntel,60,,,,,left,1.471295,2,0.24475,,,,,,,,,,left,0.229905,0,0,0,0,1,,,,,,,,
,,,,,,,,10,2021-04-29_12h36.38.064,premceCat2_ses-02_part-02_label-phase2,2020.2.10,MacIntel,60,,,,,,,,,0,45,45,10,1,stimuli/objects/skihelmet01.jpg,left,old,154,,,,,,,,,,,,,,,
,,,,,,,,10,2021-04-29_12h36.38.064,premceCat2_ses-02_part-02_label-phase2,2020.2.10,MacIntel,60,,,,,right,1.342785,2,0.9103,0,46,46,44,1,stimuli/objects/toaster01.jpg,right,new,188,,,,,,,,,,,,,,,
,,,,,,,,10,2021-04-29_12h36.38.064,premceCat2_ses-02_part-02_label-phase2,2020.2.10,MacIntel,60,,,,,right,3.419225,2,0.05878,0,47,47,34,1,stimuli/objects/kneepad01c.jpg,right,new,178,,,,,,,,,,,,,,,
,,,,,,,,10,2021-04-29_12h36.38.064,premceCat2_ses-02_part-02_label-phase2,2020.2.10,MacIntel,60,,,,,left,0.91765,4,0.00064,,,,,,,,,,right,0.21021,0,0,0,0,1,,,,,,,,
,,,,,,,,10,2021-04-29_12h36.38.064,premceCat2_ses-02_part-02_label-phase2,2020.2.10,MacIntel,60,,,,,,,,,0,48,48,27,1,stimuli/objects/saw02b.jpg,left,old,171,,,,,,,,,,,,,,,
,,,,,,,,10,2021-04-29_12h36.38.064,premceCat2_ses-02_part-02_label-phase2,2020.2.10,MacIntel,60,,,,,right,2.9895,2,0.06011,0,49,49,31,1,stimuli/objects/soccerball.jpg,left,old,175,,,,,,,,,,,,,,,
,,,,,,,,10,2021-04-29_12h36.38.064,premceCat2_ses-02_part-02_label-phase2,2020.2.10,MacIntel,60,,,,,right,0.90575,4,0.10115,0,50,50,60,1,stimuli/objects/kite.jpg,right,new,204,,,,,,,,,,,,,,,
,,,,,,,,10,2021-04-29_12h36.38.064,premceCat2_ses-02_part-02_label-phase2,2020.2.10,MacIntel,60,,,,,left,1.844585,2,0.063295,,,,,,,,,,left,0.06558,0,0,0,0,1,,,,,,,,
,,,,,,,,10,2021-04-29_12h36.38.064,premceCat2_ses-02_part-02_label-phase2,2020.2.10,MacIntel,60,,,,,,,,,0,51,51,79,1,stimuli/objects/boatmotor.jpg,left,old,223,,,,,,,,,,,,,,,
,,,,,,,,10,2021-04-29_12h36.38.064,premceCat2_ses-02_part-02_label-phase2,2020.2.10,MacIntel,60,,,,,right,0.883785,4,0.06,0,52,52,112,1,stimuli/objects/slidetray.jpg,left,old,256,,,,,,,,,,,,,,,
,,,,,,,,10,2021-04-29_12h36.38.064,premceCat2_ses-02_part-02_label-phase2,2020.2.10,MacIntel,60,,,,,left,1.399535,2,0.000575,,,,,,,,,,left,0.207715,0,0,0,0,1,,,,,,,,
,,,,,,,,10,2021-04-29_12h36.38.064,premceCat2_ses-02_part-02_label-phase2,2020.2.10,MacIntel,60,,,,,,,,,0,53,53,17,1,stimuli/objects/backpack01a.jpg,left,old,161,,,,,,,,,,,,,,,
,,,,,,,,10,2021-04-29_12h36.38.064,premceCat2_ses-02_part-02_label-phase2,2020.2.10,MacIntel,60,,,,,right,0.885505,3,0.20977,0,54,54,0,1,stimuli/objects/smokedetector02.jpg,right,new,144,,,,,,,,,,,,,,,
,,,,,,,,10,2021-04-29_12h36.38.064,premceCat2_ses-02_part-02_label-phase2,2020.2.10,MacIntel,60,,,,,left,1.13433,4,0.04482,,,,,,,,,,left,0.459505,0,0,0,0,1,,,,,,,,
,,,,,,,,10,2021-04-29_12h36.38.064,premceCat2_ses-02_part-02_label-phase2,2020.2.10,MacIntel,60,,,,,,,,,0,55,55,45,1,stimuli/objects/charcoalbarbecue.jpg,left,old,189,,,,,,,,,,,,,,,
,,,,,,,,10,2021-04-29_12h36.38.064,premceCat2_ses-02_part-02_label-phase2,2020.2.10,MacIntel,60,,,,,left,1.519945,4,0.24331,,,,,,,,,,right,0.113235,0,0,0,0,1,,,,,,,,
,,,,,,,,10,2021-04-29_12h36.38.064,premceCat2_ses-02_part-02_label-phase2,2020.2.10,MacIntel,60,,,,,,,,,0,56,56,8,1,stimuli/objects/hammer01.jpg,left,old,152,,,,,,,,,,,,,,,
,,,,,,,,10,2021-04-29_12h36.38.064,premceCat2_ses-02_part-02_label-phase2,2020.2.10,MacIntel,60,,,,,left,0.9418,4,0.797435,,,,,,,,,,left,3.66838,0,0,0,0,1,,,,,,,,
,,,,,,,,10,2021-04-29_12h36.38.064,premceCat2_ses-02_part-02_label-phase2,2020.2.10,MacIntel,60,,,,,,,,,0,57,57,22,1,stimuli/objects/paintroller01.jpg,left,old,166,,,,,,,,,,,,,,,
,,,,,,,,10,2021-04-29_12h36.38.064,premceCat2_ses-02_part-02_label-phase2,2020.2.10,MacIntel,60,,,,,left,0.757375,4,0.131825,,,,,,,,,,left,0.09582,0,0,0,0,1,,,,,,,,
,,,,,,,,10,2021-04-29_12h36.38.064,premceCat2_ses-02_part-02_label-phase2,2020.2.10,MacIntel,60,,,,,,,,,0,58,58,115,1,stimuli/objects/tray.jpg,left,old,259,,,,,,,,,,,,,,,
,,,,,,,,10,2021-04-29_12h36.38.064,premceCat2_ses-02_part-02_label-phase2,2020.2.10,MacIntel,60,,,,,left,0.759205,4,0.22821,,,,,,,,,,left,0.10697,0,0,0,0,1,,,,,,,,
,,,,,,,,10,2021-04-29_12h36.38.064,premceCat2_ses-02_part-02_label-phase2,2020.2.10,MacIntel,60,,,,,,,,,0,59,59,90,1,stimuli/objects/toyhockeystick01.jpg,left,old,234,,,,,,,,,,,,,,,
,,,,,,,,10,2021-04-29_12h36.38.064,premceCat2_ses-02_part-02_label-phase2,2020.2.10,MacIntel,60,,,,,left,0.715795,4,0.250695,,,,,,,,,,right,0.078735,0,0,0,0,1,,,,,,,,
,,,,,,,,10,2021-04-29_12h36.38.064,premceCat2_ses-02_part-02_label-phase2,2020.2.10,MacIntel,60,,,,,,,,,0,60,60,29,1,stimuli/objects/chandelier.jpg,left,old,173,,,,,,,,,,,,,,,
,,,,,,,,10,2021-04-29_12h36.38.064,premceCat2_ses-02_part-02_label-phase2,2020.2.10,MacIntel,60,,,,,left,2.15311,2,0.51027,,,,,,,,,,right,0.13103,0,0,0,0,1,,,,,,,,
,,,,,,,,10,2021-04-29_12h36.38.064,premceCat2_ses-02_part-02_label-phase2,2020.2.10,MacIntel,60,,,,,,,,,0,61,61,37,1,stimuli/objects/computerkeyboard02.jpg,left,old,181,,,,,,,,,,,,,,,
,,,,,,,,10,2021-04-29_12h36.38.064,premceCat2_ses-02_part-02_label-phase2,2020.2.10,MacIntel,60,,,,,right,2.050775,2,0.877145,0,62,62,35,1,stimuli/objects/stroller.jpg,right,new,179,,,,,,,,,,,,,,,
,,,,,,,,10,2021-04-29_12h36.38.064,premceCat2_ses-02_part-02_label-phase2,2020.2.10,MacIntel,60,,,,,right,1.133195,3,0.196515,0,63,63,6,1,stimuli/objects/solderingwire.jpg,right,new,150,,,,,,,,,,,,,,,
,,,,,,,,10,2021-04-29_12h36.38.064,premceCat2_ses-02_part-02_label-phase2,2020.2.10,MacIntel,60,,,,,right,0.983105,1,1.894245,0,64,64,100,1,stimuli/objects/caulking.jpg,left,old,244,,,,,,,,,,,,,,,
,,,,,,,,10,2021-04-29_12h36.38.064,premceCat2_ses-02_part-02_label-phase2,2020.2.10,MacIntel,60,,,,,left,2.032515,2,0.000695,,,,,,,,,,right,0.228495,0,0,0,0,1,,,,,,,,
,,,,,,,,10,2021-04-29_12h36.38.064,premceCat2_ses-02_part-02_label-phase2,2020.2.10,MacIntel,60,,,,,,,,,0,65,65,75,1,stimuli/objects/mallet01b.jpg,left,old,219,,,,,,,,,,,,,,,
,,,,,,,,10,2021-04-29_12h36.38.064,premceCat2_ses-02_part-02_label-phase2,2020.2.10,MacIntel,60,,,,,left,0.847515,4,0.086225,,,,,,,,,,left,0.729005,0,0,0,0,1,,,,,,,,
,,,,,,,,10,2021-04-29_12h36.38.064,premceCat2_ses-02_part-02_label-phase2,2020.2.10,MacIntel,60,,,,,,,,,0,66,66,63,1,stimuli/objects/towel01.jpg,left,old,207,,,,,,,,,,,,,,,
,,,,,,,,10,2021-04-29_12h36.38.064,premceCat2_ses-02_part-02_label-phase2,2020.2.10,MacIntel,60,,,,,left,0.891205,4,0.01706,,,,,,,,,,right,0.11563,0,0,0,0,1,,,,,,,,
,,,,,,,,10,2021-04-29_12h36.38.064,premceCat2_ses-02_part-02_label-phase2,2020.2.10,MacIntel,60,,,,,,,,,0,67,67,108,1,stimuli/objects/telephone01b.jpg,left,old,252,,,,,,,,,,,,,,,
,,,,,,,,10,2021-04-29_12h36.38.064,premceCat2_ses-02_part-02_label-phase2,2020.2.10,MacIntel,60,,,,,right,2.700705,2,1.091335,0,68,68,104,1,stimuli/objects/alarmclock01.jpg,left,old,248,,,,,,,,,,,,,,,
,,,,,,,,10,2021-04-29_12h36.38.064,premceCat2_ses-02_part-02_label-phase2,2020.2.10,MacIntel,60,,,,,left,1.020625,3,0.09395,,,,,,,,,,left,0.15103,0,0,0,0,1,,,,,,,,
,,,,,,,,10,2021-04-29_12h36.38.064,premceCat2_ses-02_part-02_label-phase2,2020.2.10,MacIntel,60,,,,,,,,,0,69,69,32,1,stimuli/objects/rollingpin01a.jpg,left,old,176,,,,,,,,,,,,,,,
,,,,,,,,10,2021-04-29_12h36.38.064,premceCat2_ses-02_part-02_label-phase2,2020.2.10,MacIntel,60,,,,,right,0.81909,4,0.127935,0,70,70,2,1,stimuli/objects/wetfloorsign.jpg,right,new,146,,,,,,,,,,,,,,,
,,,,,,,,10,2021-04-29_12h36.38.064,premceCat2_ses-02_part-02_label-phase2,2020.2.10,MacIntel,60,,,,,right,2.772975,2,0.224355,0,71,71,113,1,stimuli/objects/hedgeshears.jpg,left,old,257,,,,,,,,,,,,,,,
,,,,,,,,10,2021-04-29_12h36.38.064,premceCat2_ses-02_part-02_label-phase2,2020.2.10,MacIntel,60,,,,,right,1.02538,4,0.28409,0,72,72,39,1,stimuli/objects/wafflemaker.jpg,right,new,183,,,,,,,,,,,,,,,
,,,,,,,,10,2021-04-29_12h36.38.064,premceCat2_ses-02_part-02_label-phase2,2020.2.10,MacIntel,60,,,,,left,2.2559,2,0.097645,,,,,,,,,,right,0.24653,0,0,0,0,1,,,,,,,,
,,,,,,,,10,2021-04-29_12h36.38.064,premceCat2_ses-02_part-02_label-phase2,2020.2.10,MacIntel,60,,,,,,,,,0,73,73,24,1,stimuli/objects/monitor.jpg,right,new,168,,,,,,,,,,,,,,,
,,,,,,,,10,2021-04-29_12h36.38.064,premceCat2_ses-02_part-02_label-phase2,2020.2.10,MacIntel,60,,,,,left,0.74195,4,0.134225,,,,,,,,,,left,0.07692,0,0,0,0,1,,,,,,,,
,,,,,,,,10,2021-04-29_12h36.38.064,premceCat2_ses-02_part-02_label-phase2,2020.2.10,MacIntel,60,,,,,,,,,0,74,74,50,1,stimuli/objects/hockeygoaliemask.jpg,left,old,194,,,,,,,,,,,,,,,
,,,,,,,,10,2021-04-29_12h36.38.064,premceCat2_ses-02_part-02_label-phase2,2020.2.10,MacIntel,60,,,,,right,1.12161,3,0.296525,0,75,75,46,1,stimuli/objects/waterbottleholder.jpg,right,new,190,,,,,,,,,,,,,,,
,,,,,,,,10,2021-04-29_12h36.38.064,premceCat2_ses-02_part-02_label-phase2,2020.2.10,MacIntel,60,,,,,right,0.986065,4,0.092975,0,76,76,48,1,stimuli/objects/eggslicer.jpg,right,new,192,,,,,,,,,,,,,,,
,,,,,,,,10,2021-04-29_12h36.38.064,premceCat2_ses-02_part-02_label-phase2,2020.2.10,MacIntel,60,,,,,right,2.15867,4,0.029835,0,77,77,59,1,stimuli/objects/speedball.jpg,right,new,203,,,,,,,,,,,,,,,
,,,,,,,,10,2021-04-29_12h36.38.064,premceCat2_ses-02_part-02_label-phase2,2020.2.10,MacIntel,60,,,,,right,1.05335,4,0.10907,0,78,78,87,1,stimuli/objects/wiicontroller.jpg,right,new,231,,,,,,,,,,,,,,,
,,,,,,,,10,2021-04-29_12h36.38.064,premceCat2_ses-02_part-02_label-phase2,2020.2.10,MacIntel,60,,,,,left,1.08323,4,0.000595,,,,,,,,,,left,0.18428,0,0,0,0,1,,,,,,,,
,,,,,,,,10,2021-04-29_12h36.38.064,premceCat2_ses-02_part-02_label-phase2,2020.2.10,MacIntel,60,,,,,,,,,0,79,79,74,1,stimuli/objects/shinpad.jpg,left,old,218,,,,,,,,,,,,,,,
,,,,,,,,10,2021-04-29_12h36.38.064,premceCat2_ses-02_part-02_label-phase2,2020.2.10,MacIntel,60,,,,,left,1.249465,2,0.11256,,,,,,,,,,left,0.11058,0,0,0,0,1,,,,,,,,
,,,,,,,,10,2021-04-29_12h36.38.064,premceCat2_ses-02_part-02_label-phase2,2020.2.10,MacIntel,60,,,,,,,,,0,80,80,47,1,stimuli/objects/plate01b.jpg,right,new,191,,,,,,,,,,,,,,,
,,,,,,,,10,2021-04-29_12h36.38.064,premceCat2_ses-02_part-02_label-phase2,2020.2.10,MacIntel,60,,,,,left,1.132765,4,0.59408,,,,,,,,,,right,1.559875,0,0,0,0,1,,,,,,,,
,,,,,,,,10,2021-04-29_12h36.38.064,premceCat2_ses-02_part-02_label-phase2,2020.2.10,MacIntel,60,,,,,,,,,0,81,81,72,1,stimuli/objects/wheel01.jpg,left,old,216,,,,,,,,,,,,,,,
,,,,,,,,10,2021-04-29_12h36.38.064,premceCat2_ses-02_part-02_label-phase2,2020.2.10,MacIntel,60,,,,,left,1.48335,3,0.22528,,,,,,,,,,left,0.177355,0,0,0,0,1,,,,,,,,
,,,,,,,,10,2021-04-29_12h36.38.064,premceCat2_ses-02_part-02_label-phase2,2020.2.10,MacIntel,60,,,,,,,,,0,82,82,105,1,stimuli/objects/pitcher02b.jpg,left,old,249,,,,,,,,,,,,,,,
,,,,,,,,10,2021-04-29_12h36.38.064,premceCat2_ses-02_part-02_label-phase2,2020.2.10,MacIntel,60,,,,,left,1.501525,4,0.000595,,,,,,,,,,right,0.03178,0,0,0,0,1,,,,,,,,
,,,,,,,,10,2021-04-29_12h36.38.064,premceCat2_ses-02_part-02_label-phase2,2020.2.10,MacIntel,60,,,,,,,,,0,83,83,36,1,stimuli/objects/loppingshears.jpg,right,new,180,,,,,,,,,,,,,,,
,,,,,,,,10,2021-04-29_12h36.38.064,premceCat2_ses-02_part-02_label-phase2,2020.2.10,MacIntel,60,,,,,left,0.988435,3,0.21003,,,,,,,,,,left,0.308385,0,0,0,0,1,,,,,,,,
,,,,,,,,10,2021-04-29_12h36.38.064,premceCat2_ses-02_part-02_label-phase2,2020.2.10,MacIntel,60,,,,,,,,,0,84,84,119,1,stimuli/objects/muffintray01.jpg,left,old,263,,,,,,,,,,,,,,,
,,,,,,,,10,2021-04-29_12h36.38.064,premceCat2_ses-02_part-02_label-phase2,2020.2.10,MacIntel,60,,,,,left,0.840305,4,0.04433,,,,,,,,,,right,0.54861,0,0,0,0,1,,,,,,,,
,,,,,,,,10,2021-04-29_12h36.38.064,premceCat2_ses-02_part-02_label-phase2,2020.2.10,MacIntel,60,,,,,,,,,0,85,85,67,1,stimuli/objects/fan.jpg,left,old,211,,,,,,,,,,,,,,,
,,,,,,,,10,2021-04-29_12h36.38.064,premceCat2_ses-02_part-02_label-phase2,2020.2.10,MacIntel,60,,,,,left,0.92654,4,0.01579,,,,,,,,,,right,0.39249,0,0,0,0,1,,,,,,,,
,,,,,,,,10,2021-04-29_12h36.38.064,premceCat2_ses-02_part-02_label-phase2,2020.2.10,MacIntel,60,,,,,,,,,0,86,86,61,1,stimuli/objects/jumpercables.jpg,left,old,205,,,,,,,,,,,,,,,
,,,,,,,,10,2021-04-29_12h36.38.064,premceCat2_ses-02_part-02_label-phase2,2020.2.10,MacIntel,60,,,,,left,1.52622,4,0.19699,,,,,,,,,,left,0.043505,0,0,0,0,1,,,,,,,,
,,,,,,,,10,2021-04-29_12h36.38.064,premceCat2_ses-02_part-02_label-phase2,2020.2.10,MacIntel,60,,,,,,,,,0,87,87,109,1,stimuli/objects/toothpick02.jpg,left,old,253,,,,,,,,,,,,,,,
,,,,,,,,10,2021-04-29_12h36.38.064,premceCat2_ses-02_part-02_label-phase2,2020.2.10,MacIntel,60,,,,,right,0.83782,4,0.111675,0,88,88,81,1,stimuli/objects/grill.jpg,right,new,225,,,,,,,,,,,,,,,
,,,,,,,,10,2021-04-29_12h36.38.064,premceCat2_ses-02_part-02_label-phase2,2020.2.10,MacIntel,60,,,,,right,0.71951,4,0.137725,0,89,89,86,1,stimuli/objects/trampoline.jpg,right,new,230,,,,,,,,,,,,,,,
,,,,,,,,10,2021-04-29_12h36.38.064,premceCat2_ses-02_part-02_label-phase2,2020.2.10,MacIntel,60,,,,,right,0.99348,4,0.194855,0,90,90,49,1,stimuli/objects/cakeplatter.jpg,right,new,193,,,,,,,,,,,,,,,
,,,,,,,,10,2021-04-29_12h36.38.064,premceCat2_ses-02_part-02_label-phase2,2020.2.10,MacIntel,60,,,,,left,1.203215,4,0.084195,,,,,,,,,,left,0.29294,0,0,0,0,1,,,,,,,,
,,,,,,,,10,2021-04-29_12h36.38.064,premceCat2_ses-02_part-02_label-phase2,2020.2.10,MacIntel,60,,,,,,,,,0,91,91,139,1,stimuli/objects/corkscrew03a.jpg,left,old,283,,,,,,,,,,,,,,,
,,,,,,,,10,2021-04-29_12h36.38.064,premceCat2_ses-02_part-02_label-phase2,2020.2.10,MacIntel,60,,,,,left,1.267715,4,0.049235,,,,,,,,,,left,0.12911,0,0,0,0,1,,,,,,,,
,,,,,,,,10,2021-04-29_12h36.38.064,premceCat2_ses-02_part-02_label-phase2,2020.2.10,MacIntel,60,,,,,,,,,0,92,92,28,1,stimuli/objects/canister.jpg,left,old,172,,,,,,,,,,,,,,,
,,,,,,,,10,2021-04-29_12h36.38.064,premceCat2_ses-02_part-02_label-phase2,2020.2.10,MacIntel,60,,,,,left,0.88526,4,0.08498,,,,,,,,,,left,1.19232,0,0,0,0,1,,,,,,,,
,,,,,,,,10,2021-04-29_12h36.38.064,premceCat2_ses-02_part-02_label-phase2,2020.2.10,MacIntel,60,,,,,,,,,0,93,93,117,1,stimuli/objects/poolnet.jpg,left,old,261,,,,,,,,,,,,,,,
,,,,,,,,10,2021-04-29_12h36.38.064,premceCat2_ses-02_part-02_label-phase2,2020.2.10,MacIntel,60,,,,,left,1.236095,3,0.37668,,,,,,,,,,right,0.183535,0,0,0,0,1,,,,,,,,
,,,,,,,,10,2021-04-29_12h36.38.064,premceCat2_ses-02_part-02_label-phase2,2020.2.10,MacIntel,60,,,,,,,,,0,94,94,53,1,stimuli/objects/metalbrush.jpg,left,old,197,,,,,,,,,,,,,,,
,,,,,,,,10,2021-04-29_12h36.38.064,premceCat2_ses-02_part-02_label-phase2,2020.2.10,MacIntel,60,,,,,right,0.975745,4,0.616195,0,95,95,114,1,stimuli/objects/drinkshaker.jpg,right,new,258,,,,,,,,,,,,,,,
,,,,,,,,10,2021-04-29_12h36.38.064,premceCat2_ses-02_part-02_label-phase2,2020.2.10,MacIntel,60,,,,,left,1.424645,4,0.082835,,,,,,,,,,left,0.133555,0,0,0,0,1,,,,,,,,
,,,,,,,,10,2021-04-29_12h36.38.064,premceCat2_ses-02_part-02_label-phase2,2020.2.10,MacIntel,60,,,,,,,,,0,96,96,57,1,stimuli/objects/swimgoggles.jpg,left,old,201,,,,,,,,,,,,,,,
,,,,,,,,10,2021-04-29_12h36.38.064,premceCat2_ses-02_part-02_label-phase2,2020.2.10,MacIntel,60,,,,,right,1.033625,3,0.21789,0,97,97,103,1,stimuli/objects/swissarmyknife01a.jpg,right,new,247,,,,,,,,,,,,,,,
,,,,,,,,10,2021-04-29_12h36.38.064,premceCat2_ses-02_part-02_label-phase2,2020.2.10,MacIntel,60,,,,,left,1.29306,4,0.062985,,,,,,,,,,right,8.777025,0,0,0,0,1,,,,,,,,
,,,,,,,,10,2021-04-29_12h36.38.064,premceCat2_ses-02_part-02_label-phase2,2020.2.10,MacIntel,60,,,,,,,,,0,98,98,130,1,stimuli/objects/fuse.jpg,left,old,274,,,,,,,,,,,,,,,
,,,,,,,,10,2021-04-29_12h36.38.064,premceCat2_ses-02_part-02_label-phase2,2020.2.10,MacIntel,60,,,,,left,1.38779,4,0.479715,,,,,,,,,,left,0.583975,0,0,0,0,1,,,,,,,,
,,,,,,,,10,2021-04-29_12h36.38.064,premceCat2_ses-02_part-02_label-phase2,2020.2.10,MacIntel,60,,,,,,,,,0,99,99,14,1,stimuli/objects/fishingrod.jpg,left,old,158,,,,,,,,,,,,,,,
,,,,,,,,10,2021-04-29_12h36.38.064,premceCat2_ses-02_part-02_label-phase2,2020.2.10,MacIntel,60,,,,,right,1.002595,3,0.11688,0,100,100,123,1,stimuli/objects/jackhammer.jpg,right,new,267,,,,,,,,,,,,,,,
,,,,,,,,10,2021-04-29_12h36.38.064,premceCat2_ses-02_part-02_label-phase2,2020.2.10,MacIntel,60,,,,,left,0.931365,4,0.292225,,,,,,,,,,left,0.309215,0,0,0,0,1,,,,,,,,
,,,,,,,,10,2021-04-29_12h36.38.064,premceCat2_ses-02_part-02_label-phase2,2020.2.10,MacIntel,60,,,,,,,,,0,101,101,23,1,stimuli/objects/snowboard.jpg,left,old,167,,,,,,,,,,,,,,,
,,,,,,,,10,2021-04-29_12h36.38.064,premceCat2_ses-02_part-02_label-phase2,2020.2.10,MacIntel,60,,,,,right,1.05417,3,3.11924,0,102,102,40,1,stimuli/objects/tablesaw.jpg,right,new,184,,,,,,,,,,,,,,,
,,,,,,,,10,2021-04-29_12h36.38.064,premceCat2_ses-02_part-02_label-phase2,2020.2.10,MacIntel,60,,,,,right,0.835645,3,0.378695,0,103,103,132,1,stimuli/objects/wirestripper.jpg,right,new,276,,,,,,,,,,,,,,,
,,,,,,,,10,2021-04-29_12h36.38.064,premceCat2_ses-02_part-02_label-phase2,2020.2.10,MacIntel,60,,,,,right,0.956365,2,0.12527,0,104,104,64,1,stimuli/objects/surfboard.jpg,left,old,208,,,,,,,,,,,,,,,
,,,,,,,,10,2021-04-29_12h36.38.064,premceCat2_ses-02_part-02_label-phase2,2020.2.10,MacIntel,60,,,,,left,0.98504,4,0.452965,,,,,,,,,,right,0.332905,0,0,0,0,1,,,,,,,,
,,,,,,,,10,2021-04-29_12h36.38.064,premceCat2_ses-02_part-02_label-phase2,2020.2.10,MacIntel,60,,,,,,,,,0,105,105,11,1,stimuli/objects/vhstape.jpg,left,old,155,,,,,,,,,,,,,,,
,,,,,,,,10,2021-04-29_12h36.38.064,premceCat2_ses-02_part-02_label-phase2,2020.2.10,MacIntel,60,,,,,left,0.777285,4,0.1789,,,,,,,,,,right,0.26138,0,0,0,0,1,,,,,,,,
,,,,,,,,10,2021-04-29_12h36.38.064,premceCat2_ses-02_part-02_label-phase2,2020.2.10,MacIntel,60,,,,,,,,,0,106,106,54,1,stimuli/objects/stubbywrench01a.jpg,left,old,198,,,,,,,,,,,,,,,
,,,,,,,,10,2021-04-29_12h36.38.064,premceCat2_ses-02_part-02_label-phase2,2020.2.10,MacIntel,60,,,,,left,1.37931,3,1.24746,,,,,,,,,,left,0.215905,0,0,0,0,1,,,,,,,,
,,,,,,,,10,2021-04-29_12h36.38.064,premceCat2_ses-02_part-02_label-phase2,2020.2.10,MacIntel,60,,,,,,,,,0,107,107,93,1,stimuli/objects/chainsaw.jpg,left,old,237,,,,,,,,,,,,,,,
,,,,,,,,10,2021-04-29_12h36.38.064,premceCat2_ses-02_part-02_label-phase2,2020.2.10,MacIntel,60,,,,,right,0.838185,3,0.36715,0,108,108,15,1,stimuli/objects/computermouse06.jpg,right,new,159,,,,,,,,,,,,,,,
,,,,,,,,10,2021-04-29_12h36.38.064,premceCat2_ses-02_part-02_label-phase2,2020.2.10,MacIntel,60,,,,,left,0.77048,4,0.23105,,,,,,,,,,right,0.231075,0,0,0,0,1,,,,,,,,
,,,,,,,,10,2021-04-29_12h36.38.064,premceCat2_ses-02_part-02_label-phase2,2020.2.10,MacIntel,60,,,,,,,,,0,109,109,52,1,stimuli/objects/securitycamera.jpg,left,old,196,,,,,,,,,,,,,,,
,,,,,,,,10,2021-04-29_12h36.38.064,premceCat2_ses-02_part-02_label-phase2,2020.2.10,MacIntel,60,,,,,right,2.541115,2,0.2447,0,110,110,106,1,stimuli/objects/extensioncord.jpg,left,old,250,,,,,,,,,,,,,,,
,,,,,,,,10,2021-04-29_12h36.38.064,premceCat2_ses-02_part-02_label-phase2,2020.2.10,MacIntel,60,,,,,right,0.81675,4,0.076405,0,111,111,120,1,stimuli/objects/tent.jpg,right,new,264,,,,,,,,,,,,,,,
,,,,,,,,10,2021-04-29_12h36.38.064,premceCat2_ses-02_part-02_label-phase2,2020.2.10,MacIntel,60,,,,,right,0.983765,3,0.378855,0,112,112,3,1,stimuli/objects/boxingglove01.jpg,right,new,147,,,,,,,,,,,,,,,
,,,,,,,,10,2021-04-29_12h36.38.064,premceCat2_ses-02_part-02_label-phase2,2020.2.10,MacIntel,60,,,,,right,1.053465,2,0.37863,0,113,113,76,1,stimuli/objects/headphones02b.jpg,left,old,220,,,,,,,,,,,,,,,
,,,,,,,,10,2021-04-29_12h36.38.064,premceCat2_ses-02_part-02_label-phase2,2020.2.10,MacIntel,60,,,,,left,1.503935,4,0.630565,,,,,,,,,,left,0.347245,0,0,0,0,1,,,,,,,,
,,,,,,,,10,2021-04-29_12h36.38.064,premceCat2_ses-02_part-02_label-phase2,2020.2.10,MacIntel,60,,,,,,,,,0,114,114,7,1,stimuli/objects/butterknife.jpg,left,old,151,,,,,,,,,,,,,,,
,,,,,,,,10,2021-04-29_12h36.38.064,premceCat2_ses-02_part-02_label-phase2,2020.2.10,MacIntel,60,,,,,left,1.070255,4,0.282045,,,,,,,,,,left,0.08206,0,0,0,0,1,,,,,,,,
,,,,,,,,10,2021-04-29_12h36.38.064,premceCat2_ses-02_part-02_label-phase2,2020.2.10,MacIntel,60,,,,,,,,,0,115,115,62,1,stimuli/objects/pot01.jpg,left,old,206,,,,,,,,,,,,,,,
,,,,,,,,10,2021-04-29_12h36.38.064,premceCat2_ses-02_part-02_label-phase2,2020.2.10,MacIntel,60,,,,,left,2.30372,3,0.97768,,,,,,,,,,right,2.5778,0,0,0,0,1,,,,,,,,
,,,,,,,,10,2021-04-29_12h36.38.064,premceCat2_ses-02_part-02_label-phase2,2020.2.10,MacIntel,60,,,,,,,,,0,116,116,70,1,stimuli/objects/shovel01.jpg,right,new,214,,,,,,,,,,,,,,,
,,,,,,,,10,2021-04-29_12h36.38.064,premceCat2_ses-02_part-02_label-phase2,2020.2.10,MacIntel,60,,,,,left,1.38752,4,2.926175,,,,,,,,,,right,0.35862,0,0,0,0,1,,,,,,,,
,,,,,,,,10,2021-04-29_12h36.38.064,premceCat2_ses-02_part-02_label-phase2,2020.2.10,MacIntel,60,,,,,,,,,0,117,117,134,1,stimuli/objects/carantenna.jpg,left,old,278,,,,,,,,,,,,,,,
,,,,,,,,10,2021-04-29_12h36.38.064,premceCat2_ses-02_part-02_label-phase2,2020.2.10,MacIntel,60,,,,,left,0.75209,3,0.144285,,,,,,,,,,left,0.24399,0,0,0,0,1,,,,,,,,
,,,,,,,,10,2021-04-29_12h36.38.064,premceCat2_ses-02_part-02_label-phase2,2020.2.10,MacIntel,60,,,,,,,,,0,118,118,20,1,stimuli/objects/bikehelmet.jpg,left,old,164,,,,,,,,,,,,,,,
,,,,,,,,10,2021-04-29_12h36.38.064,premceCat2_ses-02_part-02_label-phase2,2020.2.10,MacIntel,60,,,,,left,1.00664,3,0.04543,,,,,,,,,,right,0.3776,0,0,0,0,1,,,,,,,,
,,,,,,,,10,2021-04-29_12h36.38.064,premceCat2_ses-02_part-02_label-phase2,2020.2.10,MacIntel,60,,,,,,,,,0,119,119,21,1,stimuli/objects/drill01b.jpg,left,old,165,,,,,,,,,,,,,,,
,,,,,,,,10,2021-04-29_12h36.38.064,premceCat2_ses-02_part-02_label-phase2,2020.2.10,MacIntel,60,,,,,left,0.625585,4,0.110455,,,,,,,,,,right,0.81253,0,0,0,0,1,,,,,,,,
,,,,,,,,10,2021-04-29_12h36.38.064,premceCat2_ses-02_part-02_label-phase2,2020.2.10,MacIntel,60,,,,,,,,,0,120,120,33,1,stimuli/objects/ipod.jpg,left,old,177,,,,,,,,,,,,,,,
,,,,,,,,10,2021-04-29_12h36.38.064,premceCat2_ses-02_part-02_label-phase2,2020.2.10,MacIntel,60,,,,,left,0.79947,4,0.2849,,,,,,,,,,left,0.077295,0,0,0,0,1,,,,,,,,
,,,,,,,,10,2021-04-29_12h36.38.064,premceCat2_ses-02_part-02_label-phase2,2020.2.10,MacIntel,60,,,,,,,,,0,121,121,141,1,stimuli/objects/travelmug.jpg,left,old,285,,,,,,,,,,,,,,,
,,,,,,,,10,2021-04-29_12h36.38.064,premceCat2_ses-02_part-02_label-phase2,2020.2.10,MacIntel,60,,,,,right,2.323105,2,1.11184,0,122,122,68,1,stimuli/objects/ladle02a.jpg,right,new,212,,,,,,,,,,,,,,,
,,,,,,,,10,2021-04-29_12h36.38.064,premceCat2_ses-02_part-02_label-phase2,2020.2.10,MacIntel,60,,,,,left,1.305555,4,0.09564,,,,,,,,,,left,0.7203,0,0,0,0,1,,,,,,,,
,,,,,,,,10,2021-04-29_12h36.38.064,premceCat2_ses-02_part-02_label-phase2,2020.2.10,MacIntel,60,,,,,,,,,0,123,123,25,1,stimuli/objects/shotglass.jpg,left,old,169,,,,,,,,,,,,,,,
,,,,,,,,10,2021-04-29_12h36.38.064,premceCat2_ses-02_part-02_label-phase2,2020.2.10,MacIntel,60,,,,,right,1.49852,3,3.1081,0,124,124,133,1,stimuli/objects/birdie.jpg,right,new,277,,,,,,,,,,,,,,,
,,,,,,,,10,2021-04-29_12h36.38.064,premceCat2_ses-02_part-02_label-phase2,2020.2.10,MacIntel,60,,,,,right,1.85198,3,0.26139,0,125,125,98,1,stimuli/objects/cameracase01a.jpg,right,new,242,,,,,,,,,,,,,,,
,,,,,,,,10,2021-04-29_12h36.38.064,premceCat2_ses-02_part-02_label-phase2,2020.2.10,MacIntel,60,,,,,right,1.631765,2,0.093915,0,126,126,55,1,stimuli/objects/fonduefork01.jpg,right,new,199,,,,,,,,,,,,,,,
,,,,,,,,10,2021-04-29_12h36.38.064,premceCat2_ses-02_part-02_label-phase2,2020.2.10,MacIntel,60,,,,,right,1.08553,3,0.10844,0,127,127,1,1,stimuli/objects/crocodileclips.jpg,left,old,145,,,,,,,,,,,,,,,
,,,,,,,,10,2021-04-29_12h36.38.064,premceCat2_ses-02_part-02_label-phase2,2020.2.10,MacIntel,60,,,,,right,1.252415,3,0.09569,0,128,128,107,1,stimuli/objects/dolly01.jpg,right,new,251,,,,,,,,,,,,,,,
,,,,,,,,10,2021-04-29_12h36.38.064,premceCat2_ses-02_part-02_label-phase2,2020.2.10,MacIntel,60,,,,,right,1.271415,3,0.398015,0,129,129,4,1,stimuli/objects/cassettetape01a.jpg,right,new,148,,,,,,,,,,,,,,,
,,,,,,,,10,2021-04-29_12h36.38.064,premceCat2_ses-02_part-02_label-phase2,2020.2.10,MacIntel,60,,,,,left,1.03862,4,0.06029,,,,,,,,,,right,0.095605,0,0,0,0,1,,,,,,,,
,,,,,,,,10,2021-04-29_12h36.38.064,premceCat2_ses-02_part-02_label-phase2,2020.2.10,MacIntel,60,,,,,,,,,0,130,130,84,1,stimuli/objects/patioumbrella.jpg,left,old,228,,,,,,,,,,,,,,,
,,,,,,,,10,2021-04-29_12h36.38.064,premceCat2_ses-02_part-02_label-phase2,2020.2.10,MacIntel,60,,,,,right,1.5828,4,0.278445,0,131,131,101,1,stimuli/objects/lifejacket.jpg,right,new,245,,,,,,,,,,,,,,,
,,,,,,,,10,2021-04-29_12h36.38.064,premceCat2_ses-02_part-02_label-phase2,2020.2.10,MacIntel,60,,,,,right,1.63209,2,0.13247,0,132,132,135,1,stimuli/objects/mortarandpestle.jpg,right,new,279,,,,,,,,,,,,,,,
,,,,,,,,10,2021-04-29_12h36.38.064,premceCat2_ses-02_part-02_label-phase2,2020.2.10,MacIntel,60,,,,,right,0.7905,2,0.14518,0,133,133,142,1,stimuli/objects/needlenosepliers01.jpg,right,new,286,,,,,,,,,,,,,,,
,,,,,,,,10,2021-04-29_12h36.38.064,premceCat2_ses-02_part-02_label-phase2,2020.2.10,MacIntel,60,,,,,right,0.818175,3,0.27534,0,134,134,66,1,stimuli/objects/heatpump.jpg,right,new,210,,,,,,,,,,,,,,,
,,,,,,,,10,2021-04-29_12h36.38.064,premceCat2_ses-02_part-02_label-phase2,2020.2.10,MacIntel,60,,,,,left,0.770625,4,0.22593,,,,,,,,,,left,0.243675,0,0,0,0,1,,,,,,,,
,,,,,,,,10,2021-04-29_12h36.38.064,premceCat2_ses-02_part-02_label-phase2,2020.2.10,MacIntel,60,,,,,,,,,0,135,135,110,1,stimuli/objects/skiboot01a.jpg,left,old,254,,,,,,,,,,,,,,,
,,,,,,,,10,2021-04-29_12h36.38.064,premceCat2_ses-02_part-02_label-phase2,2020.2.10,MacIntel,60,,,,,right,0.83484,4,0.11073,0,136,136,127,1,stimuli/objects/skigoggles01.jpg,right,new,271,,,,,,,,,,,,,,,
,,,,,,,,10,2021-04-29_12h36.38.064,premceCat2_ses-02_part-02_label-phase2,2020.2.10,MacIntel,60,,,,,right,2.32048,2,1.3968,0,137,137,42,1,stimuli/objects/tennisracket.jpg,right,new,186,,,,,,,,,,,,,,,
,,,,,,,,10,2021-04-29_12h36.38.064,premceCat2_ses-02_part-02_label-phase2,2020.2.10,MacIntel,60,,,,,right,0.872485,2,0.148185,0,138,138,102,1,stimuli/objects/beachumbrella01.jpg,right,new,246,,,,,,,,,,,,,,,
,,,,,,,,10,2021-04-29_12h36.38.064,premceCat2_ses-02_part-02_label-phase2,2020.2.10,MacIntel,60,,,,,right,0.993555,2,0.21141,0,139,139,122,1,stimuli/objects/hockeystick.jpg,right,new,266,,,,,,,,,,,,,,,
,,,,,,,,10,2021-04-29_12h36.38.064,premceCat2_ses-02_part-02_label-phase2,2020.2.10,MacIntel,60,,,,,right,1.07655,1,1.009755,0,140,140,80,1,stimuli/objects/barbecue03.jpg,right,new,224,,,,,,,,,,,,,,,
,,,,,,,,10,2021-04-29_12h36.38.064,premceCat2_ses-02_part-02_label-phase2,2020.2.10,MacIntel,60,,,,,right,0.791855,3,0.444815,0,141,141,26,1,stimuli/objects/flashlight02b.jpg,right,new,170,,,,,,,,,,,,,,,
,,,,,,,,10,2021-04-29_12h36.38.064,premceCat2_ses-02_part-02_label-phase2,2020.2.10,MacIntel,60,,,,,right,0.80922,3,0.412875,0,142,142,41,1,stimuli/objects/flask.jpg,right,new,185,,,,,,,,,,,,,,,
,,,,,,,,10,2021-04-29_12h36.38.064,premceCat2_ses-02_part-02_label-phase2,2020.2.10,MacIntel,60,,,,,,,,,,,,,,,,,,,,,,,,,space,5.659865,0,1,1,1,1,condition_files/ImagesforRecog3_2.csv
