instructions_loop.thisRepN,instructions_loop.thisTrialN,instructions_loop.thisN,instructions_loop.thisIndex,instructions_loop.ran,text1,text2,text3,participant,date,expName,psychopyVersion,OS,frameRate,key_resp_2.keys,key_resp_2.rt,key_resp_3.keys,key_resp_3.rt,recog_resp.keys,recog_resp.rt,conf_resp.keys,conf_resp.rt,resp_assoc.keys,resp_assoc.rt,assoc_loop.thisRepN,assoc_loop.thisTrialN,assoc_loop.thisN,assoc_loop.thisIndex,assoc_loop.ran,recog_loop.thisRepN,recog_loop.thisTrialN,recog_loop.thisN,recog_loop.thisIndex,recog_loop.ran,images,corr_ans,type,order,key_resp_break.keys,key_resp_break.rt,list_loop.thisRepN,list_loop.thisTrialN,list_loop.thisN,list_loop.thisIndex,list_loop.ran,recog_list
0,0,0,0,1,Welcome to the last phase of this experiment!,.,Please press the space bar to continue,11,2021-05-02_19h11.58.075,premceCat2_ses-02_part-02_label-phase2,2020.2.10,MacIntel,60,,,,,,,,,,,,,,,,,,,,,,,,,,,,,,,,
0,1,1,1,1,.,"In this phase, you will see some objects. 

For each object, you should indicate whether you have seen it before during the experiment.

Press LEFT ARROW for YES
Press RIGHT ARROW for NO

",Please press the space bar to continue ,11,2021-05-02_19h11.58.075,premceCat2_ses-02_part-02_label-phase2,2020.2.10,MacIntel,60,,,,,,,,,,,,,,,,,,,,,,,,,,,,,,,,
0,2,2,2,1,.,"After that, you will be asked how confident you are of your choice.

Please rate the confidence in your choice with the numbers from 1 to 4 of your keyboard. 

The numbers correspond to:

1 = Very unsure
2 = Unsure
3 = Sure
4 = Very Sure",Please press the space bar to continue,11,2021-05-02_19h11.58.075,premceCat2_ses-02_part-02_label-phase2,2020.2.10,MacIntel,60,,,,,,,,,,,,,,,,,,,,,,,,,,,,,,,,
,,,,,,,,11,2021-05-02_19h11.58.075,premceCat2_ses-02_part-02_label-phase2,2020.2.10,MacIntel,60,space,23.26394,space,13.03143,left,1.625885,4,3.16067,left,3.34858,0,0,0,0,1,,,,,,,,,,,,,,,,,
,,,,,,,,11,2021-05-02_19h11.58.075,premceCat2_ses-02_part-02_label-phase2,2020.2.10,MacIntel,60,,,,,,,,,,,,,,,,0,0,0,120,1,stimuli/objects/pot01.jpg,left,old,121,,,,,,,,
,,,,,,,,11,2021-05-02_19h11.58.075,premceCat2_ses-02_part-02_label-phase2,2020.2.10,MacIntel,60,,,,,left,1.519225,4,0.348605,right,2.19963,0,0,0,0,1,,,,,,,,,,,,,,,,,
,,,,,,,,11,2021-05-02_19h11.58.075,premceCat2_ses-02_part-02_label-phase2,2020.2.10,MacIntel,60,,,,,,,,,,,,,,,,0,1,1,47,1,stimuli/objects/hoe.jpg,left,old,48,,,,,,,,
,,,,,,,,11,2021-05-02_19h11.58.075,premceCat2_ses-02_part-02_label-phase2,2020.2.10,MacIntel,60,,,,,left,2.745495,2,1.15061,right,1.65755,0,0,0,0,1,,,,,,,,,,,,,,,,,
,,,,,,,,11,2021-05-02_19h11.58.075,premceCat2_ses-02_part-02_label-phase2,2020.2.10,MacIntel,60,,,,,,,,,,,,,,,,0,2,2,121,1,stimuli/objects/ceilingspeaker.jpg,right,new,122,,,,,,,,
,,,,,,,,11,2021-05-02_19h11.58.075,premceCat2_ses-02_part-02_label-phase2,2020.2.10,MacIntel,60,,,,,left,2.48755,4,2.24167,right,0.60999,0,0,0,0,1,,,,,,,,,,,,,,,,,
,,,,,,,,11,2021-05-02_19h11.58.075,premceCat2_ses-02_part-02_label-phase2,2020.2.10,MacIntel,60,,,,,,,,,,,,,,,,0,3,3,138,1,stimuli/objects/taperecorder.jpg,right,new,139,,,,,,,,
,,,,,,,,11,2021-05-02_19h11.58.075,premceCat2_ses-02_part-02_label-phase2,2020.2.10,MacIntel,60,,,,,left,2.396405,4,1.106945,right,0.43505,0,0,0,0,1,,,,,,,,,,,,,,,,,
,,,,,,,,11,2021-05-02_19h11.58.075,premceCat2_ses-02_part-02_label-phase2,2020.2.10,MacIntel,60,,,,,,,,,,,,,,,,0,4,4,61,1,stimuli/objects/metalbrush.jpg,left,old,62,,,,,,,,
,,,,,,,,11,2021-05-02_19h11.58.075,premceCat2_ses-02_part-02_label-phase2,2020.2.10,MacIntel,60,,,,,left,1.811585,4,1.93749,right,0.50487,0,0,0,0,1,,,,,,,,,,,,,,,,,
,,,,,,,,11,2021-05-02_19h11.58.075,premceCat2_ses-02_part-02_label-phase2,2020.2.10,MacIntel,60,,,,,,,,,,,,,,,,0,5,5,77,1,stimuli/objects/headphones02b.jpg,left,old,78,,,,,,,,
,,,,,,,,11,2021-05-02_19h11.58.075,premceCat2_ses-02_part-02_label-phase2,2020.2.10,MacIntel,60,,,,,left,1.50834,4,1.1386,right,0.48489,0,0,0,0,1,,,,,,,,,,,,,,,,,
,,,,,,,,11,2021-05-02_19h11.58.075,premceCat2_ses-02_part-02_label-phase2,2020.2.10,MacIntel,60,,,,,,,,,,,,,,,,0,6,6,69,1,stimuli/objects/atm.jpg,left,old,70,,,,,,,,
,,,,,,,,11,2021-05-02_19h11.58.075,premceCat2_ses-02_part-02_label-phase2,2020.2.10,MacIntel,60,,,,,left,2.64219,2,0.734535,right,1.625845,0,0,0,0,1,,,,,,,,,,,,,,,,,
,,,,,,,,11,2021-05-02_19h11.58.075,premceCat2_ses-02_part-02_label-phase2,2020.2.10,MacIntel,60,,,,,,,,,,,,,,,,0,7,7,71,1,stimuli/objects/faxmachine.jpg,right,new,72,,,,,,,,
,,,,,,,,11,2021-05-02_19h11.58.075,premceCat2_ses-02_part-02_label-phase2,2020.2.10,MacIntel,60,,,,,left,1.544585,4,0.904625,left,0.384515,0,0,0,0,1,,,,,,,,,,,,,,,,,
,,,,,,,,11,2021-05-02_19h11.58.075,premceCat2_ses-02_part-02_label-phase2,2020.2.10,MacIntel,60,,,,,,,,,,,,,,,,0,8,8,17,1,stimuli/objects/exercisebench.jpg,right,new,18,,,,,,,,
,,,,,,,,11,2021-05-02_19h11.58.075,premceCat2_ses-02_part-02_label-phase2,2020.2.10,MacIntel,60,,,,,right,2.99652,2,1.480515,,,,,,,,0,9,9,26,1,stimuli/objects/boogieboard.jpg,right,new,27,,,,,,,,
,,,,,,,,11,2021-05-02_19h11.58.075,premceCat2_ses-02_part-02_label-phase2,2020.2.10,MacIntel,60,,,,,right,1.2689,2,0.42748,,,,,,,,0,10,10,86,1,stimuli/objects/toasteroven.jpg,right,new,87,,,,,,,,
,,,,,,,,11,2021-05-02_19h11.58.075,premceCat2_ses-02_part-02_label-phase2,2020.2.10,MacIntel,60,,,,,right,2.795385,2,0.425705,,,,,,,,0,11,11,136,1,stimuli/objects/battery02b.jpg,right,new,137,,,,,,,,
,,,,,,,,11,2021-05-02_19h11.58.075,premceCat2_ses-02_part-02_label-phase2,2020.2.10,MacIntel,60,,,,,left,1.134695,2,1.072165,right,0.75576,0,0,0,0,1,,,,,,,,,,,,,,,,,
,,,,,,,,11,2021-05-02_19h11.58.075,premceCat2_ses-02_part-02_label-phase2,2020.2.10,MacIntel,60,,,,,,,,,,,,,,,,0,12,12,57,1,stimuli/objects/audiocablesplitter.jpg,right,new,58,,,,,,,,
,,,,,,,,11,2021-05-02_19h11.58.075,premceCat2_ses-02_part-02_label-phase2,2020.2.10,MacIntel,60,,,,,left,1.183475,4,0.972655,right,0.33021,0,0,0,0,1,,,,,,,,,,,,,,,,,
,,,,,,,,11,2021-05-02_19h11.58.075,premceCat2_ses-02_part-02_label-phase2,2020.2.10,MacIntel,60,,,,,,,,,,,,,,,,0,13,13,35,1,stimuli/objects/crocodileclips.jpg,left,old,36,,,,,,,,
,,,,,,,,11,2021-05-02_19h11.58.075,premceCat2_ses-02_part-02_label-phase2,2020.2.10,MacIntel,60,,,,,left,1.571365,4,0.83695,right,0.407895,0,0,0,0,1,,,,,,,,,,,,,,,,,
,,,,,,,,11,2021-05-02_19h11.58.075,premceCat2_ses-02_part-02_label-phase2,2020.2.10,MacIntel,60,,,,,,,,,,,,,,,,0,14,14,104,1,stimuli/objects/carantenna.jpg,left,old,105,,,,,,,,
,,,,,,,,11,2021-05-02_19h11.58.075,premceCat2_ses-02_part-02_label-phase2,2020.2.10,MacIntel,60,,,,,right,1.814735,2,0.570195,,,,,,,,0,15,15,46,1,stimuli/objects/walkman.jpg,right,new,47,,,,,,,,
,,,,,,,,11,2021-05-02_19h11.58.075,premceCat2_ses-02_part-02_label-phase2,2020.2.10,MacIntel,60,,,,,left,0.91959,4,3.272055,left,0.77526,0,0,0,0,1,,,,,,,,,,,,,,,,,
,,,,,,,,11,2021-05-02_19h11.58.075,premceCat2_ses-02_part-02_label-phase2,2020.2.10,MacIntel,60,,,,,,,,,,,,,,,,0,16,16,44,1,stimuli/objects/pliers02b.jpg,left,old,45,,,,,,,,
,,,,,,,,11,2021-05-02_19h11.58.075,premceCat2_ses-02_part-02_label-phase2,2020.2.10,MacIntel,60,,,,,right,1.29715,2,0.499075,,,,,,,,0,17,17,21,1,stimuli/objects/paintbrush01.jpg,right,new,22,,,,,,,,
,,,,,,,,11,2021-05-02_19h11.58.075,premceCat2_ses-02_part-02_label-phase2,2020.2.10,MacIntel,60,,,,,right,0.96846,3,0.66238,,,,,,,,0,18,18,139,1,stimuli/objects/frisbee.jpg,right,new,140,,,,,,,,
,,,,,,,,11,2021-05-02_19h11.58.075,premceCat2_ses-02_part-02_label-phase2,2020.2.10,MacIntel,60,,,,,left,1.0471,4,1.08565,right,0.468845,0,0,0,0,1,,,,,,,,,,,,,,,,,
,,,,,,,,11,2021-05-02_19h11.58.075,premceCat2_ses-02_part-02_label-phase2,2020.2.10,MacIntel,60,,,,,,,,,,,,,,,,0,19,19,0,1,stimuli/objects/ethernetcable02.jpg,left,old,1,,,,,,,,
,,,,,,,,11,2021-05-02_19h11.58.075,premceCat2_ses-02_part-02_label-phase2,2020.2.10,MacIntel,60,,,,,left,2.233125,3,0.554205,right,0.346325,0,0,0,0,1,,,,,,,,,,,,,,,,,
,,,,,,,,11,2021-05-02_19h11.58.075,premceCat2_ses-02_part-02_label-phase2,2020.2.10,MacIntel,60,,,,,,,,,,,,,,,,0,20,20,30,1,stimuli/objects/printer02.jpg,right,new,31,,,,,,,,
,,,,,,,,11,2021-05-02_19h11.58.075,premceCat2_ses-02_part-02_label-phase2,2020.2.10,MacIntel,60,,,,,left,0.98749,2,0.485145,right,0.665625,0,0,0,0,1,,,,,,,,,,,,,,,,,
,,,,,,,,11,2021-05-02_19h11.58.075,premceCat2_ses-02_part-02_label-phase2,2020.2.10,MacIntel,60,,,,,,,,,,,,,,,,0,21,21,113,1,stimuli/objects/powercable.jpg,right,new,114,,,,,,,,
,,,,,,,,11,2021-05-02_19h11.58.075,premceCat2_ses-02_part-02_label-phase2,2020.2.10,MacIntel,60,,,,,left,0.941195,3,1.053615,left,0.8025,0,0,0,0,1,,,,,,,,,,,,,,,,,
,,,,,,,,11,2021-05-02_19h11.58.075,premceCat2_ses-02_part-02_label-phase2,2020.2.10,MacIntel,60,,,,,,,,,,,,,,,,0,22,22,97,1,stimuli/objects/coffeemachine.jpg,left,old,98,,,,,,,,
,,,,,,,,11,2021-05-02_19h11.58.075,premceCat2_ses-02_part-02_label-phase2,2020.2.10,MacIntel,60,,,,,left,0.99703,3,0.674295,right,0.38647,0,0,0,0,1,,,,,,,,,,,,,,,,,
,,,,,,,,11,2021-05-02_19h11.58.075,premceCat2_ses-02_part-02_label-phase2,2020.2.10,MacIntel,60,,,,,,,,,,,,,,,,0,23,23,20,1,stimuli/objects/laptop01a.jpg,right,new,21,,,,,,,,
,,,,,,,,11,2021-05-02_19h11.58.075,premceCat2_ses-02_part-02_label-phase2,2020.2.10,MacIntel,60,,,,,left,1.2109,2,1.22239,right,0.73163,0,0,0,0,1,,,,,,,,,,,,,,,,,
,,,,,,,,11,2021-05-02_19h11.58.075,premceCat2_ses-02_part-02_label-phase2,2020.2.10,MacIntel,60,,,,,,,,,,,,,,,,0,24,24,16,1,stimuli/objects/stubbywrench01a.jpg,left,old,17,,,,,,,,
,,,,,,,,11,2021-05-02_19h11.58.075,premceCat2_ses-02_part-02_label-phase2,2020.2.10,MacIntel,60,,,,,left,1.006255,4,0.862395,right,0.56115,0,0,0,0,1,,,,,,,,,,,,,,,,,
,,,,,,,,11,2021-05-02_19h11.58.075,premceCat2_ses-02_part-02_label-phase2,2020.2.10,MacIntel,60,,,,,,,,,,,,,,,,0,25,25,102,1,stimuli/objects/propanetank01.jpg,left,old,103,,,,,,,,
,,,,,,,,11,2021-05-02_19h11.58.075,premceCat2_ses-02_part-02_label-phase2,2020.2.10,MacIntel,60,,,,,left,1.293145,4,0.786495,left,0.40311,0,0,0,0,1,,,,,,,,,,,,,,,,,
,,,,,,,,11,2021-05-02_19h11.58.075,premceCat2_ses-02_part-02_label-phase2,2020.2.10,MacIntel,60,,,,,,,,,,,,,,,,0,26,26,15,1,stimuli/objects/watercooler.jpg,left,old,16,,,,,,,,
,,,,,,,,11,2021-05-02_19h11.58.075,premceCat2_ses-02_part-02_label-phase2,2020.2.10,MacIntel,60,,,,,left,2.890335,3,0.387045,right,2.00552,0,0,0,0,1,,,,,,,,,,,,,,,,,
,,,,,,,,11,2021-05-02_19h11.58.075,premceCat2_ses-02_part-02_label-phase2,2020.2.10,MacIntel,60,,,,,,,,,,,,,,,,0,27,27,133,1,stimuli/objects/icebucket.jpg,right,new,134,,,,,,,,
,,,,,,,,11,2021-05-02_19h11.58.075,premceCat2_ses-02_part-02_label-phase2,2020.2.10,MacIntel,60,,,,,right,3.33475,3,0.454235,,,,,,,,0,28,28,75,1,stimuli/objects/stepladder.jpg,right,new,76,,,,,,,,
,,,,,,,,11,2021-05-02_19h11.58.075,premceCat2_ses-02_part-02_label-phase2,2020.2.10,MacIntel,60,,,,,right,1.661355,2,0.503965,,,,,,,,0,29,29,29,1,stimuli/objects/computerkeyboard02.jpg,left,old,30,,,,,,,,
,,,,,,,,11,2021-05-02_19h11.58.075,premceCat2_ses-02_part-02_label-phase2,2020.2.10,MacIntel,60,,,,,right,1.103475,2,0.355715,,,,,,,,0,30,30,4,1,stimuli/objects/microphone01.jpg,right,new,5,,,,,,,,
,,,,,,,,11,2021-05-02_19h11.58.075,premceCat2_ses-02_part-02_label-phase2,2020.2.10,MacIntel,60,,,,,right,1.275505,2,0.27635,,,,,,,,0,31,31,93,1,stimuli/objects/icepack.jpg,right,new,94,,,,,,,,
,,,,,,,,11,2021-05-02_19h11.58.075,premceCat2_ses-02_part-02_label-phase2,2020.2.10,MacIntel,60,,,,,right,0.84322,2,0.32712,,,,,,,,0,32,32,110,1,stimuli/objects/lock03a.jpg,right,new,111,,,,,,,,
,,,,,,,,11,2021-05-02_19h11.58.075,premceCat2_ses-02_part-02_label-phase2,2020.2.10,MacIntel,60,,,,,left,1.510695,4,1.522605,left,0.535915,0,0,0,0,1,,,,,,,,,,,,,,,,,
,,,,,,,,11,2021-05-02_19h11.58.075,premceCat2_ses-02_part-02_label-phase2,2020.2.10,MacIntel,60,,,,,,,,,,,,,,,,0,33,33,137,1,stimuli/objects/exercisebike.jpg,left,old,138,,,,,,,,
,,,,,,,,11,2021-05-02_19h11.58.075,premceCat2_ses-02_part-02_label-phase2,2020.2.10,MacIntel,60,,,,,left,1.426365,2,0.602595,left,0.421615,0,0,0,0,1,,,,,,,,,,,,,,,,,
,,,,,,,,11,2021-05-02_19h11.58.075,premceCat2_ses-02_part-02_label-phase2,2020.2.10,MacIntel,60,,,,,,,,,,,,,,,,0,34,34,119,1,stimuli/objects/tongs01b.jpg,right,new,120,,,,,,,,
,,,,,,,,11,2021-05-02_19h11.58.075,premceCat2_ses-02_part-02_label-phase2,2020.2.10,MacIntel,60,,,,,left,0.949205,3,1.025435,left,0.49912,0,0,0,0,1,,,,,,,,,,,,,,,,,
,,,,,,,,11,2021-05-02_19h11.58.075,premceCat2_ses-02_part-02_label-phase2,2020.2.10,MacIntel,60,,,,,,,,,,,,,,,,0,35,35,34,1,stimuli/objects/hockeygoaliemask.jpg,left,old,35,,,,,,,,
,,,,,,,,11,2021-05-02_19h11.58.075,premceCat2_ses-02_part-02_label-phase2,2020.2.10,MacIntel,60,,,,,right,1.367235,2,0.32083,,,,,,,,0,36,36,72,1,stimuli/objects/cclamp.jpg,right,new,73,,,,,,,,
,,,,,,,,11,2021-05-02_19h11.58.075,premceCat2_ses-02_part-02_label-phase2,2020.2.10,MacIntel,60,,,,,right,0.914795,2,0.31051,,,,,,,,0,37,37,53,1,stimuli/objects/binoculars01b.jpg,right,new,54,,,,,,,,
,,,,,,,,11,2021-05-02_19h11.58.075,premceCat2_ses-02_part-02_label-phase2,2020.2.10,MacIntel,60,,,,,left,1.95462,2,0.698475,left,0.74279,0,0,0,0,1,,,,,,,,,,,,,,,,,
,,,,,,,,11,2021-05-02_19h11.58.075,premceCat2_ses-02_part-02_label-phase2,2020.2.10,MacIntel,60,,,,,,,,,,,,,,,,0,38,38,124,1,stimuli/objects/reflector.jpg,left,old,125,,,,,,,,
,,,,,,,,11,2021-05-02_19h11.58.075,premceCat2_ses-02_part-02_label-phase2,2020.2.10,MacIntel,60,,,,,right,1.007265,4,0.80041,,,,,,,,0,39,39,80,1,stimuli/objects/snowman.jpg,right,new,81,,,,,,,,
,,,,,,,,11,2021-05-02_19h11.58.075,premceCat2_ses-02_part-02_label-phase2,2020.2.10,MacIntel,60,,,,,right,2.774935,4,0.47538,,,,,,,,0,40,40,19,1,stimuli/objects/peppermill02b.jpg,right,new,20,,,,,,,,
,,,,,,,,11,2021-05-02_19h11.58.075,premceCat2_ses-02_part-02_label-phase2,2020.2.10,MacIntel,60,,,,,right,1.277015,4,0.493735,,,,,,,,0,41,41,18,1,stimuli/objects/cashregister01.jpg,right,new,19,,,,,,,,
,,,,,,,,11,2021-05-02_19h11.58.075,premceCat2_ses-02_part-02_label-phase2,2020.2.10,MacIntel,60,,,,,right,1.191835,2,0.38107,,,,,,,,0,42,42,83,1,stimuli/objects/kitchenscale01a.jpg,right,new,84,,,,,,,,
,,,,,,,,11,2021-05-02_19h11.58.075,premceCat2_ses-02_part-02_label-phase2,2020.2.10,MacIntel,60,,,,,left,1.700705,4,1.52534,right,0.584075,0,0,0,0,1,,,,,,,,,,,,,,,,,
,,,,,,,,11,2021-05-02_19h11.58.075,premceCat2_ses-02_part-02_label-phase2,2020.2.10,MacIntel,60,,,,,,,,,,,,,,,,0,43,43,132,1,stimuli/objects/djmixer02.jpg,left,old,133,,,,,,,,
,,,,,,,,11,2021-05-02_19h11.58.075,premceCat2_ses-02_part-02_label-phase2,2020.2.10,MacIntel,60,,,,,left,1.142885,3,0.59043,left,1.132825,0,0,0,0,1,,,,,,,,,,,,,,,,,
,,,,,,,,11,2021-05-02_19h11.58.075,premceCat2_ses-02_part-02_label-phase2,2020.2.10,MacIntel,60,,,,,,,,,,,,,,,,0,44,44,40,1,stimuli/objects/wateringcan.jpg,left,old,41,,,,,,,,
,,,,,,,,11,2021-05-02_19h11.58.075,premceCat2_ses-02_part-02_label-phase2,2020.2.10,MacIntel,60,,,,,left,1.17988,3,0.73495,right,0.7108,0,0,0,0,1,,,,,,,,,,,,,,,,,
,,,,,,,,11,2021-05-02_19h11.58.075,premceCat2_ses-02_part-02_label-phase2,2020.2.10,MacIntel,60,,,,,,,,,,,,,,,,0,45,45,117,1,stimuli/objects/videotape01b.jpg,right,new,118,,,,,,,,
,,,,,,,,11,2021-05-02_19h11.58.075,premceCat2_ses-02_part-02_label-phase2,2020.2.10,MacIntel,60,,,,,left,1.796175,4,0.63661,left,0.3327,0,0,0,0,1,,,,,,,,,,,,,,,,,
,,,,,,,,11,2021-05-02_19h11.58.075,premceCat2_ses-02_part-02_label-phase2,2020.2.10,MacIntel,60,,,,,,,,,,,,,,,,0,46,46,129,1,stimuli/objects/cleaver01.jpg,left,old,130,,,,,,,,
,,,,,,,,11,2021-05-02_19h11.58.075,premceCat2_ses-02_part-02_label-phase2,2020.2.10,MacIntel,60,,,,,left,1.154945,4,0.553225,left,0.30124,0,0,0,0,1,,,,,,,,,,,,,,,,,
,,,,,,,,11,2021-05-02_19h11.58.075,premceCat2_ses-02_part-02_label-phase2,2020.2.10,MacIntel,60,,,,,,,,,,,,,,,,0,47,47,56,1,stimuli/objects/thermos.jpg,left,old,57,,,,,,,,
,,,,,,,,11,2021-05-02_19h11.58.075,premceCat2_ses-02_part-02_label-phase2,2020.2.10,MacIntel,60,,,,,right,3.989915,2,0.73793,,,,,,,,0,48,48,67,1,stimuli/objects/bikelock.jpg,left,old,68,,,,,,,,
,,,,,,,,11,2021-05-02_19h11.58.075,premceCat2_ses-02_part-02_label-phase2,2020.2.10,MacIntel,60,,,,,right,1.44707,2,0.31227,,,,,,,,0,49,49,68,1,stimuli/objects/leafblower01.jpg,right,new,69,,,,,,,,
,,,,,,,,11,2021-05-02_19h11.58.075,premceCat2_ses-02_part-02_label-phase2,2020.2.10,MacIntel,60,,,,,right,0.97977,2,1.44799,,,,,,,,0,50,50,37,1,stimuli/objects/bungeecord02.jpg,left,old,38,,,,,,,,
,,,,,,,,11,2021-05-02_19h11.58.075,premceCat2_ses-02_part-02_label-phase2,2020.2.10,MacIntel,60,,,,,right,1.06172,3,0.496185,,,,,,,,0,51,51,94,1,stimuli/objects/electricmixer.jpg,right,new,95,,,,,,,,
,,,,,,,,11,2021-05-02_19h11.58.075,premceCat2_ses-02_part-02_label-phase2,2020.2.10,MacIntel,60,,,,,left,0.930955,4,0.955755,left,0.741635,0,0,0,0,1,,,,,,,,,,,,,,,,,
,,,,,,,,11,2021-05-02_19h11.58.075,premceCat2_ses-02_part-02_label-phase2,2020.2.10,MacIntel,60,,,,,,,,,,,,,,,,0,52,52,70,1,stimuli/objects/martiniglass01b.jpg,left,old,71,,,,,,,,
,,,,,,,,11,2021-05-02_19h11.58.075,premceCat2_ses-02_part-02_label-phase2,2020.2.10,MacIntel,60,,,,,left,1.466405,4,0.729845,right,0.957745,0,0,0,0,1,,,,,,,,,,,,,,,,,
,,,,,,,,11,2021-05-02_19h11.58.075,premceCat2_ses-02_part-02_label-phase2,2020.2.10,MacIntel,60,,,,,,,,,,,,,,,,0,53,53,98,1,stimuli/objects/handgripper.jpg,left,old,99,,,,,,,,
,,,,,,,,11,2021-05-02_19h11.58.075,premceCat2_ses-02_part-02_label-phase2,2020.2.10,MacIntel,60,,,,,left,1.55953,4,0.86003,right,0.34688,0,0,0,0,1,,,,,,,,,,,,,,,,,
,,,,,,,,11,2021-05-02_19h11.58.075,premceCat2_ses-02_part-02_label-phase2,2020.2.10,MacIntel,60,,,,,,,,,,,,,,,,0,54,54,50,1,stimuli/objects/chisel02b.jpg,right,new,51,,,,,,,,
,,,,,,,,11,2021-05-02_19h11.58.075,premceCat2_ses-02_part-02_label-phase2,2020.2.10,MacIntel,60,,,,,right,1.404325,2,0.372945,,,,,,,,0,55,55,134,1,stimuli/objects/screwdriver04b.jpg,right,new,135,,,,,,,,
,,,,,,,,11,2021-05-02_19h11.58.075,premceCat2_ses-02_part-02_label-phase2,2020.2.10,MacIntel,60,,,,,right,4.350035,1,0.677945,,,,,,,,0,56,56,8,1,stimuli/objects/basketballhoop01.jpg,right,new,9,,,,,,,,
,,,,,,,,11,2021-05-02_19h11.58.075,premceCat2_ses-02_part-02_label-phase2,2020.2.10,MacIntel,60,,,,,left,1.24636,4,0.726335,right,0.2711,0,0,0,0,1,,,,,,,,,,,,,,,,,
,,,,,,,,11,2021-05-02_19h11.58.075,premceCat2_ses-02_part-02_label-phase2,2020.2.10,MacIntel,60,,,,,,,,,,,,,,,,0,57,57,122,1,stimuli/objects/extensioncord.jpg,left,old,123,,,,,,,,
,,,,,,,,11,2021-05-02_19h11.58.075,premceCat2_ses-02_part-02_label-phase2,2020.2.10,MacIntel,60,,,,,left,1.070175,4,0.986615,left,0.389735,0,0,0,0,1,,,,,,,,,,,,,,,,,
,,,,,,,,11,2021-05-02_19h11.58.075,premceCat2_ses-02_part-02_label-phase2,2020.2.10,MacIntel,60,,,,,,,,,,,,,,,,0,58,58,42,1,stimuli/objects/snowshoe.jpg,right,new,43,,,,,,,,
,,,,,,,,11,2021-05-02_19h11.58.075,premceCat2_ses-02_part-02_label-phase2,2020.2.10,MacIntel,60,,,,,left,2.98243,4,0.870315,left,0.39855,0,0,0,0,1,,,,,,,,,,,,,,,,,
,,,,,,,,11,2021-05-02_19h11.58.075,premceCat2_ses-02_part-02_label-phase2,2020.2.10,MacIntel,60,,,,,,,,,,,,,,,,0,59,59,107,1,stimuli/objects/canister.jpg,left,old,108,,,,,,,,
,,,,,,,,11,2021-05-02_19h11.58.075,premceCat2_ses-02_part-02_label-phase2,2020.2.10,MacIntel,60,,,,,left,0.926035,4,0.80971,right,1.124365,0,0,0,0,1,,,,,,,,,,,,,,,,,
,,,,,,,,11,2021-05-02_19h11.58.075,premceCat2_ses-02_part-02_label-phase2,2020.2.10,MacIntel,60,,,,,,,,,,,,,,,,0,60,60,31,1,stimuli/objects/mallet01b.jpg,left,old,32,,,,,,,,
,,,,,,,,11,2021-05-02_19h11.58.075,premceCat2_ses-02_part-02_label-phase2,2020.2.10,MacIntel,60,,,,,right,2.309925,1,0.475085,,,,,,,,0,61,61,14,1,stimuli/objects/wheelbarrow01.jpg,left,old,15,,,,,,,,
,,,,,,,,11,2021-05-02_19h11.58.075,premceCat2_ses-02_part-02_label-phase2,2020.2.10,MacIntel,60,,,,,right,1.286315,3,0.277095,,,,,,,,0,62,62,118,1,stimuli/objects/sledgehammer.jpg,left,old,119,,,,,,,,
,,,,,,,,11,2021-05-02_19h11.58.075,premceCat2_ses-02_part-02_label-phase2,2020.2.10,MacIntel,60,,,,,right,1.157365,4,0.67793,,,,,,,,0,63,63,22,1,stimuli/objects/umbrella04.jpg,right,new,23,,,,,,,,
,,,,,,,,11,2021-05-02_19h11.58.075,premceCat2_ses-02_part-02_label-phase2,2020.2.10,MacIntel,60,,,,,right,1.327805,1,0.306815,,,,,,,,0,64,64,106,1,stimuli/objects/minifridge.jpg,right,new,107,,,,,,,,
,,,,,,,,11,2021-05-02_19h11.58.075,premceCat2_ses-02_part-02_label-phase2,2020.2.10,MacIntel,60,,,,,right,1.14725,2,0.332465,,,,,,,,0,65,65,112,1,stimuli/objects/gymnasticring.jpg,right,new,113,,,,,,,,
,,,,,,,,11,2021-05-02_19h11.58.075,premceCat2_ses-02_part-02_label-phase2,2020.2.10,MacIntel,60,,,,,left,1.410555,2,0.70904,left,1.01311,0,0,0,0,1,,,,,,,,,,,,,,,,,
,,,,,,,,11,2021-05-02_19h11.58.075,premceCat2_ses-02_part-02_label-phase2,2020.2.10,MacIntel,60,,,,,,,,,,,,,,,,0,66,66,39,1,stimuli/objects/sippycup.jpg,right,new,40,,,,,,,,
,,,,,,,,11,2021-05-02_19h11.58.075,premceCat2_ses-02_part-02_label-phase2,2020.2.10,MacIntel,60,,,,,left,1.274265,3,0.396325,right,3.677705,0,0,0,0,1,,,,,,,,,,,,,,,,,
,,,,,,,,11,2021-05-02_19h11.58.075,premceCat2_ses-02_part-02_label-phase2,2020.2.10,MacIntel,60,,,,,,,,,,,,,,,,0,67,67,64,1,stimuli/objects/knifesharpener.jpg,left,old,65,,,,,,,,
,,,,,,,,11,2021-05-02_19h11.58.075,premceCat2_ses-02_part-02_label-phase2,2020.2.10,MacIntel,60,,,,,left,2.44473,3,0.66995,left,0.438125,0,0,0,0,1,,,,,,,,,,,,,,,,,
,,,,,,,,11,2021-05-02_19h11.58.075,premceCat2_ses-02_part-02_label-phase2,2020.2.10,MacIntel,60,,,,,,,,,,,,,,,,0,68,68,48,1,stimuli/objects/breadknife.jpg,left,old,49,,,,,,,,
,,,,,,,,11,2021-05-02_19h11.58.075,premceCat2_ses-02_part-02_label-phase2,2020.2.10,MacIntel,60,,,,,right,4.584395,2,0.356215,,,,,,,,0,69,69,128,1,stimuli/objects/tripod01.jpg,right,new,129,,,,,,,,
,,,,,,,,11,2021-05-02_19h11.58.075,premceCat2_ses-02_part-02_label-phase2,2020.2.10,MacIntel,60,,,,,left,2.497155,1,1.295855,right,1.241945,0,0,0,0,1,,,,,,,,,,,,,,,,,
,,,,,,,,11,2021-05-02_19h11.58.075,premceCat2_ses-02_part-02_label-phase2,2020.2.10,MacIntel,60,,,,,,,,,,,,,,,,0,70,70,116,1,stimuli/objects/radio01.jpg,right,new,117,,,,,,,,
,,,,,,,,11,2021-05-02_19h11.58.075,premceCat2_ses-02_part-02_label-phase2,2020.2.10,MacIntel,60,,,,,left,1.527185,4,0.354315,right,0.314155,0,0,0,0,1,,,,,,,,,,,,,,,,,
,,,,,,,,11,2021-05-02_19h11.58.075,premceCat2_ses-02_part-02_label-phase2,2020.2.10,MacIntel,60,,,,,,,,,,,,,,,,0,71,71,84,1,stimuli/objects/hockeypuck.jpg,left,old,85,,,,,,,,
,,,,,,,,11,2021-05-02_19h11.58.075,premceCat2_ses-02_part-02_label-phase2,2020.2.10,MacIntel,60,,,,,left,1.10245,4,2.107935,right,0.394225,0,0,0,0,1,,,,,,,,,,,,,,,,,
,,,,,,,,11,2021-05-02_19h11.58.075,premceCat2_ses-02_part-02_label-phase2,2020.2.10,MacIntel,60,,,,,,,,,,,,,,,,0,72,72,10,1,stimuli/objects/dvdcase01.jpg,left,old,11,,,,,,,,
,,,,,,,,11,2021-05-02_19h11.58.075,premceCat2_ses-02_part-02_label-phase2,2020.2.10,MacIntel,60,,,,,left,1.540325,1,1.217615,right,3.23829,0,0,0,0,1,,,,,,,,,,,,,,,,,
,,,,,,,,11,2021-05-02_19h11.58.075,premceCat2_ses-02_part-02_label-phase2,2020.2.10,MacIntel,60,,,,,,,,,,,,,,,,0,73,73,109,1,stimuli/objects/winerack.jpg,right,new,110,,,,,,,,
,,,,,,,,11,2021-05-02_19h11.58.075,premceCat2_ses-02_part-02_label-phase2,2020.2.10,MacIntel,60,,,,,left,0.94274,4,0.7073,left,0.31974,0,0,0,0,1,,,,,,,,,,,,,,,,,
,,,,,,,,11,2021-05-02_19h11.58.075,premceCat2_ses-02_part-02_label-phase2,2020.2.10,MacIntel,60,,,,,,,,,,,,,,,,0,74,74,27,1,stimuli/objects/baseballglove.jpg,left,old,28,,,,,,,,
,,,,,,,,11,2021-05-02_19h11.58.075,premceCat2_ses-02_part-02_label-phase2,2020.2.10,MacIntel,60,,,,,left,3.85982,4,0.38598,right,1.66144,0,0,0,0,1,,,,,,,,,,,,,,,,,
,,,,,,,,11,2021-05-02_19h11.58.075,premceCat2_ses-02_part-02_label-phase2,2020.2.10,MacIntel,60,,,,,,,,,,,,,,,,0,75,75,82,1,stimuli/objects/snowbrush.jpg,right,new,83,,,,,,,,
,,,,,,,,11,2021-05-02_19h11.58.075,premceCat2_ses-02_part-02_label-phase2,2020.2.10,MacIntel,60,,,,,left,0.797205,4,0.458285,right,0.56549,0,0,0,0,1,,,,,,,,,,,,,,,,,
,,,,,,,,11,2021-05-02_19h11.58.075,premceCat2_ses-02_part-02_label-phase2,2020.2.10,MacIntel,60,,,,,,,,,,,,,,,,0,76,76,11,1,stimuli/objects/telephone01b.jpg,left,old,12,,,,,,,,
,,,,,,,,11,2021-05-02_19h11.58.075,premceCat2_ses-02_part-02_label-phase2,2020.2.10,MacIntel,60,,,,,left,1.80725,2,0.589675,right,0.5342,0,0,0,0,1,,,,,,,,,,,,,,,,,
,,,,,,,,11,2021-05-02_19h11.58.075,premceCat2_ses-02_part-02_label-phase2,2020.2.10,MacIntel,60,,,,,,,,,,,,,,,,0,77,77,105,1,stimuli/objects/videocamera01a.jpg,left,old,106,,,,,,,,
,,,,,,,,11,2021-05-02_19h11.58.075,premceCat2_ses-02_part-02_label-phase2,2020.2.10,MacIntel,60,,,,,right,1.15532,2,0.90768,,,,,,,,0,78,78,25,1,stimuli/objects/bowlingball.jpg,right,new,26,,,,,,,,
,,,,,,,,11,2021-05-02_19h11.58.075,premceCat2_ses-02_part-02_label-phase2,2020.2.10,MacIntel,60,,,,,left,1.25778,4,1.72394,right,0.305805,0,0,0,0,1,,,,,,,,,,,,,,,,,
,,,,,,,,11,2021-05-02_19h11.58.075,premceCat2_ses-02_part-02_label-phase2,2020.2.10,MacIntel,60,,,,,,,,,,,,,,,,0,79,79,65,1,stimuli/objects/squeegee01b.jpg,left,old,66,,,,,,,,
,,,,,,,,11,2021-05-02_19h11.58.075,premceCat2_ses-02_part-02_label-phase2,2020.2.10,MacIntel,60,,,,,left,0.991745,4,0.784785,right,0.00067,0,0,0,0,1,,,,,,,,,,,,,,,,,
,,,,,,,,11,2021-05-02_19h11.58.075,premceCat2_ses-02_part-02_label-phase2,2020.2.10,MacIntel,60,,,,,,,,,,,,,,,,0,80,80,5,1,stimuli/objects/fan.jpg,left,old,6,,,,,,,,
,,,,,,,,11,2021-05-02_19h11.58.075,premceCat2_ses-02_part-02_label-phase2,2020.2.10,MacIntel,60,,,,,left,1.00565,3,1.0498,left,0.757515,0,0,0,0,1,,,,,,,,,,,,,,,,,
,,,,,,,,11,2021-05-02_19h11.58.075,premceCat2_ses-02_part-02_label-phase2,2020.2.10,MacIntel,60,,,,,,,,,,,,,,,,0,81,81,43,1,stimuli/objects/punchingball.jpg,right,new,44,,,,,,,,
,,,,,,,,11,2021-05-02_19h11.58.075,premceCat2_ses-02_part-02_label-phase2,2020.2.10,MacIntel,60,,,,,right,6.043425,3,1.228505,,,,,,,,0,82,82,73,1,stimuli/objects/clock01a.jpg,right,new,74,,,,,,,,
,,,,,,,,11,2021-05-02_19h11.58.075,premceCat2_ses-02_part-02_label-phase2,2020.2.10,MacIntel,60,,,,,left,1.0114,4,1.037995,left,1.890445,0,0,0,0,1,,,,,,,,,,,,,,,,,
,,,,,,,,11,2021-05-02_19h11.58.075,premceCat2_ses-02_part-02_label-phase2,2020.2.10,MacIntel,60,,,,,,,,,,,,,,,,0,83,83,28,1,stimuli/objects/anchor.jpg,left,old,29,,,,,,,,
,,,,,,,,11,2021-05-02_19h11.58.075,premceCat2_ses-02_part-02_label-phase2,2020.2.10,MacIntel,60,,,,,left,1.09559,3,0.95847,left,0.817085,0,0,0,0,1,,,,,,,,,,,,,,,,,
,,,,,,,,11,2021-05-02_19h11.58.075,premceCat2_ses-02_part-02_label-phase2,2020.2.10,MacIntel,60,,,,,,,,,,,,,,,,0,84,84,33,1,stimuli/objects/microwave.jpg,right,new,34,,,,,,,,
,,,,,,,,11,2021-05-02_19h11.58.075,premceCat2_ses-02_part-02_label-phase2,2020.2.10,MacIntel,60,,,,,right,1.914095,1,1.5879,,,,,,,,0,85,85,13,1,stimuli/objects/bastingbrush.jpg,right,new,14,,,,,,,,
,,,,,,,,11,2021-05-02_19h11.58.075,premceCat2_ses-02_part-02_label-phase2,2020.2.10,MacIntel,60,,,,,right,1.108125,2,0.3718,,,,,,,,0,86,86,12,1,stimuli/objects/garlicpress02a.jpg,right,new,13,,,,,,,,
,,,,,,,,11,2021-05-02_19h11.58.075,premceCat2_ses-02_part-02_label-phase2,2020.2.10,MacIntel,60,,,,,right,1.461825,1,0.70967,,,,,,,,0,87,87,81,1,stimuli/objects/avcable.jpg,right,new,82,,,,,,,,
,,,,,,,,11,2021-05-02_19h11.58.075,premceCat2_ses-02_part-02_label-phase2,2020.2.10,MacIntel,60,,,,,right,1.549485,1,0.371585,,,,,,,,0,88,88,76,1,stimuli/objects/megaphone.jpg,right,new,77,,,,,,,,
,,,,,,,,11,2021-05-02_19h11.58.075,premceCat2_ses-02_part-02_label-phase2,2020.2.10,MacIntel,60,,,,,left,0.88507,4,0.943245,right,0.356435,0,0,0,0,1,,,,,,,,,,,,,,,,,
,,,,,,,,11,2021-05-02_19h11.58.075,premceCat2_ses-02_part-02_label-phase2,2020.2.10,MacIntel,60,,,,,,,,,,,,,,,,0,89,89,2,1,stimuli/objects/filmnegative.jpg,left,old,3,,,,,,,,
,,,,,,,,11,2021-05-02_19h11.58.075,premceCat2_ses-02_part-02_label-phase2,2020.2.10,MacIntel,60,,,,,left,1.421915,4,2.22325,left,0.317355,0,0,0,0,1,,,,,,,,,,,,,,,,,
,,,,,,,,11,2021-05-02_19h11.58.075,premceCat2_ses-02_part-02_label-phase2,2020.2.10,MacIntel,60,,,,,,,,,,,,,,,,0,90,90,52,1,stimuli/objects/spatula04.jpg,left,old,53,,,,,,,,
,,,,,,,,11,2021-05-02_19h11.58.075,premceCat2_ses-02_part-02_label-phase2,2020.2.10,MacIntel,60,,,,,left,1.94501,3,0.721015,right,0.444935,0,0,0,0,1,,,,,,,,,,,,,,,,,
,,,,,,,,11,2021-05-02_19h11.58.075,premceCat2_ses-02_part-02_label-phase2,2020.2.10,MacIntel,60,,,,,,,,,,,,,,,,0,91,91,91,1,stimuli/objects/chainsaw.jpg,left,old,92,,,,,,,,
,,,,,,,,11,2021-05-02_19h11.58.075,premceCat2_ses-02_part-02_label-phase2,2020.2.10,MacIntel,60,,,,,left,0.76054,4,1.329525,left,0.55265,0,0,0,0,1,,,,,,,,,,,,,,,,,
,,,,,,,,11,2021-05-02_19h11.58.075,premceCat2_ses-02_part-02_label-phase2,2020.2.10,MacIntel,60,,,,,,,,,,,,,,,,0,92,92,23,1,stimuli/objects/football.jpg,right,new,24,,,,,,,,
,,,,,,,,11,2021-05-02_19h11.58.075,premceCat2_ses-02_part-02_label-phase2,2020.2.10,MacIntel,60,,,,,right,3.25514,1,0.29104,,,,,,,,0,93,93,96,1,stimuli/objects/golfbag.jpg,right,new,97,,,,,,,,
,,,,,,,,11,2021-05-02_19h11.58.075,premceCat2_ses-02_part-02_label-phase2,2020.2.10,MacIntel,60,,,,,left,3.480945,3,0.858405,left,1.55143,0,0,0,0,1,,,,,,,,,,,,,,,,,
,,,,,,,,11,2021-05-02_19h11.58.075,premceCat2_ses-02_part-02_label-phase2,2020.2.10,MacIntel,60,,,,,,,,,,,,,,,,0,94,94,140,1,stimuli/objects/catchermask.jpg,left,old,141,,,,,,,,
,,,,,,,,11,2021-05-02_19h11.58.075,premceCat2_ses-02_part-02_label-phase2,2020.2.10,MacIntel,60,,,,,left,1.52959,4,0.72626,right,0.37321,0,0,0,0,1,,,,,,,,,,,,,,,,,
,,,,,,,,11,2021-05-02_19h11.58.075,premceCat2_ses-02_part-02_label-phase2,2020.2.10,MacIntel,60,,,,,,,,,,,,,,,,0,95,95,99,1,stimuli/objects/snowblower.jpg,left,old,100,,,,,,,,
,,,,,,,,11,2021-05-02_19h11.58.075,premceCat2_ses-02_part-02_label-phase2,2020.2.10,MacIntel,60,,,,,left,1.093835,4,1.371345,right,0.336735,0,0,0,0,1,,,,,,,,,,,,,,,,,
,,,,,,,,11,2021-05-02_19h11.58.075,premceCat2_ses-02_part-02_label-phase2,2020.2.10,MacIntel,60,,,,,,,,,,,,,,,,0,96,96,101,1,stimuli/objects/chandelier.jpg,left,old,102,,,,,,,,
,,,,,,,,11,2021-05-02_19h11.58.075,premceCat2_ses-02_part-02_label-phase2,2020.2.10,MacIntel,60,,,,,left,0.863285,4,0.49067,right,0.000835,0,0,0,0,1,,,,,,,,,,,,,,,,,
,,,,,,,,11,2021-05-02_19h11.58.075,premceCat2_ses-02_part-02_label-phase2,2020.2.10,MacIntel,60,,,,,,,,,,,,,,,,0,97,97,135,1,stimuli/objects/pressurewasher.jpg,left,old,136,,,,,,,,
,,,,,,,,11,2021-05-02_19h11.58.075,premceCat2_ses-02_part-02_label-phase2,2020.2.10,MacIntel,60,,,,,left,0.795165,4,0.59421,right,1.104475,0,0,0,0,1,,,,,,,,,,,,,,,,,
,,,,,,,,11,2021-05-02_19h11.58.075,premceCat2_ses-02_part-02_label-phase2,2020.2.10,MacIntel,60,,,,,,,,,,,,,,,,0,98,98,79,1,stimuli/objects/dvdplayer.jpg,left,old,80,,,,,,,,
,,,,,,,,11,2021-05-02_19h11.58.075,premceCat2_ses-02_part-02_label-phase2,2020.2.10,MacIntel,60,,,,,left,0.91087,4,0.671935,right,0.000695,0,0,0,0,1,,,,,,,,,,,,,,,,,
,,,,,,,,11,2021-05-02_19h11.58.075,premceCat2_ses-02_part-02_label-phase2,2020.2.10,MacIntel,60,,,,,,,,,,,,,,,,0,99,99,1,1,stimuli/objects/photocopier.jpg,left,old,2,,,,,,,,
,,,,,,,,11,2021-05-02_19h11.58.075,premceCat2_ses-02_part-02_label-phase2,2020.2.10,MacIntel,60,,,,,right,2.93692,1,1.30601,,,,,,,,0,100,100,60,1,stimuli/objects/glass02a.jpg,right,new,61,,,,,,,,
,,,,,,,,11,2021-05-02_19h11.58.075,premceCat2_ses-02_part-02_label-phase2,2020.2.10,MacIntel,60,,,,,left,0.87711,4,0.709575,right,0.68514,0,0,0,0,1,,,,,,,,,,,,,,,,,
,,,,,,,,11,2021-05-02_19h11.58.075,premceCat2_ses-02_part-02_label-phase2,2020.2.10,MacIntel,60,,,,,,,,,,,,,,,,0,101,101,89,1,stimuli/objects/ducttape.jpg,right,new,90,,,,,,,,
,,,,,,,,11,2021-05-02_19h11.58.075,premceCat2_ses-02_part-02_label-phase2,2020.2.10,MacIntel,60,,,,,left,1.02579,4,0.65813,left,0.29411,0,0,0,0,1,,,,,,,,,,,,,,,,,
,,,,,,,,11,2021-05-02_19h11.58.075,premceCat2_ses-02_part-02_label-phase2,2020.2.10,MacIntel,60,,,,,,,,,,,,,,,,0,102,102,3,1,stimuli/objects/dishrack.jpg,left,old,4,,,,,,,,
,,,,,,,,11,2021-05-02_19h11.58.075,premceCat2_ses-02_part-02_label-phase2,2020.2.10,MacIntel,60,,,,,left,0.99201,4,0.872145,right,0.29811,0,0,0,0,1,,,,,,,,,,,,,,,,,
,,,,,,,,11,2021-05-02_19h11.58.075,premceCat2_ses-02_part-02_label-phase2,2020.2.10,MacIntel,60,,,,,,,,,,,,,,,,0,103,103,36,1,stimuli/objects/gps.jpg,left,old,37,,,,,,,,
,,,,,,,,11,2021-05-02_19h11.58.075,premceCat2_ses-02_part-02_label-phase2,2020.2.10,MacIntel,60,,,,,left,0.936545,4,0.80474,left,0.28818,0,0,0,0,1,,,,,,,,,,,,,,,,,
,,,,,,,,11,2021-05-02_19h11.58.075,premceCat2_ses-02_part-02_label-phase2,2020.2.10,MacIntel,60,,,,,,,,,,,,,,,,0,104,104,88,1,stimuli/objects/measuringcup01.jpg,left,old,89,,,,,,,,
,,,,,,,,11,2021-05-02_19h11.58.075,premceCat2_ses-02_part-02_label-phase2,2020.2.10,MacIntel,60,,,,,left,2.640845,1,0.705805,left,0.722405,0,0,0,0,1,,,,,,,,,,,,,,,,,
,,,,,,,,11,2021-05-02_19h11.58.075,premceCat2_ses-02_part-02_label-phase2,2020.2.10,MacIntel,60,,,,,,,,,,,,,,,,0,105,105,63,1,stimuli/objects/butterdish.jpg,right,new,64,,,,,,,,
,,,,,,,,11,2021-05-02_19h11.58.075,premceCat2_ses-02_part-02_label-phase2,2020.2.10,MacIntel,60,,,,,right,1.14377,1,0.623425,,,,,,,,0,106,106,7,1,stimuli/objects/puttyknife.jpg,left,old,8,,,,,,,,
,,,,,,,,11,2021-05-02_19h11.58.075,premceCat2_ses-02_part-02_label-phase2,2020.2.10,MacIntel,60,,,,,left,0.75741,4,0.94223,left,0.368215,0,0,0,0,1,,,,,,,,,,,,,,,,,
,,,,,,,,11,2021-05-02_19h11.58.075,premceCat2_ses-02_part-02_label-phase2,2020.2.10,MacIntel,60,,,,,,,,,,,,,,,,0,107,107,142,1,stimuli/objects/spoon01.jpg,left,old,143,,,,,,,,
,,,,,,,,11,2021-05-02_19h11.58.075,premceCat2_ses-02_part-02_label-phase2,2020.2.10,MacIntel,60,,,,,left,0.928475,4,0.277145,left,0.27095,0,0,0,0,1,,,,,,,,,,,,,,,,,
,,,,,,,,11,2021-05-02_19h11.58.075,premceCat2_ses-02_part-02_label-phase2,2020.2.10,MacIntel,60,,,,,,,,,,,,,,,,0,108,108,45,1,stimuli/objects/aluminiumfoil.jpg,left,old,46,,,,,,,,
,,,,,,,,11,2021-05-02_19h11.58.075,premceCat2_ses-02_part-02_label-phase2,2020.2.10,MacIntel,60,,,,,left,1.184875,4,0.31793,left,0.415215,0,0,0,0,1,,,,,,,,,,,,,,,,,
,,,,,,,,11,2021-05-02_19h11.58.075,premceCat2_ses-02_part-02_label-phase2,2020.2.10,MacIntel,60,,,,,,,,,,,,,,,,0,109,109,103,1,stimuli/objects/towel01.jpg,left,old,104,,,,,,,,
,,,,,,,,11,2021-05-02_19h11.58.075,premceCat2_ses-02_part-02_label-phase2,2020.2.10,MacIntel,60,,,,,right,1.189685,1,0.29035,,,,,,,,0,110,110,85,1,stimuli/objects/golfball.jpg,right,new,86,,,,,,,,
,,,,,,,,11,2021-05-02_19h11.58.075,premceCat2_ses-02_part-02_label-phase2,2020.2.10,MacIntel,60,,,,,left,3.035005,2,0.659475,right,1.420455,0,0,0,0,1,,,,,,,,,,,,,,,,,
,,,,,,,,11,2021-05-02_19h11.58.075,premceCat2_ses-02_part-02_label-phase2,2020.2.10,MacIntel,60,,,,,,,,,,,,,,,,0,111,111,115,1,stimuli/objects/pipewrench.jpg,left,old,116,,,,,,,,
,,,,,,,,11,2021-05-02_19h11.58.075,premceCat2_ses-02_part-02_label-phase2,2020.2.10,MacIntel,60,,,,,left,1.557635,4,0.808035,right,0.28769,0,0,0,0,1,,,,,,,,,,,,,,,,,
,,,,,,,,11,2021-05-02_19h11.58.075,premceCat2_ses-02_part-02_label-phase2,2020.2.10,MacIntel,60,,,,,,,,,,,,,,,,0,112,112,95,1,stimuli/objects/lectern01.jpg,left,old,96,,,,,,,,
,,,,,,,,11,2021-05-02_19h11.58.075,premceCat2_ses-02_part-02_label-phase2,2020.2.10,MacIntel,60,,,,,right,1.026855,2,1.10009,,,,,,,,0,113,113,131,1,stimuli/objects/spotlight.jpg,right,new,132,,,,,,,,
,,,,,,,,11,2021-05-02_19h11.58.075,premceCat2_ses-02_part-02_label-phase2,2020.2.10,MacIntel,60,,,,,left,1.379095,3,2.0279,right,1.652205,0,0,0,0,1,,,,,,,,,,,,,,,,,
,,,,,,,,11,2021-05-02_19h11.58.075,premceCat2_ses-02_part-02_label-phase2,2020.2.10,MacIntel,60,,,,,,,,,,,,,,,,0,114,114,51,1,stimuli/objects/webcam.jpg,right,new,52,,,,,,,,
,,,,,,,,11,2021-05-02_19h11.58.075,premceCat2_ses-02_part-02_label-phase2,2020.2.10,MacIntel,60,,,,,right,1.542455,4,0.887275,,,,,,,,0,115,115,90,1,stimuli/objects/carlighter02.jpg,right,new,91,,,,,,,,
,,,,,,,,11,2021-05-02_19h11.58.075,premceCat2_ses-02_part-02_label-phase2,2020.2.10,MacIntel,60,,,,,right,2.158565,2,0.488905,,,,,,,,0,116,116,92,1,stimuli/objects/carjack.jpg,right,new,93,,,,,,,,
,,,,,,,,11,2021-05-02_19h11.58.075,premceCat2_ses-02_part-02_label-phase2,2020.2.10,MacIntel,60,,,,,left,1.028325,3,1.074385,left,1.989095,0,0,0,0,1,,,,,,,,,,,,,,,,,
,,,,,,,,11,2021-05-02_19h11.58.075,premceCat2_ses-02_part-02_label-phase2,2020.2.10,MacIntel,60,,,,,,,,,,,,,,,,0,117,117,87,1,stimuli/objects/fluorescentlightbulb.jpg,left,old,88,,,,,,,,
,,,,,,,,11,2021-05-02_19h11.58.075,premceCat2_ses-02_part-02_label-phase2,2020.2.10,MacIntel,60,,,,,right,2.67045,3,1.191795,,,,,,,,0,118,118,141,1,stimuli/objects/generator.jpg,right,new,142,,,,,,,,
,,,,,,,,11,2021-05-02_19h11.58.075,premceCat2_ses-02_part-02_label-phase2,2020.2.10,MacIntel,60,,,,,right,1.807905,2,0.46019,,,,,,,,0,119,119,66,1,stimuli/objects/nailgun.jpg,right,new,67,,,,,,,,
,,,,,,,,11,2021-05-02_19h11.58.075,premceCat2_ses-02_part-02_label-phase2,2020.2.10,MacIntel,60,,,,,right,1.060685,2,0.35927,,,,,,,,0,120,120,59,1,stimuli/objects/studiolight.jpg,right,new,60,,,,,,,,
,,,,,,,,11,2021-05-02_19h11.58.075,premceCat2_ses-02_part-02_label-phase2,2020.2.10,MacIntel,60,,,,,right,0.831565,2,0.37584,,,,,,,,0,121,121,111,1,stimuli/objects/speaker04.jpg,right,new,112,,,,,,,,
,,,,,,,,11,2021-05-02_19h11.58.075,premceCat2_ses-02_part-02_label-phase2,2020.2.10,MacIntel,60,,,,,right,1.92673,3,0.622705,,,,,,,,0,122,122,24,1,stimuli/objects/skateboard.jpg,right,new,25,,,,,,,,
,,,,,,,,11,2021-05-02_19h11.58.075,premceCat2_ses-02_part-02_label-phase2,2020.2.10,MacIntel,60,,,,,right,1.09153,2,0.272955,,,,,,,,0,123,123,9,1,stimuli/objects/measuringtape01.jpg,right,new,10,,,,,,,,
,,,,,,,,11,2021-05-02_19h11.58.075,premceCat2_ses-02_part-02_label-phase2,2020.2.10,MacIntel,60,,,,,left,1.37873,4,1.4718,left,0.26494,0,0,0,0,1,,,,,,,,,,,,,,,,,
,,,,,,,,11,2021-05-02_19h11.58.075,premceCat2_ses-02_part-02_label-phase2,2020.2.10,MacIntel,60,,,,,,,,,,,,,,,,0,124,124,125,1,stimuli/objects/shoulderpad.jpg,right,new,126,,,,,,,,
,,,,,,,,11,2021-05-02_19h11.58.075,premceCat2_ses-02_part-02_label-phase2,2020.2.10,MacIntel,60,,,,,left,1.4338,4,0.28496,right,1.18539,0,0,0,0,1,,,,,,,,,,,,,,,,,
,,,,,,,,11,2021-05-02_19h11.58.075,premceCat2_ses-02_part-02_label-phase2,2020.2.10,MacIntel,60,,,,,,,,,,,,,,,,0,125,125,74,1,stimuli/objects/toyhockeystick01.jpg,left,old,75,,,,,,,,
,,,,,,,,11,2021-05-02_19h11.58.075,premceCat2_ses-02_part-02_label-phase2,2020.2.10,MacIntel,60,,,,,left,1.00748,4,0.694325,left,0.26709,0,0,0,0,1,,,,,,,,,,,,,,,,,
,,,,,,,,11,2021-05-02_19h11.58.075,premceCat2_ses-02_part-02_label-phase2,2020.2.10,MacIntel,60,,,,,,,,,,,,,,,,0,126,126,62,1,stimuli/objects/potatomasher03b.jpg,left,old,63,,,,,,,,
,,,,,,,,11,2021-05-02_19h11.58.075,premceCat2_ses-02_part-02_label-phase2,2020.2.10,MacIntel,60,,,,,left,3.69531,4,0.254975,left,0.34875,0,0,0,0,1,,,,,,,,,,,,,,,,,
,,,,,,,,11,2021-05-02_19h11.58.075,premceCat2_ses-02_part-02_label-phase2,2020.2.10,MacIntel,60,,,,,,,,,,,,,,,,0,127,127,6,1,stimuli/objects/corkscrew03a.jpg,left,old,7,,,,,,,,
,,,,,,,,11,2021-05-02_19h11.58.075,premceCat2_ses-02_part-02_label-phase2,2020.2.10,MacIntel,60,,,,,left,0.692865,4,0.24312,left,0.260515,0,0,0,0,1,,,,,,,,,,,,,,,,,
,,,,,,,,11,2021-05-02_19h11.58.075,premceCat2_ses-02_part-02_label-phase2,2020.2.10,MacIntel,60,,,,,,,,,,,,,,,,0,128,128,78,1,stimuli/objects/tupperware03a.jpg,left,old,79,,,,,,,,
,,,,,,,,11,2021-05-02_19h11.58.075,premceCat2_ses-02_part-02_label-phase2,2020.2.10,MacIntel,60,,,,,left,0.629445,4,0.90075,left,0.455025,0,0,0,0,1,,,,,,,,,,,,,,,,,
,,,,,,,,11,2021-05-02_19h11.58.075,premceCat2_ses-02_part-02_label-phase2,2020.2.10,MacIntel,60,,,,,,,,,,,,,,,,0,129,129,130,1,stimuli/objects/soccerball.jpg,left,old,131,,,,,,,,
,,,,,,,,11,2021-05-02_19h11.58.075,premceCat2_ses-02_part-02_label-phase2,2020.2.10,MacIntel,60,,,,,left,6.961745,4,0.08409,left,1.837805,0,0,0,0,1,,,,,,,,,,,,,,,,,
,,,,,,,,11,2021-05-02_19h11.58.075,premceCat2_ses-02_part-02_label-phase2,2020.2.10,MacIntel,60,,,,,,,,,,,,,,,,0,130,130,123,1,stimuli/objects/gasburner.jpg,left,old,124,,,,,,,,
,,,,,,,,11,2021-05-02_19h11.58.075,premceCat2_ses-02_part-02_label-phase2,2020.2.10,MacIntel,60,,,,,left,1.3747,4,0.25713,left,0.588005,0,0,0,0,1,,,,,,,,,,,,,,,,,
,,,,,,,,11,2021-05-02_19h11.58.075,premceCat2_ses-02_part-02_label-phase2,2020.2.10,MacIntel,60,,,,,,,,,,,,,,,,0,131,131,114,1,stimuli/objects/butterknife.jpg,left,old,115,,,,,,,,
,,,,,,,,11,2021-05-02_19h11.58.075,premceCat2_ses-02_part-02_label-phase2,2020.2.10,MacIntel,60,,,,,right,1.29409,1,0.289115,,,,,,,,0,132,132,55,1,stimuli/objects/toolbox02.jpg,right,new,56,,,,,,,,
,,,,,,,,11,2021-05-02_19h11.58.075,premceCat2_ses-02_part-02_label-phase2,2020.2.10,MacIntel,60,,,,,left,3.129615,3,0.477945,right,0.921735,0,0,0,0,1,,,,,,,,,,,,,,,,,
,,,,,,,,11,2021-05-02_19h11.58.075,premceCat2_ses-02_part-02_label-phase2,2020.2.10,MacIntel,60,,,,,,,,,,,,,,,,0,133,133,38,1,stimuli/objects/soundmixer.jpg,right,new,39,,,,,,,,
,,,,,,,,11,2021-05-02_19h11.58.075,premceCat2_ses-02_part-02_label-phase2,2020.2.10,MacIntel,60,,,,,right,1.807915,1,0.302905,,,,,,,,0,134,134,100,1,stimuli/objects/remotecontrol04.jpg,right,new,101,,,,,,,,
,,,,,,,,11,2021-05-02_19h11.58.075,premceCat2_ses-02_part-02_label-phase2,2020.2.10,MacIntel,60,,,,,left,0.82885,4,0.5256,left,0.351715,0,0,0,0,1,,,,,,,,,,,,,,,,,
,,,,,,,,11,2021-05-02_19h11.58.075,premceCat2_ses-02_part-02_label-phase2,2020.2.10,MacIntel,60,,,,,,,,,,,,,,,,0,135,135,127,1,stimuli/objects/badmintonracket.jpg,left,old,128,,,,,,,,
,,,,,,,,11,2021-05-02_19h11.58.075,premceCat2_ses-02_part-02_label-phase2,2020.2.10,MacIntel,60,,,,,right,1.65474,1,0.33788,,,,,,,,0,136,136,41,1,stimuli/objects/pylon01.jpg,right,new,42,,,,,,,,
,,,,,,,,11,2021-05-02_19h11.58.075,premceCat2_ses-02_part-02_label-phase2,2020.2.10,MacIntel,60,,,,,right,1.345235,1,0.290715,,,,,,,,0,137,137,54,1,stimuli/objects/pda.jpg,right,new,55,,,,,,,,
,,,,,,,,11,2021-05-02_19h11.58.075,premceCat2_ses-02_part-02_label-phase2,2020.2.10,MacIntel,60,,,,,right,0.890455,1,0.37446,,,,,,,,0,138,138,58,1,stimuli/objects/toyhardhat.jpg,left,old,59,,,,,,,,
,,,,,,,,11,2021-05-02_19h11.58.075,premceCat2_ses-02_part-02_label-phase2,2020.2.10,MacIntel,60,,,,,left,0.91188,4,0.36519,left,0.531695,0,0,0,0,1,,,,,,,,,,,,,,,,,
,,,,,,,,11,2021-05-02_19h11.58.075,premceCat2_ses-02_part-02_label-phase2,2020.2.10,MacIntel,60,,,,,,,,,,,,,,,,0,139,139,49,1,stimuli/objects/volleyball.jpg,left,old,50,,,,,,,,
,,,,,,,,11,2021-05-02_19h11.58.075,premceCat2_ses-02_part-02_label-phase2,2020.2.10,MacIntel,60,,,,,right,1.143735,1,0.53457,,,,,,,,0,140,140,108,1,stimuli/objects/metalscissors.jpg,right,new,109,,,,,,,,
,,,,,,,,11,2021-05-02_19h11.58.075,premceCat2_ses-02_part-02_label-phase2,2020.2.10,MacIntel,60,,,,,left,2.622595,1,0.320995,right,0.995115,0,0,0,0,1,,,,,,,,,,,,,,,,,
,,,,,,,,11,2021-05-02_19h11.58.075,premceCat2_ses-02_part-02_label-phase2,2020.2.10,MacIntel,60,,,,,,,,,,,,,,,,0,141,141,32,1,stimuli/objects/mitresaw.jpg,right,new,33,,,,,,,,
,,,,,,,,11,2021-05-02_19h11.58.075,premceCat2_ses-02_part-02_label-phase2,2020.2.10,MacIntel,60,,,,,left,1.85525,2,1.587975,left,0.386415,0,0,0,0,1,,,,,,,,,,,,,,,,,
,,,,,,,,11,2021-05-02_19h11.58.075,premceCat2_ses-02_part-02_label-phase2,2020.2.10,MacIntel,60,,,,,,,,,,,,,,,,0,142,142,126,1,stimuli/objects/tableknife02.jpg,right,new,127,,,,,,,,
,,,,,,,,11,2021-05-02_19h11.58.075,premceCat2_ses-02_part-02_label-phase2,2020.2.10,MacIntel,60,,,,,,,,,,,,,,,,,,,,,,,,,space,57.30832,0,0,0,0,1,condition_files/ImagesforRecog4_1.csv
,,,,,,,,11,2021-05-02_19h11.58.075,premceCat2_ses-02_part-02_label-phase2,2020.2.10,MacIntel,60,,,,,left,1.704675,1,0.54235,left,1.05812,0,0,0,0,1,,,,,,,,,,,,,,,,,
,,,,,,,,11,2021-05-02_19h11.58.075,premceCat2_ses-02_part-02_label-phase2,2020.2.10,MacIntel,60,,,,,,,,,,,,,,,,0,0,0,102,1,stimuli/objects/beachumbrella01.jpg,right,new,246,,,,,,,,
,,,,,,,,11,2021-05-02_19h11.58.075,premceCat2_ses-02_part-02_label-phase2,2020.2.10,MacIntel,60,,,,,left,2.500155,4,1.15128,left,0.61134,0,0,0,0,1,,,,,,,,,,,,,,,,,
,,,,,,,,11,2021-05-02_19h11.58.075,premceCat2_ses-02_part-02_label-phase2,2020.2.10,MacIntel,60,,,,,,,,,,,,,,,,0,1,1,28,1,stimuli/objects/oven.jpg,left,old,172,,,,,,,,
,,,,,,,,11,2021-05-02_19h11.58.075,premceCat2_ses-02_part-02_label-phase2,2020.2.10,MacIntel,60,,,,,right,1.53852,1,0.286945,,,,,,,,0,2,2,34,1,stimuli/objects/kneepad01c.jpg,right,new,178,,,,,,,,
,,,,,,,,11,2021-05-02_19h11.58.075,premceCat2_ses-02_part-02_label-phase2,2020.2.10,MacIntel,60,,,,,right,0.89702,2,0.44465,,,,,,,,0,3,3,44,1,stimuli/objects/toaster01.jpg,right,new,188,,,,,,,,
,,,,,,,,11,2021-05-02_19h11.58.075,premceCat2_ses-02_part-02_label-phase2,2020.2.10,MacIntel,60,,,,,right,1.029745,2,0.31344,,,,,,,,0,4,4,26,1,stimuli/objects/flashlight02b.jpg,right,new,170,,,,,,,,
,,,,,,,,11,2021-05-02_19h11.58.075,premceCat2_ses-02_part-02_label-phase2,2020.2.10,MacIntel,60,,,,,right,0.826825,2,0.560515,,,,,,,,0,5,5,86,1,stimuli/objects/trampoline.jpg,right,new,230,,,,,,,,
,,,,,,,,11,2021-05-02_19h11.58.075,premceCat2_ses-02_part-02_label-phase2,2020.2.10,MacIntel,60,,,,,right,1.201345,4,0.540115,,,,,,,,0,6,6,82,1,stimuli/objects/shopvac.jpg,right,new,226,,,,,,,,
,,,,,,,,11,2021-05-02_19h11.58.075,premceCat2_ses-02_part-02_label-phase2,2020.2.10,MacIntel,60,,,,,left,1.074415,4,0.475715,left,3.632355,0,0,0,0,1,,,,,,,,,,,,,,,,,
,,,,,,,,11,2021-05-02_19h11.58.075,premceCat2_ses-02_part-02_label-phase2,2020.2.10,MacIntel,60,,,,,,,,,,,,,,,,0,7,7,141,1,stimuli/objects/waterbottle03.jpg,left,old,285,,,,,,,,
,,,,,,,,11,2021-05-02_19h11.58.075,premceCat2_ses-02_part-02_label-phase2,2020.2.10,MacIntel,60,,,,,left,4.052955,1,0.32934,right,1.176795,0,0,0,0,1,,,,,,,,,,,,,,,,,
,,,,,,,,11,2021-05-02_19h11.58.075,premceCat2_ses-02_part-02_label-phase2,2020.2.10,MacIntel,60,,,,,,,,,,,,,,,,0,8,8,40,1,stimuli/objects/tablesaw.jpg,right,new,184,,,,,,,,
,,,,,,,,11,2021-05-02_19h11.58.075,premceCat2_ses-02_part-02_label-phase2,2020.2.10,MacIntel,60,,,,,right,2.020985,1,0.37011,,,,,,,,0,9,9,127,1,stimuli/objects/skigoggles01.jpg,right,new,271,,,,,,,,
,,,,,,,,11,2021-05-02_19h11.58.075,premceCat2_ses-02_part-02_label-phase2,2020.2.10,MacIntel,60,,,,,left,1.2042,2,1.16419,left,0.729855,0,0,0,0,1,,,,,,,,,,,,,,,,,
,,,,,,,,11,2021-05-02_19h11.58.075,premceCat2_ses-02_part-02_label-phase2,2020.2.10,MacIntel,60,,,,,,,,,,,,,,,,0,10,10,45,1,stimuli/objects/charcoalbarbecue.jpg,left,old,189,,,,,,,,
,,,,,,,,11,2021-05-02_19h11.58.075,premceCat2_ses-02_part-02_label-phase2,2020.2.10,MacIntel,60,,,,,left,1.150205,4,0.650135,left,0.398465,0,0,0,0,1,,,,,,,,,,,,,,,,,
,,,,,,,,11,2021-05-02_19h11.58.075,premceCat2_ses-02_part-02_label-phase2,2020.2.10,MacIntel,60,,,,,,,,,,,,,,,,0,11,11,135,1,stimuli/objects/mortarandpestle.jpg,right,new,279,,,,,,,,
,,,,,,,,11,2021-05-02_19h11.58.075,premceCat2_ses-02_part-02_label-phase2,2020.2.10,MacIntel,60,,,,,left,1.325065,2,0.83678,left,0.435505,0,0,0,0,1,,,,,,,,,,,,,,,,,
,,,,,,,,11,2021-05-02_19h11.58.075,premceCat2_ses-02_part-02_label-phase2,2020.2.10,MacIntel,60,,,,,,,,,,,,,,,,0,12,12,3,1,stimuli/objects/boxingglove01.jpg,right,new,147,,,,,,,,
,,,,,,,,11,2021-05-02_19h11.58.075,premceCat2_ses-02_part-02_label-phase2,2020.2.10,MacIntel,60,,,,,left,1.12502,2,0.60388,right,1.110695,0,0,0,0,1,,,,,,,,,,,,,,,,,
,,,,,,,,11,2021-05-02_19h11.58.075,premceCat2_ses-02_part-02_label-phase2,2020.2.10,MacIntel,60,,,,,,,,,,,,,,,,0,13,13,93,1,stimuli/objects/lawnmower.jpg,left,old,237,,,,,,,,
,,,,,,,,11,2021-05-02_19h11.58.075,premceCat2_ses-02_part-02_label-phase2,2020.2.10,MacIntel,60,,,,,left,2.147755,2,0.53761,right,0.334805,0,0,0,0,1,,,,,,,,,,,,,,,,,
,,,,,,,,11,2021-05-02_19h11.58.075,premceCat2_ses-02_part-02_label-phase2,2020.2.10,MacIntel,60,,,,,,,,,,,,,,,,0,14,14,24,1,stimuli/objects/monitor.jpg,right,new,168,,,,,,,,
,,,,,,,,11,2021-05-02_19h11.58.075,premceCat2_ses-02_part-02_label-phase2,2020.2.10,MacIntel,60,,,,,left,0.79195,2,0.47419,left,1.07071,0,0,0,0,1,,,,,,,,,,,,,,,,,
,,,,,,,,11,2021-05-02_19h11.58.075,premceCat2_ses-02_part-02_label-phase2,2020.2.10,MacIntel,60,,,,,,,,,,,,,,,,0,15,15,88,1,stimuli/objects/iceskate.jpg,left,old,232,,,,,,,,
,,,,,,,,11,2021-05-02_19h11.58.075,premceCat2_ses-02_part-02_label-phase2,2020.2.10,MacIntel,60,,,,,right,1.345565,1,0.26521,,,,,,,,0,16,16,142,1,stimuli/objects/needlenosepliers01.jpg,right,new,286,,,,,,,,
,,,,,,,,11,2021-05-02_19h11.58.075,premceCat2_ses-02_part-02_label-phase2,2020.2.10,MacIntel,60,,,,,right,0.95075,2,0.39108,,,,,,,,0,17,17,124,1,stimuli/objects/basketball01.jpg,right,new,268,,,,,,,,
,,,,,,,,11,2021-05-02_19h11.58.075,premceCat2_ses-02_part-02_label-phase2,2020.2.10,MacIntel,60,,,,,right,1.41009,2,0.31966,,,,,,,,0,18,18,92,1,stimuli/objects/axe01.jpg,left,old,236,,,,,,,,
,,,,,,,,11,2021-05-02_19h11.58.075,premceCat2_ses-02_part-02_label-phase2,2020.2.10,MacIntel,60,,,,,right,1.8626,4,0.34536,,,,,,,,0,19,19,133,1,stimuli/objects/birdie.jpg,right,new,277,,,,,,,,
,,,,,,,,11,2021-05-02_19h11.58.075,premceCat2_ses-02_part-02_label-phase2,2020.2.10,MacIntel,60,,,,,left,1.04705,4,0.407415,right,3.27201,0,0,0,0,1,,,,,,,,,,,,,,,,,
,,,,,,,,11,2021-05-02_19h11.58.075,premceCat2_ses-02_part-02_label-phase2,2020.2.10,MacIntel,60,,,,,,,,,,,,,,,,0,20,20,21,1,stimuli/objects/gluetube.jpg,left,old,165,,,,,,,,
,,,,,,,,11,2021-05-02_19h11.58.075,premceCat2_ses-02_part-02_label-phase2,2020.2.10,MacIntel,60,,,,,left,2.34003,4,0.25532,left,1.02269,0,0,0,0,1,,,,,,,,,,,,,,,,,
,,,,,,,,11,2021-05-02_19h11.58.075,premceCat2_ses-02_part-02_label-phase2,2020.2.10,MacIntel,60,,,,,,,,,,,,,,,,0,21,21,128,1,stimuli/objects/hourglass.jpg,left,old,272,,,,,,,,
,,,,,,,,11,2021-05-02_19h11.58.075,premceCat2_ses-02_part-02_label-phase2,2020.2.10,MacIntel,60,,,,,right,2.54035,1,0.3311,,,,,,,,0,22,22,107,1,stimuli/objects/dolly01.jpg,right,new,251,,,,,,,,
,,,,,,,,11,2021-05-02_19h11.58.075,premceCat2_ses-02_part-02_label-phase2,2020.2.10,MacIntel,60,,,,,right,2.027895,1,0.537365,,,,,,,,0,23,23,100,1,stimuli/objects/setsquare.jpg,left,old,244,,,,,,,,
,,,,,,,,11,2021-05-02_19h11.58.075,premceCat2_ses-02_part-02_label-phase2,2020.2.10,MacIntel,60,,,,,right,1.28151,1,0.37397,,,,,,,,0,24,24,103,1,stimuli/objects/swissarmyknife01a.jpg,right,new,247,,,,,,,,
,,,,,,,,11,2021-05-02_19h11.58.075,premceCat2_ses-02_part-02_label-phase2,2020.2.10,MacIntel,60,,,,,right,1.296095,2,1.156525,,,,,,,,0,25,25,111,1,stimuli/objects/diaperbag.jpg,right,new,255,,,,,,,,
,,,,,,,,11,2021-05-02_19h11.58.075,premceCat2_ses-02_part-02_label-phase2,2020.2.10,MacIntel,60,,,,,right,1.16464,2,0.29132,,,,,,,,0,26,26,114,1,stimuli/objects/drinkshaker.jpg,right,new,258,,,,,,,,
,,,,,,,,11,2021-05-02_19h11.58.075,premceCat2_ses-02_part-02_label-phase2,2020.2.10,MacIntel,60,,,,,right,0.649625,2,0.271055,,,,,,,,0,27,27,41,1,stimuli/objects/flask.jpg,right,new,185,,,,,,,,
,,,,,,,,11,2021-05-02_19h11.58.075,premceCat2_ses-02_part-02_label-phase2,2020.2.10,MacIntel,60,,,,,right,1.061065,2,0.25674,,,,,,,,0,28,28,53,1,stimuli/objects/staplegun.jpg,left,old,197,,,,,,,,
,,,,,,,,11,2021-05-02_19h11.58.075,premceCat2_ses-02_part-02_label-phase2,2020.2.10,MacIntel,60,,,,,right,1.6563,1,0.52572,,,,,,,,0,29,29,80,1,stimuli/objects/barbecue03.jpg,right,new,224,,,,,,,,
,,,,,,,,11,2021-05-02_19h11.58.075,premceCat2_ses-02_part-02_label-phase2,2020.2.10,MacIntel,60,,,,,left,1.147395,4,0.352245,right,1.28839,0,0,0,0,1,,,,,,,,,,,,,,,,,
,,,,,,,,11,2021-05-02_19h11.58.075,premceCat2_ses-02_part-02_label-phase2,2020.2.10,MacIntel,60,,,,,,,,,,,,,,,,0,30,30,50,1,stimuli/objects/boatmotor.jpg,left,old,194,,,,,,,,
,,,,,,,,11,2021-05-02_19h11.58.075,premceCat2_ses-02_part-02_label-phase2,2020.2.10,MacIntel,60,,,,,right,1.31764,4,0.82255,,,,,,,,0,31,31,120,1,stimuli/objects/tent.jpg,right,new,264,,,,,,,,
,,,,,,,,11,2021-05-02_19h11.58.075,premceCat2_ses-02_part-02_label-phase2,2020.2.10,MacIntel,60,,,,,left,1.121,4,0.32132,left,1.048695,0,0,0,0,1,,,,,,,,,,,,,,,,,
,,,,,,,,11,2021-05-02_19h11.58.075,premceCat2_ses-02_part-02_label-phase2,2020.2.10,MacIntel,60,,,,,,,,,,,,,,,,0,32,32,10,1,stimuli/objects/sportbag.jpg,left,old,154,,,,,,,,
,,,,,,,,11,2021-05-02_19h11.58.075,premceCat2_ses-02_part-02_label-phase2,2020.2.10,MacIntel,60,,,,,right,4.36143,1,0.46147,,,,,,,,0,33,33,87,1,stimuli/objects/wiicontroller.jpg,right,new,231,,,,,,,,
,,,,,,,,11,2021-05-02_19h11.58.075,premceCat2_ses-02_part-02_label-phase2,2020.2.10,MacIntel,60,,,,,right,2.286635,1,1.07528,,,,,,,,0,34,34,16,1,stimuli/objects/bottleopener01.jpg,right,new,160,,,,,,,,
,,,,,,,,11,2021-05-02_19h11.58.075,premceCat2_ses-02_part-02_label-phase2,2020.2.10,MacIntel,60,,,,,right,0.931865,1,0.26028,,,,,,,,0,35,35,5,1,stimuli/objects/pickaxe02.jpg,right,new,149,,,,,,,,
,,,,,,,,11,2021-05-02_19h11.58.075,premceCat2_ses-02_part-02_label-phase2,2020.2.10,MacIntel,60,,,,,left,0.881685,4,0.36004,left,0.960275,0,0,0,0,1,,,,,,,,,,,,,,,,,
,,,,,,,,11,2021-05-02_19h11.58.075,premceCat2_ses-02_part-02_label-phase2,2020.2.10,MacIntel,60,,,,,,,,,,,,,,,,0,36,36,38,1,stimuli/objects/contactlens.jpg,left,old,182,,,,,,,,
,,,,,,,,11,2021-05-02_19h11.58.075,premceCat2_ses-02_part-02_label-phase2,2020.2.10,MacIntel,60,,,,,left,1.50601,4,0.298875,right,0.412595,0,0,0,0,1,,,,,,,,,,,,,,,,,
,,,,,,,,11,2021-05-02_19h11.58.075,premceCat2_ses-02_part-02_label-phase2,2020.2.10,MacIntel,60,,,,,,,,,,,,,,,,0,37,37,65,1,stimuli/objects/gastank.jpg,left,old,209,,,,,,,,
,,,,,,,,11,2021-05-02_19h11.58.075,premceCat2_ses-02_part-02_label-phase2,2020.2.10,MacIntel,60,,,,,right,1.06741,4,0.807745,,,,,,,,0,38,38,35,1,stimuli/objects/stroller.jpg,right,new,179,,,,,,,,
,,,,,,,,11,2021-05-02_19h11.58.075,premceCat2_ses-02_part-02_label-phase2,2020.2.10,MacIntel,60,,,,,left,1.861515,2,1.18739,left,0.506015,0,0,0,0,1,,,,,,,,,,,,,,,,,
,,,,,,,,11,2021-05-02_19h11.58.075,premceCat2_ses-02_part-02_label-phase2,2020.2.10,MacIntel,60,,,,,,,,,,,,,,,,0,39,39,122,1,stimuli/objects/hockeystick.jpg,right,new,266,,,,,,,,
,,,,,,,,11,2021-05-02_19h11.58.075,premceCat2_ses-02_part-02_label-phase2,2020.2.10,MacIntel,60,,,,,left,0.794565,4,0.7393,right,0.303765,0,0,0,0,1,,,,,,,,,,,,,,,,,
,,,,,,,,11,2021-05-02_19h11.58.075,premceCat2_ses-02_part-02_label-phase2,2020.2.10,MacIntel,60,,,,,,,,,,,,,,,,0,40,40,112,1,stimuli/objects/wire.jpg,left,old,256,,,,,,,,
,,,,,,,,11,2021-05-02_19h11.58.075,premceCat2_ses-02_part-02_label-phase2,2020.2.10,MacIntel,60,,,,,left,1.384925,4,0.87302,right,0.317855,0,0,0,0,1,,,,,,,,,,,,,,,,,
,,,,,,,,11,2021-05-02_19h11.58.075,premceCat2_ses-02_part-02_label-phase2,2020.2.10,MacIntel,60,,,,,,,,,,,,,,,,0,41,41,75,1,stimuli/objects/painttray.jpg,left,old,219,,,,,,,,
,,,,,,,,11,2021-05-02_19h11.58.075,premceCat2_ses-02_part-02_label-phase2,2020.2.10,MacIntel,60,,,,,right,1.981215,1,0.30738,,,,,,,,0,42,42,30,1,stimuli/objects/halogenlightbulb.jpg,right,new,174,,,,,,,,
,,,,,,,,11,2021-05-02_19h11.58.075,premceCat2_ses-02_part-02_label-phase2,2020.2.10,MacIntel,60,,,,,right,1.064725,1,0.29193,,,,,,,,0,43,43,125,1,stimuli/objects/leafrake.jpg,left,old,269,,,,,,,,
,,,,,,,,11,2021-05-02_19h11.58.075,premceCat2_ses-02_part-02_label-phase2,2020.2.10,MacIntel,60,,,,,left,0.813625,4,0.321935,right,0.280765,0,0,0,0,1,,,,,,,,,,,,,,,,,
,,,,,,,,11,2021-05-02_19h11.58.075,premceCat2_ses-02_part-02_label-phase2,2020.2.10,MacIntel,60,,,,,,,,,,,,,,,,0,44,44,8,1,stimuli/objects/tape02a.jpg,left,old,152,,,,,,,,
,,,,,,,,11,2021-05-02_19h11.58.075,premceCat2_ses-02_part-02_label-phase2,2020.2.10,MacIntel,60,,,,,right,1.137135,1,0.27284,,,,,,,,0,45,45,66,1,stimuli/objects/heatpump.jpg,right,new,210,,,,,,,,
,,,,,,,,11,2021-05-02_19h11.58.075,premceCat2_ses-02_part-02_label-phase2,2020.2.10,MacIntel,60,,,,,left,0.984145,2,0.29652,right,0.598515,0,0,0,0,1,,,,,,,,,,,,,,,,,
,,,,,,,,11,2021-05-02_19h11.58.075,premceCat2_ses-02_part-02_label-phase2,2020.2.10,MacIntel,60,,,,,,,,,,,,,,,,0,46,46,55,1,stimuli/objects/fonduefork01.jpg,right,new,199,,,,,,,,
,,,,,,,,11,2021-05-02_19h11.58.075,premceCat2_ses-02_part-02_label-phase2,2020.2.10,MacIntel,60,,,,,left,1.155385,4,1.35859,right,0.28526,0,0,0,0,1,,,,,,,,,,,,,,,,,
,,,,,,,,11,2021-05-02_19h11.58.075,premceCat2_ses-02_part-02_label-phase2,2020.2.10,MacIntel,60,,,,,,,,,,,,,,,,0,47,47,33,1,stimuli/objects/scanner.jpg,left,old,177,,,,,,,,
,,,,,,,,11,2021-05-02_19h11.58.075,premceCat2_ses-02_part-02_label-phase2,2020.2.10,MacIntel,60,,,,,right,1.00134,4,0.68681,,,,,,,,0,48,48,2,1,stimuli/objects/wetfloorsign.jpg,right,new,146,,,,,,,,
,,,,,,,,11,2021-05-02_19h11.58.075,premceCat2_ses-02_part-02_label-phase2,2020.2.10,MacIntel,60,,,,,left,1.09622,4,0.337685,right,0.37,0,0,0,0,1,,,,,,,,,,,,,,,,,
,,,,,,,,11,2021-05-02_19h11.58.075,premceCat2_ses-02_part-02_label-phase2,2020.2.10,MacIntel,60,,,,,,,,,,,,,,,,0,49,49,37,1,stimuli/objects/expansioncard.jpg,left,old,181,,,,,,,,
,,,,,,,,11,2021-05-02_19h11.58.075,premceCat2_ses-02_part-02_label-phase2,2020.2.10,MacIntel,60,,,,,left,1.05797,4,1.024435,left,0.277095,0,0,0,0,1,,,,,,,,,,,,,,,,,
,,,,,,,,11,2021-05-02_19h11.58.075,premceCat2_ses-02_part-02_label-phase2,2020.2.10,MacIntel,60,,,,,,,,,,,,,,,,0,50,50,62,1,stimuli/objects/shotglass.jpg,left,old,206,,,,,,,,
,,,,,,,,11,2021-05-02_19h11.58.075,premceCat2_ses-02_part-02_label-phase2,2020.2.10,MacIntel,60,,,,,left,0.97227,4,0.299265,left,0.23396,0,0,0,0,1,,,,,,,,,,,,,,,,,
,,,,,,,,11,2021-05-02_19h11.58.075,premceCat2_ses-02_part-02_label-phase2,2020.2.10,MacIntel,60,,,,,,,,,,,,,,,,0,51,51,58,1,stimuli/objects/skiboot01a.jpg,left,old,202,,,,,,,,
,,,,,,,,11,2021-05-02_19h11.58.075,premceCat2_ses-02_part-02_label-phase2,2020.2.10,MacIntel,60,,,,,left,1.256215,2,1.33921,right,0.45254,0,0,0,0,1,,,,,,,,,,,,,,,,,
,,,,,,,,11,2021-05-02_19h11.58.075,premceCat2_ses-02_part-02_label-phase2,2020.2.10,MacIntel,60,,,,,,,,,,,,,,,,0,52,52,4,1,stimuli/objects/cassettetape01a.jpg,right,new,148,,,,,,,,
,,,,,,,,11,2021-05-02_19h11.58.075,premceCat2_ses-02_part-02_label-phase2,2020.2.10,MacIntel,60,,,,,left,0.748395,4,0.702875,left,0.057645,0,0,0,0,1,,,,,,,,,,,,,,,,,
,,,,,,,,11,2021-05-02_19h11.58.075,premceCat2_ses-02_part-02_label-phase2,2020.2.10,MacIntel,60,,,,,,,,,,,,,,,,0,53,53,23,1,stimuli/objects/surfboard.jpg,left,old,167,,,,,,,,
,,,,,,,,11,2021-05-02_19h11.58.075,premceCat2_ses-02_part-02_label-phase2,2020.2.10,MacIntel,60,,,,,left,1.913305,4,1.356205,right,0.70761,0,0,0,0,1,,,,,,,,,,,,,,,,,
,,,,,,,,11,2021-05-02_19h11.58.075,premceCat2_ses-02_part-02_label-phase2,2020.2.10,MacIntel,60,,,,,,,,,,,,,,,,0,54,54,137,1,stimuli/objects/nutcracker01.jpg,right,new,281,,,,,,,,
,,,,,,,,11,2021-05-02_19h11.58.075,premceCat2_ses-02_part-02_label-phase2,2020.2.10,MacIntel,60,,,,,left,1.44741,4,0.371575,left,0.00746,0,0,0,0,1,,,,,,,,,,,,,,,,,
,,,,,,,,11,2021-05-02_19h11.58.075,premceCat2_ses-02_part-02_label-phase2,2020.2.10,MacIntel,60,,,,,,,,,,,,,,,,0,55,55,48,1,stimuli/objects/eggslicer.jpg,right,new,192,,,,,,,,
,,,,,,,,11,2021-05-02_19h11.58.075,premceCat2_ses-02_part-02_label-phase2,2020.2.10,MacIntel,60,,,,,left,0.911195,4,0.52093,right,1.019955,0,0,0,0,1,,,,,,,,,,,,,,,,,
,,,,,,,,11,2021-05-02_19h11.58.075,premceCat2_ses-02_part-02_label-phase2,2020.2.10,MacIntel,60,,,,,,,,,,,,,,,,0,56,56,108,1,stimuli/objects/outletadapter.jpg,left,old,252,,,,,,,,
,,,,,,,,11,2021-05-02_19h11.58.075,premceCat2_ses-02_part-02_label-phase2,2020.2.10,MacIntel,60,,,,,right,2.75787,1,0.19212,,,,,,,,0,57,57,131,1,stimuli/objects/handblender.jpg,right,new,275,,,,,,,,
,,,,,,,,11,2021-05-02_19h11.58.075,premceCat2_ses-02_part-02_label-phase2,2020.2.10,MacIntel,60,,,,,left,0.89447,4,0.476675,left,0.73695,0,0,0,0,1,,,,,,,,,,,,,,,,,
,,,,,,,,11,2021-05-02_19h11.58.075,premceCat2_ses-02_part-02_label-phase2,2020.2.10,MacIntel,60,,,,,,,,,,,,,,,,0,58,58,31,1,stimuli/objects/cooler01.jpg,left,old,175,,,,,,,,
,,,,,,,,11,2021-05-02_19h11.58.075,premceCat2_ses-02_part-02_label-phase2,2020.2.10,MacIntel,60,,,,,left,1.265415,4,0.322005,right,0.04584,0,0,0,0,1,,,,,,,,,,,,,,,,,
,,,,,,,,11,2021-05-02_19h11.58.075,premceCat2_ses-02_part-02_label-phase2,2020.2.10,MacIntel,60,,,,,,,,,,,,,,,,0,59,59,99,1,stimuli/objects/floodlight.jpg,right,new,243,,,,,,,,
,,,,,,,,11,2021-05-02_19h11.58.075,premceCat2_ses-02_part-02_label-phase2,2020.2.10,MacIntel,60,,,,,left,1.61916,4,0.67295,left,0.858675,0,0,0,0,1,,,,,,,,,,,,,,,,,
,,,,,,,,11,2021-05-02_19h11.58.075,premceCat2_ses-02_part-02_label-phase2,2020.2.10,MacIntel,60,,,,,,,,,,,,,,,,0,60,60,7,1,stimuli/objects/bottlecap.jpg,left,old,151,,,,,,,,
,,,,,,,,11,2021-05-02_19h11.58.075,premceCat2_ses-02_part-02_label-phase2,2020.2.10,MacIntel,60,,,,,left,0.800555,4,0.32554,right,0.34593,0,0,0,0,1,,,,,,,,,,,,,,,,,
,,,,,,,,11,2021-05-02_19h11.58.075,premceCat2_ses-02_part-02_label-phase2,2020.2.10,MacIntel,60,,,,,,,,,,,,,,,,0,61,61,130,1,stimuli/objects/ipad02.jpg,left,old,274,,,,,,,,
,,,,,,,,11,2021-05-02_19h11.58.075,premceCat2_ses-02_part-02_label-phase2,2020.2.10,MacIntel,60,,,,,left,0.77034,1,1.13108,right,1.160945,0,0,0,0,1,,,,,,,,,,,,,,,,,
,,,,,,,,11,2021-05-02_19h11.58.075,premceCat2_ses-02_part-02_label-phase2,2020.2.10,MacIntel,60,,,,,,,,,,,,,,,,0,62,62,6,1,stimuli/objects/solderingwire.jpg,right,new,150,,,,,,,,
,,,,,,,,11,2021-05-02_19h11.58.075,premceCat2_ses-02_part-02_label-phase2,2020.2.10,MacIntel,60,,,,,left,1.22568,2,0.87779,right,0.21717,0,0,0,0,1,,,,,,,,,,,,,,,,,
,,,,,,,,11,2021-05-02_19h11.58.075,premceCat2_ses-02_part-02_label-phase2,2020.2.10,MacIntel,60,,,,,,,,,,,,,,,,0,63,63,12,1,stimuli/objects/fanheater.jpg,right,new,156,,,,,,,,
,,,,,,,,11,2021-05-02_19h11.58.075,premceCat2_ses-02_part-02_label-phase2,2020.2.10,MacIntel,60,,,,,left,0.80349,4,0.424935,left,0.32437,0,0,0,0,1,,,,,,,,,,,,,,,,,
,,,,,,,,11,2021-05-02_19h11.58.075,premceCat2_ses-02_part-02_label-phase2,2020.2.10,MacIntel,60,,,,,,,,,,,,,,,,0,64,64,138,1,stimuli/objects/beermug01a.jpg,right,new,282,,,,,,,,
,,,,,,,,11,2021-05-02_19h11.58.075,premceCat2_ses-02_part-02_label-phase2,2020.2.10,MacIntel,60,,,,,right,1.532525,4,0.381035,,,,,,,,0,65,65,9,1,stimuli/objects/alarmsystem.jpg,right,new,153,,,,,,,,
,,,,,,,,11,2021-05-02_19h11.58.075,premceCat2_ses-02_part-02_label-phase2,2020.2.10,MacIntel,60,,,,,left,2.0292,2,0.59401,right,0.2687,0,0,0,0,1,,,,,,,,,,,,,,,,,
,,,,,,,,11,2021-05-02_19h11.58.075,premceCat2_ses-02_part-02_label-phase2,2020.2.10,MacIntel,60,,,,,,,,,,,,,,,,0,66,66,67,1,stimuli/objects/desktopcomputer.jpg,left,old,211,,,,,,,,
,,,,,,,,11,2021-05-02_19h11.58.075,premceCat2_ses-02_part-02_label-phase2,2020.2.10,MacIntel,60,,,,,left,1.156795,2,1.491545,left,0.314285,0,0,0,0,1,,,,,,,,,,,,,,,,,
,,,,,,,,11,2021-05-02_19h11.58.075,premceCat2_ses-02_part-02_label-phase2,2020.2.10,MacIntel,60,,,,,,,,,,,,,,,,0,67,67,20,1,stimuli/objects/treadmill.jpg,left,old,164,,,,,,,,
,,,,,,,,11,2021-05-02_19h11.58.075,premceCat2_ses-02_part-02_label-phase2,2020.2.10,MacIntel,60,,,,,left,0.903795,2,0.345515,left,0.176735,0,0,0,0,1,,,,,,,,,,,,,,,,,
,,,,,,,,11,2021-05-02_19h11.58.075,premceCat2_ses-02_part-02_label-phase2,2020.2.10,MacIntel,60,,,,,,,,,,,,,,,,0,68,68,140,1,stimuli/objects/wineglass01.jpg,right,new,284,,,,,,,,
,,,,,,,,11,2021-05-02_19h11.58.075,premceCat2_ses-02_part-02_label-phase2,2020.2.10,MacIntel,60,,,,,right,1.028925,1,0.286325,,,,,,,,0,69,69,121,1,stimuli/objects/parachute.jpg,right,new,265,,,,,,,,
,,,,,,,,11,2021-05-02_19h11.58.075,premceCat2_ses-02_part-02_label-phase2,2020.2.10,MacIntel,60,,,,,left,0.89752,2,0.319565,left,0.58191,0,0,0,0,1,,,,,,,,,,,,,,,,,
,,,,,,,,11,2021-05-02_19h11.58.075,premceCat2_ses-02_part-02_label-phase2,2020.2.10,MacIntel,60,,,,,,,,,,,,,,,,0,70,70,63,1,stimuli/objects/coffeepot03a.jpg,left,old,207,,,,,,,,
,,,,,,,,11,2021-05-02_19h11.58.075,premceCat2_ses-02_part-02_label-phase2,2020.2.10,MacIntel,60,,,,,right,2.624085,1,0.1486,,,,,,,,0,71,71,27,1,stimuli/objects/level03a.jpg,left,old,171,,,,,,,,
,,,,,,,,11,2021-05-02_19h11.58.075,premceCat2_ses-02_part-02_label-phase2,2020.2.10,MacIntel,60,,,,,left,1.0261,2,0.63939,right,0.48499,0,0,0,0,1,,,,,,,,,,,,,,,,,
,,,,,,,,11,2021-05-02_19h11.58.075,premceCat2_ses-02_part-02_label-phase2,2020.2.10,MacIntel,60,,,,,,,,,,,,,,,,0,72,72,106,1,stimuli/objects/phonejack.jpg,left,old,250,,,,,,,,
,,,,,,,,11,2021-05-02_19h11.58.075,premceCat2_ses-02_part-02_label-phase2,2020.2.10,MacIntel,60,,,,,left,1.59955,2,0.564065,right,0.655685,0,0,0,0,1,,,,,,,,,,,,,,,,,
,,,,,,,,11,2021-05-02_19h11.58.075,premceCat2_ses-02_part-02_label-phase2,2020.2.10,MacIntel,60,,,,,,,,,,,,,,,,0,73,73,61,1,stimuli/objects/flooringstapler.jpg,left,old,205,,,,,,,,
,,,,,,,,11,2021-05-02_19h11.58.075,premceCat2_ses-02_part-02_label-phase2,2020.2.10,MacIntel,60,,,,,right,1.569805,1,0.445475,,,,,,,,0,74,74,59,1,stimuli/objects/speedball.jpg,right,new,203,,,,,,,,
,,,,,,,,11,2021-05-02_19h11.58.075,premceCat2_ses-02_part-02_label-phase2,2020.2.10,MacIntel,60,,,,,right,1.240765,1,0.35913,,,,,,,,0,75,75,70,1,stimuli/objects/shovel01.jpg,right,new,214,,,,,,,,
,,,,,,,,11,2021-05-02_19h11.58.075,premceCat2_ses-02_part-02_label-phase2,2020.2.10,MacIntel,60,,,,,right,1.21551,2,0.32684,,,,,,,,0,76,76,98,1,stimuli/objects/cameracase01a.jpg,right,new,242,,,,,,,,
,,,,,,,,11,2021-05-02_19h11.58.075,premceCat2_ses-02_part-02_label-phase2,2020.2.10,MacIntel,60,,,,,left,1.463805,2,0.40918,right,0.778785,0,0,0,0,1,,,,,,,,,,,,,,,,,
,,,,,,,,11,2021-05-02_19h11.58.075,premceCat2_ses-02_part-02_label-phase2,2020.2.10,MacIntel,60,,,,,,,,,,,,,,,,0,77,77,94,1,stimuli/objects/file.jpg,right,new,238,,,,,,,,
,,,,,,,,11,2021-05-02_19h11.58.075,premceCat2_ses-02_part-02_label-phase2,2020.2.10,MacIntel,60,,,,,left,1.537005,4,0.352045,right,0.38186,0,0,0,0,1,,,,,,,,,,,,,,,,,
,,,,,,,,11,2021-05-02_19h11.58.075,premceCat2_ses-02_part-02_label-phase2,2020.2.10,MacIntel,60,,,,,,,,,,,,,,,,0,78,78,118,1,stimuli/objects/caulking.jpg,left,old,262,,,,,,,,
,,,,,,,,11,2021-05-02_19h11.58.075,premceCat2_ses-02_part-02_label-phase2,2020.2.10,MacIntel,60,,,,,left,2.037615,2,0.75326,right,0.844375,0,0,0,0,1,,,,,,,,,,,,,,,,,
,,,,,,,,11,2021-05-02_19h11.58.075,premceCat2_ses-02_part-02_label-phase2,2020.2.10,MacIntel,60,,,,,,,,,,,,,,,,0,79,79,22,1,stimuli/objects/aircompressor.jpg,left,old,166,,,,,,,,
,,,,,,,,11,2021-05-02_19h11.58.075,premceCat2_ses-02_part-02_label-phase2,2020.2.10,MacIntel,60,,,,,left,0.88755,2,0.352185,right,1.87722,0,0,0,0,1,,,,,,,,,,,,,,,,,
,,,,,,,,11,2021-05-02_19h11.58.075,premceCat2_ses-02_part-02_label-phase2,2020.2.10,MacIntel,60,,,,,,,,,,,,,,,,0,80,80,18,1,stimuli/objects/fanblades.jpg,left,old,162,,,,,,,,
,,,,,,,,11,2021-05-02_19h11.58.075,premceCat2_ses-02_part-02_label-phase2,2020.2.10,MacIntel,60,,,,,left,1.311075,2,2.51818,right,0.47113,0,0,0,0,1,,,,,,,,,,,,,,,,,
,,,,,,,,11,2021-05-02_19h11.58.075,premceCat2_ses-02_part-02_label-phase2,2020.2.10,MacIntel,60,,,,,,,,,,,,,,,,0,81,81,113,1,stimuli/objects/sewingmachine01a.jpg,left,old,257,,,,,,,,
,,,,,,,,11,2021-05-02_19h11.58.075,premceCat2_ses-02_part-02_label-phase2,2020.2.10,MacIntel,60,,,,,left,1.889345,1,0.673545,left,0.31853,0,0,0,0,1,,,,,,,,,,,,,,,,,
,,,,,,,,11,2021-05-02_19h11.58.075,premceCat2_ses-02_part-02_label-phase2,2020.2.10,MacIntel,60,,,,,,,,,,,,,,,,0,82,82,83,1,stimuli/objects/icecubetray01a.jpg,right,new,227,,,,,,,,
,,,,,,,,11,2021-05-02_19h11.58.075,premceCat2_ses-02_part-02_label-phase2,2020.2.10,MacIntel,60,,,,,left,1.10254,4,0.722615,right,0.265335,0,0,0,0,1,,,,,,,,,,,,,,,,,
,,,,,,,,11,2021-05-02_19h11.58.075,premceCat2_ses-02_part-02_label-phase2,2020.2.10,MacIntel,60,,,,,,,,,,,,,,,,0,83,83,29,1,stimuli/objects/slidetray.jpg,left,old,173,,,,,,,,
,,,,,,,,11,2021-05-02_19h11.58.075,premceCat2_ses-02_part-02_label-phase2,2020.2.10,MacIntel,60,,,,,right,1.18631,1,0.41998,,,,,,,,0,84,84,68,1,stimuli/objects/ladle02a.jpg,right,new,212,,,,,,,,
,,,,,,,,11,2021-05-02_19h11.58.075,premceCat2_ses-02_part-02_label-phase2,2020.2.10,MacIntel,60,,,,,left,1.59319,4,0.534995,right,0.64838,0,0,0,0,1,,,,,,,,,,,,,,,,,
,,,,,,,,11,2021-05-02_19h11.58.075,premceCat2_ses-02_part-02_label-phase2,2020.2.10,MacIntel,60,,,,,,,,,,,,,,,,0,85,85,13,1,stimuli/objects/gardenshears01a.jpg,left,old,157,,,,,,,,
,,,,,,,,11,2021-05-02_19h11.58.075,premceCat2_ses-02_part-02_label-phase2,2020.2.10,MacIntel,60,,,,,left,1.74609,1,1.15758,left,0.921605,0,0,0,0,1,,,,,,,,,,,,,,,,,
,,,,,,,,11,2021-05-02_19h11.58.075,premceCat2_ses-02_part-02_label-phase2,2020.2.10,MacIntel,60,,,,,,,,,,,,,,,,0,86,86,129,1,stimuli/objects/bucket02.jpg,left,old,273,,,,,,,,
,,,,,,,,11,2021-05-02_19h11.58.075,premceCat2_ses-02_part-02_label-phase2,2020.2.10,MacIntel,60,,,,,right,1.14244,1,0.280435,,,,,,,,0,87,87,85,1,stimuli/objects/lamp04a.jpg,left,old,229,,,,,,,,
,,,,,,,,11,2021-05-02_19h11.58.075,premceCat2_ses-02_part-02_label-phase2,2020.2.10,MacIntel,60,,,,,left,0.836325,4,0.574225,left,0.269985,0,0,0,0,1,,,,,,,,,,,,,,,,,
,,,,,,,,11,2021-05-02_19h11.58.075,premceCat2_ses-02_part-02_label-phase2,2020.2.10,MacIntel,60,,,,,,,,,,,,,,,,0,88,88,42,1,stimuli/objects/tennisracket.jpg,right,new,186,,,,,,,,
,,,,,,,,11,2021-05-02_19h11.58.075,premceCat2_ses-02_part-02_label-phase2,2020.2.10,MacIntel,60,,,,,left,0.91183,4,0.359665,left,0.140765,0,0,0,0,1,,,,,,,,,,,,,,,,,
,,,,,,,,11,2021-05-02_19h11.58.075,premceCat2_ses-02_part-02_label-phase2,2020.2.10,MacIntel,60,,,,,,,,,,,,,,,,0,89,89,84,1,stimuli/objects/hockeygoalieglove.jpg,left,old,228,,,,,,,,
,,,,,,,,11,2021-05-02_19h11.58.075,premceCat2_ses-02_part-02_label-phase2,2020.2.10,MacIntel,60,,,,,left,1.84739,4,0.931105,left,0.065465,0,0,0,0,1,,,,,,,,,,,,,,,,,
,,,,,,,,11,2021-05-02_19h11.58.075,premceCat2_ses-02_part-02_label-phase2,2020.2.10,MacIntel,60,,,,,,,,,,,,,,,,0,90,90,90,1,stimuli/objects/fishinghook03.jpg,left,old,234,,,,,,,,
,,,,,,,,11,2021-05-02_19h11.58.075,premceCat2_ses-02_part-02_label-phase2,2020.2.10,MacIntel,60,,,,,left,1.20605,4,0.192715,right,0.51619,0,0,0,0,1,,,,,,,,,,,,,,,,,
,,,,,,,,11,2021-05-02_19h11.58.075,premceCat2_ses-02_part-02_label-phase2,2020.2.10,MacIntel,60,,,,,,,,,,,,,,,,0,91,91,52,1,stimuli/objects/usbkey.jpg,left,old,196,,,,,,,,
,,,,,,,,11,2021-05-02_19h11.58.075,premceCat2_ses-02_part-02_label-phase2,2020.2.10,MacIntel,60,,,,,left,0.85801,4,0.42597,left,0.259455,0,0,0,0,1,,,,,,,,,,,,,,,,,
,,,,,,,,11,2021-05-02_19h11.58.075,premceCat2_ses-02_part-02_label-phase2,2020.2.10,MacIntel,60,,,,,,,,,,,,,,,,0,92,92,47,1,stimuli/objects/plate01b.jpg,right,new,191,,,,,,,,
,,,,,,,,11,2021-05-02_19h11.58.075,premceCat2_ses-02_part-02_label-phase2,2020.2.10,MacIntel,60,,,,,left,0.68953,4,0.929565,left,0.369075,0,0,0,0,1,,,,,,,,,,,,,,,,,
,,,,,,,,11,2021-05-02_19h11.58.075,premceCat2_ses-02_part-02_label-phase2,2020.2.10,MacIntel,60,,,,,,,,,,,,,,,,0,93,93,119,1,stimuli/objects/servingspoon01.jpg,left,old,263,,,,,,,,
,,,,,,,,11,2021-05-02_19h11.58.075,premceCat2_ses-02_part-02_label-phase2,2020.2.10,MacIntel,60,,,,,left,0.828165,4,0.22244,right,0.298895,0,0,0,0,1,,,,,,,,,,,,,,,,,
,,,,,,,,11,2021-05-02_19h11.58.075,premceCat2_ses-02_part-02_label-phase2,2020.2.10,MacIntel,60,,,,,,,,,,,,,,,,0,94,94,115,1,stimuli/objects/toothpick02.jpg,left,old,259,,,,,,,,
,,,,,,,,11,2021-05-02_19h11.58.075,premceCat2_ses-02_part-02_label-phase2,2020.2.10,MacIntel,60,,,,,left,0.79535,4,0.109065,right,0.166775,0,0,0,0,1,,,,,,,,,,,,,,,,,
,,,,,,,,11,2021-05-02_19h11.58.075,premceCat2_ses-02_part-02_label-phase2,2020.2.10,MacIntel,60,,,,,,,,,,,,,,,,0,95,95,97,1,stimuli/objects/peeler01.jpg,left,old,241,,,,,,,,
,,,,,,,,11,2021-05-02_19h11.58.075,premceCat2_ses-02_part-02_label-phase2,2020.2.10,MacIntel,60,,,,,left,1.557215,4,0.34013,right,0.917415,0,0,0,0,1,,,,,,,,,,,,,,,,,
,,,,,,,,11,2021-05-02_19h11.58.075,premceCat2_ses-02_part-02_label-phase2,2020.2.10,MacIntel,60,,,,,,,,,,,,,,,,0,96,96,91,1,stimuli/objects/cuttingpliers02.jpg,right,new,235,,,,,,,,
,,,,,,,,11,2021-05-02_19h11.58.075,premceCat2_ses-02_part-02_label-phase2,2020.2.10,MacIntel,60,,,,,right,1.0397,1,0.341215,,,,,,,,0,97,97,136,1,stimuli/objects/skihelmet01.jpg,left,old,280,,,,,,,,
,,,,,,,,11,2021-05-02_19h11.58.075,premceCat2_ses-02_part-02_label-phase2,2020.2.10,MacIntel,60,,,,,left,0.96807,2,0.30782,right,0.416875,0,0,0,0,1,,,,,,,,,,,,,,,,,
,,,,,,,,11,2021-05-02_19h11.58.075,premceCat2_ses-02_part-02_label-phase2,2020.2.10,MacIntel,60,,,,,,,,,,,,,,,,0,98,98,1,1,stimuli/objects/satellitedish01.jpg,left,old,145,,,,,,,,
,,,,,,,,11,2021-05-02_19h11.58.075,premceCat2_ses-02_part-02_label-phase2,2020.2.10,MacIntel,60,,,,,left,0.96458,4,0.670095,left,0.24875,0,0,0,0,1,,,,,,,,,,,,,,,,,
,,,,,,,,11,2021-05-02_19h11.58.075,premceCat2_ses-02_part-02_label-phase2,2020.2.10,MacIntel,60,,,,,,,,,,,,,,,,0,99,99,56,1,stimuli/objects/cork02.jpg,left,old,200,,,,,,,,
,,,,,,,,11,2021-05-02_19h11.58.075,premceCat2_ses-02_part-02_label-phase2,2020.2.10,MacIntel,60,,,,,left,1.00392,2,0.38913,right,0.39392,0,0,0,0,1,,,,,,,,,,,,,,,,,
,,,,,,,,11,2021-05-02_19h11.58.075,premceCat2_ses-02_part-02_label-phase2,2020.2.10,MacIntel,60,,,,,,,,,,,,,,,,0,100,100,36,1,stimuli/objects/loppingshears.jpg,right,new,180,,,,,,,,
,,,,,,,,11,2021-05-02_19h11.58.075,premceCat2_ses-02_part-02_label-phase2,2020.2.10,MacIntel,60,,,,,left,1.05534,2,0.662695,left,0.28253,0,0,0,0,1,,,,,,,,,,,,,,,,,
,,,,,,,,11,2021-05-02_19h11.58.075,premceCat2_ses-02_part-02_label-phase2,2020.2.10,MacIntel,60,,,,,,,,,,,,,,,,0,101,101,64,1,stimuli/objects/exercisemachine.jpg,left,old,208,,,,,,,,
,,,,,,,,11,2021-05-02_19h11.58.075,premceCat2_ses-02_part-02_label-phase2,2020.2.10,MacIntel,60,,,,,right,2.806195,1,0.75953,,,,,,,,0,102,102,73,1,stimuli/objects/shinpad.jpg,left,old,217,,,,,,,,
,,,,,,,,11,2021-05-02_19h11.58.075,premceCat2_ses-02_part-02_label-phase2,2020.2.10,MacIntel,60,,,,,right,0.928015,2,0.75565,,,,,,,,0,103,103,39,1,stimuli/objects/wafflemaker.jpg,right,new,183,,,,,,,,
,,,,,,,,11,2021-05-02_19h11.58.075,premceCat2_ses-02_part-02_label-phase2,2020.2.10,MacIntel,60,,,,,right,1.28635,4,0.34732,,,,,,,,0,104,104,95,1,stimuli/objects/tennisball01b.jpg,right,new,239,,,,,,,,
,,,,,,,,11,2021-05-02_19h11.58.075,premceCat2_ses-02_part-02_label-phase2,2020.2.10,MacIntel,60,,,,,left,2.629885,2,0.41106,right,0.35416,0,0,0,0,1,,,,,,,,,,,,,,,,,
,,,,,,,,11,2021-05-02_19h11.58.075,premceCat2_ses-02_part-02_label-phase2,2020.2.10,MacIntel,60,,,,,,,,,,,,,,,,0,105,105,134,1,stimuli/objects/electricoutlet.jpg,left,old,278,,,,,,,,
,,,,,,,,11,2021-05-02_19h11.58.075,premceCat2_ses-02_part-02_label-phase2,2020.2.10,MacIntel,60,,,,,right,1.30371,4,1.304865,,,,,,,,0,106,106,0,1,stimuli/objects/smokedetector02.jpg,right,new,144,,,,,,,,
,,,,,,,,11,2021-05-02_19h11.58.075,premceCat2_ses-02_part-02_label-phase2,2020.2.10,MacIntel,60,,,,,left,1.86578,2,0.59083,right,2.250695,0,0,0,0,1,,,,,,,,,,,,,,,,,
,,,,,,,,11,2021-05-02_19h11.58.075,premceCat2_ses-02_part-02_label-phase2,2020.2.10,MacIntel,60,,,,,,,,,,,,,,,,0,107,107,54,1,stimuli/objects/ladder.jpg,left,old,198,,,,,,,,
,,,,,,,,11,2021-05-02_19h11.58.075,premceCat2_ses-02_part-02_label-phase2,2020.2.10,MacIntel,60,,,,,left,2.684555,2,0.158315,right,1.1987,0,0,0,0,1,,,,,,,,,,,,,,,,,
,,,,,,,,11,2021-05-02_19h11.58.075,premceCat2_ses-02_part-02_label-phase2,2020.2.10,MacIntel,60,,,,,,,,,,,,,,,,0,108,108,116,1,stimuli/objects/lockingplier.jpg,right,new,260,,,,,,,,
,,,,,,,,11,2021-05-02_19h11.58.075,premceCat2_ses-02_part-02_label-phase2,2020.2.10,MacIntel,60,,,,,right,1.385815,1,0.600475,,,,,,,,0,109,109,46,1,stimuli/objects/waterbottleholder.jpg,right,new,190,,,,,,,,
,,,,,,,,11,2021-05-02_19h11.58.075,premceCat2_ses-02_part-02_label-phase2,2020.2.10,MacIntel,60,,,,,left,1.266195,2,0.33408,right,0.552935,0,0,0,0,1,,,,,,,,,,,,,,,,,
,,,,,,,,11,2021-05-02_19h11.58.075,premceCat2_ses-02_part-02_label-phase2,2020.2.10,MacIntel,60,,,,,,,,,,,,,,,,0,110,110,51,1,stimuli/objects/cheeseknife01.jpg,right,new,195,,,,,,,,
,,,,,,,,11,2021-05-02_19h11.58.075,premceCat2_ses-02_part-02_label-phase2,2020.2.10,MacIntel,60,,,,,right,6.66517,2,1.060225,,,,,,,,0,111,111,15,1,stimuli/objects/computermouse06.jpg,right,new,159,,,,,,,,
,,,,,,,,11,2021-05-02_19h11.58.075,premceCat2_ses-02_part-02_label-phase2,2020.2.10,MacIntel,60,,,,,right,1.027745,2,0.290725,,,,,,,,0,112,112,78,1,stimuli/objects/lightswitch01.jpg,right,new,222,,,,,,,,
,,,,,,,,11,2021-05-02_19h11.58.075,premceCat2_ses-02_part-02_label-phase2,2020.2.10,MacIntel,60,,,,,right,1.497805,1,1.136715,,,,,,,,0,113,113,11,1,stimuli/objects/airconditioner.jpg,left,old,155,,,,,,,,
,,,,,,,,11,2021-05-02_19h11.58.075,premceCat2_ses-02_part-02_label-phase2,2020.2.10,MacIntel,60,,,,,left,1.08168,4,0.94325,left,1.56639,0,0,0,0,1,,,,,,,,,,,,,,,,,
,,,,,,,,11,2021-05-02_19h11.58.075,premceCat2_ses-02_part-02_label-phase2,2020.2.10,MacIntel,60,,,,,,,,,,,,,,,,0,114,114,72,1,stimuli/objects/paintroller01.jpg,left,old,216,,,,,,,,
,,,,,,,,11,2021-05-02_19h11.58.075,premceCat2_ses-02_part-02_label-phase2,2020.2.10,MacIntel,60,,,,,left,1.04809,2,0.2534,right,0.30581,0,0,0,0,1,,,,,,,,,,,,,,,,,
,,,,,,,,11,2021-05-02_19h11.58.075,premceCat2_ses-02_part-02_label-phase2,2020.2.10,MacIntel,60,,,,,,,,,,,,,,,,0,115,115,43,1,stimuli/objects/bowrake.jpg,right,new,187,,,,,,,,
,,,,,,,,11,2021-05-02_19h11.58.075,premceCat2_ses-02_part-02_label-phase2,2020.2.10,MacIntel,60,,,,,left,2.482835,2,0.30949,left,0.261815,0,0,0,0,1,,,,,,,,,,,,,,,,,
,,,,,,,,11,2021-05-02_19h11.58.075,premceCat2_ses-02_part-02_label-phase2,2020.2.10,MacIntel,60,,,,,,,,,,,,,,,,0,116,116,74,1,stimuli/objects/patioumbrella.jpg,left,old,218,,,,,,,,
,,,,,,,,11,2021-05-02_19h11.58.075,premceCat2_ses-02_part-02_label-phase2,2020.2.10,MacIntel,60,,,,,left,0.887175,4,0.304465,left,0.294085,0,0,0,0,1,,,,,,,,,,,,,,,,,
,,,,,,,,11,2021-05-02_19h11.58.075,premceCat2_ses-02_part-02_label-phase2,2020.2.10,MacIntel,60,,,,,,,,,,,,,,,,0,117,117,110,1,stimuli/objects/fishingrod.jpg,left,old,254,,,,,,,,
,,,,,,,,11,2021-05-02_19h11.58.075,premceCat2_ses-02_part-02_label-phase2,2020.2.10,MacIntel,60,,,,,left,0.818055,4,0.30463,left,0.06192,0,0,0,0,1,,,,,,,,,,,,,,,,,
,,,,,,,,11,2021-05-02_19h11.58.075,premceCat2_ses-02_part-02_label-phase2,2020.2.10,MacIntel,60,,,,,,,,,,,,,,,,0,118,118,19,1,stimuli/objects/mug01.jpg,right,new,163,,,,,,,,
,,,,,,,,11,2021-05-02_19h11.58.075,premceCat2_ses-02_part-02_label-phase2,2020.2.10,MacIntel,60,,,,,left,1.035715,4,0.315135,right,1.1846,0,0,0,0,1,,,,,,,,,,,,,,,,,
,,,,,,,,11,2021-05-02_19h11.58.075,premceCat2_ses-02_part-02_label-phase2,2020.2.10,MacIntel,60,,,,,,,,,,,,,,,,0,119,119,104,1,stimuli/objects/securitycamera.jpg,left,old,248,,,,,,,,
,,,,,,,,11,2021-05-02_19h11.58.075,premceCat2_ses-02_part-02_label-phase2,2020.2.10,MacIntel,60,,,,,left,1.45392,2,0.33038,right,0.516825,0,0,0,0,1,,,,,,,,,,,,,,,,,
,,,,,,,,11,2021-05-02_19h11.58.075,premceCat2_ses-02_part-02_label-phase2,2020.2.10,MacIntel,60,,,,,,,,,,,,,,,,0,120,120,132,1,stimuli/objects/wirestripper.jpg,right,new,276,,,,,,,,
,,,,,,,,11,2021-05-02_19h11.58.075,premceCat2_ses-02_part-02_label-phase2,2020.2.10,MacIntel,60,,,,,left,1.28911,3,0.622145,left,0.44213,0,0,0,0,1,,,,,,,,,,,,,,,,,
,,,,,,,,11,2021-05-02_19h11.58.075,premceCat2_ses-02_part-02_label-phase2,2020.2.10,MacIntel,60,,,,,,,,,,,,,,,,0,121,121,89,1,stimuli/objects/rollingpin01a.jpg,left,old,233,,,,,,,,
,,,,,,,,11,2021-05-02_19h11.58.075,premceCat2_ses-02_part-02_label-phase2,2020.2.10,MacIntel,60,,,,,left,1.187285,4,0.9252,left,0.01908,0,0,0,0,1,,,,,,,,,,,,,,,,,
,,,,,,,,11,2021-05-02_19h11.58.075,premceCat2_ses-02_part-02_label-phase2,2020.2.10,MacIntel,60,,,,,,,,,,,,,,,,0,122,122,109,1,stimuli/objects/saladspinner.jpg,left,old,253,,,,,,,,
,,,,,,,,11,2021-05-02_19h11.58.075,premceCat2_ses-02_part-02_label-phase2,2020.2.10,MacIntel,60,,,,,right,1.71034,1,0.270955,,,,,,,,0,123,123,123,1,stimuli/objects/jackhammer.jpg,right,new,267,,,,,,,,
,,,,,,,,11,2021-05-02_19h11.58.075,premceCat2_ses-02_part-02_label-phase2,2020.2.10,MacIntel,60,,,,,left,0.86145,4,0.29379,left,0.2859,0,0,0,0,1,,,,,,,,,,,,,,,,,
,,,,,,,,11,2021-05-02_19h11.58.075,premceCat2_ses-02_part-02_label-phase2,2020.2.10,MacIntel,60,,,,,,,,,,,,,,,,0,124,124,117,1,stimuli/objects/snowboard.jpg,left,old,261,,,,,,,,
,,,,,,,,11,2021-05-02_19h11.58.075,premceCat2_ses-02_part-02_label-phase2,2020.2.10,MacIntel,60,,,,,left,1.158585,4,0.27348,right,0.271725,0,0,0,0,1,,,,,,,,,,,,,,,,,
,,,,,,,,11,2021-05-02_19h11.58.075,premceCat2_ses-02_part-02_label-phase2,2020.2.10,MacIntel,60,,,,,,,,,,,,,,,,0,125,125,76,1,stimuli/objects/papershredder.jpg,left,old,220,,,,,,,,
,,,,,,,,11,2021-05-02_19h11.58.075,premceCat2_ses-02_part-02_label-phase2,2020.2.10,MacIntel,60,,,,,left,0.928735,4,0.53256,left,0.314235,0,0,0,0,1,,,,,,,,,,,,,,,,,
,,,,,,,,11,2021-05-02_19h11.58.075,premceCat2_ses-02_part-02_label-phase2,2020.2.10,MacIntel,60,,,,,,,,,,,,,,,,0,126,126,105,1,stimuli/objects/spicerack.jpg,left,old,249,,,,,,,,
,,,,,,,,11,2021-05-02_19h11.58.075,premceCat2_ses-02_part-02_label-phase2,2020.2.10,MacIntel,60,,,,,left,0.977805,1,1.47154,right,1.035525,0,0,0,0,1,,,,,,,,,,,,,,,,,
,,,,,,,,11,2021-05-02_19h11.58.075,premceCat2_ses-02_part-02_label-phase2,2020.2.10,MacIntel,60,,,,,,,,,,,,,,,,0,127,127,14,1,stimuli/objects/weight01.jpg,left,old,158,,,,,,,,
,,,,,,,,11,2021-05-02_19h11.58.075,premceCat2_ses-02_part-02_label-phase2,2020.2.10,MacIntel,60,,,,,left,0.790585,2,0.192725,left,0.233425,0,0,0,0,1,,,,,,,,,,,,,,,,,
,,,,,,,,11,2021-05-02_19h11.58.075,premceCat2_ses-02_part-02_label-phase2,2020.2.10,MacIntel,60,,,,,,,,,,,,,,,,0,128,128,57,1,stimuli/objects/kiddiepool.jpg,left,old,201,,,,,,,,
,,,,,,,,11,2021-05-02_19h11.58.075,premceCat2_ses-02_part-02_label-phase2,2020.2.10,MacIntel,60,,,,,left,0.61125,4,1.80767,left,0.279175,0,0,0,0,1,,,,,,,,,,,,,,,,,
,,,,,,,,11,2021-05-02_19h11.58.075,premceCat2_ses-02_part-02_label-phase2,2020.2.10,MacIntel,60,,,,,,,,,,,,,,,,0,129,129,32,1,stimuli/objects/travelmug.jpg,left,old,176,,,,,,,,
,,,,,,,,11,2021-05-02_19h11.58.075,premceCat2_ses-02_part-02_label-phase2,2020.2.10,MacIntel,60,,,,,right,1.06084,4,0.54273,,,,,,,,0,130,130,60,1,stimuli/objects/kite.jpg,right,new,204,,,,,,,,
,,,,,,,,11,2021-05-02_19h11.58.075,premceCat2_ses-02_part-02_label-phase2,2020.2.10,MacIntel,60,,,,,left,0.901165,1,0.905805,left,1.08197,0,0,0,0,1,,,,,,,,,,,,,,,,,
,,,,,,,,11,2021-05-02_19h11.58.075,premceCat2_ses-02_part-02_label-phase2,2020.2.10,MacIntel,60,,,,,,,,,,,,,,,,0,131,131,81,1,stimuli/objects/grill.jpg,right,new,225,,,,,,,,
,,,,,,,,11,2021-05-02_19h11.58.075,premceCat2_ses-02_part-02_label-phase2,2020.2.10,MacIntel,60,,,,,left,1.74143,4,0.305205,right,1.51298,0,0,0,0,1,,,,,,,,,,,,,,,,,
,,,,,,,,11,2021-05-02_19h11.58.075,premceCat2_ses-02_part-02_label-phase2,2020.2.10,MacIntel,60,,,,,,,,,,,,,,,,0,132,132,25,1,stimuli/objects/cowbell.jpg,left,old,169,,,,,,,,
,,,,,,,,11,2021-05-02_19h11.58.075,premceCat2_ses-02_part-02_label-phase2,2020.2.10,MacIntel,60,,,,,right,1.16362,1,0.405095,,,,,,,,0,133,133,49,1,stimuli/objects/cakeplatter.jpg,right,new,193,,,,,,,,
,,,,,,,,11,2021-05-02_19h11.58.075,premceCat2_ses-02_part-02_label-phase2,2020.2.10,MacIntel,60,,,,,right,0.957905,4,0.35972,,,,,,,,0,134,134,101,1,stimuli/objects/lifejacket.jpg,right,new,245,,,,,,,,
,,,,,,,,11,2021-05-02_19h11.58.075,premceCat2_ses-02_part-02_label-phase2,2020.2.10,MacIntel,60,,,,,left,0.79039,4,0.44222,left,0.47467,0,0,0,0,1,,,,,,,,,,,,,,,,,
,,,,,,,,11,2021-05-02_19h11.58.075,premceCat2_ses-02_part-02_label-phase2,2020.2.10,MacIntel,60,,,,,,,,,,,,,,,,0,135,135,79,1,stimuli/objects/bikehelmet.jpg,left,old,223,,,,,,,,
,,,,,,,,11,2021-05-02_19h11.58.075,premceCat2_ses-02_part-02_label-phase2,2020.2.10,MacIntel,60,,,,,left,0.774635,4,0.257,left,0.28052,0,0,0,0,1,,,,,,,,,,,,,,,,,
,,,,,,,,11,2021-05-02_19h11.58.075,premceCat2_ses-02_part-02_label-phase2,2020.2.10,MacIntel,60,,,,,,,,,,,,,,,,0,136,136,71,1,stimuli/objects/swimgoggles.jpg,left,old,215,,,,,,,,
,,,,,,,,11,2021-05-02_19h11.58.075,premceCat2_ses-02_part-02_label-phase2,2020.2.10,MacIntel,60,,,,,right,1.36662,2,0.61348,,,,,,,,0,137,137,69,1,stimuli/objects/straw.jpg,right,new,213,,,,,,,,
,,,,,,,,11,2021-05-02_19h11.58.075,premceCat2_ses-02_part-02_label-phase2,2020.2.10,MacIntel,60,,,,,left,0.93073,4,0.25823,left,0.290085,0,0,0,0,1,,,,,,,,,,,,,,,,,
,,,,,,,,11,2021-05-02_19h11.58.075,premceCat2_ses-02_part-02_label-phase2,2020.2.10,MacIntel,60,,,,,,,,,,,,,,,,0,138,138,77,1,stimuli/objects/bowl02a.jpg,left,old,221,,,,,,,,
,,,,,,,,11,2021-05-02_19h11.58.075,premceCat2_ses-02_part-02_label-phase2,2020.2.10,MacIntel,60,,,,,left,1.166025,2,0.75778,left,0.25688,0,0,0,0,1,,,,,,,,,,,,,,,,,
,,,,,,,,11,2021-05-02_19h11.58.075,premceCat2_ses-02_part-02_label-phase2,2020.2.10,MacIntel,60,,,,,,,,,,,,,,,,0,139,139,17,1,stimuli/objects/baseball01a.jpg,left,old,161,,,,,,,,
,,,,,,,,11,2021-05-02_19h11.58.075,premceCat2_ses-02_part-02_label-phase2,2020.2.10,MacIntel,60,,,,,left,2.01535,2,0.728245,right,0.65006,0,0,0,0,1,,,,,,,,,,,,,,,,,
,,,,,,,,11,2021-05-02_19h11.58.075,premceCat2_ses-02_part-02_label-phase2,2020.2.10,MacIntel,60,,,,,,,,,,,,,,,,0,140,140,96,1,stimuli/objects/boltcutter.jpg,left,old,240,,,,,,,,
,,,,,,,,11,2021-05-02_19h11.58.075,premceCat2_ses-02_part-02_label-phase2,2020.2.10,MacIntel,60,,,,,left,0.94221,2,0.321715,left,0.038045,0,0,0,0,1,,,,,,,,,,,,,,,,,
,,,,,,,,11,2021-05-02_19h11.58.075,premceCat2_ses-02_part-02_label-phase2,2020.2.10,MacIntel,60,,,,,,,,,,,,,,,,0,141,141,139,1,stimuli/objects/pitcher02b.jpg,left,old,283,,,,,,,,
,,,,,,,,11,2021-05-02_19h11.58.075,premceCat2_ses-02_part-02_label-phase2,2020.2.10,MacIntel,60,,,,,left,1.155235,4,0.46693,left,0.23655,0,0,0,0,1,,,,,,,,,,,,,,,,,
,,,,,,,,11,2021-05-02_19h11.58.075,premceCat2_ses-02_part-02_label-phase2,2020.2.10,MacIntel,60,,,,,,,,,,,,,,,,0,142,142,126,1,stimuli/objects/bikewheel.jpg,left,old,270,,,,,,,,
,,,,,,,,11,2021-05-02_19h11.58.075,premceCat2_ses-02_part-02_label-phase2,2020.2.10,MacIntel,60,,,,,,,,,,,,,,,,,,,,,,,,,space,4.600875,0,1,1,1,1,condition_files/ImagesforRecog4_2.csv
