instructions_loop.thisRepN,instructions_loop.thisTrialN,instructions_loop.thisN,instructions_loop.thisIndex,instructions_loop.ran,text1,text2,text3,participant,date,expName,psychopyVersion,OS,frameRate,key_resp_2.keys,key_resp_2.rt,key_resp_3.keys,key_resp_3.rt,recog_resp.keys,recog_resp.rt,conf_resp.keys,conf_resp.rt,resp_assoc.keys,resp_assoc.rt,assoc_loop.thisRepN,assoc_loop.thisTrialN,assoc_loop.thisN,assoc_loop.thisIndex,assoc_loop.ran,recog_loop.thisRepN,recog_loop.thisTrialN,recog_loop.thisN,recog_loop.thisIndex,recog_loop.ran,images,corr_ans,type,order,key_resp_break.keys,key_resp_break.rt,list_loop.thisRepN,list_loop.thisTrialN,list_loop.thisN,list_loop.thisIndex,list_loop.ran,recog_list
0,0,0,0,1,Welcome to the last phase of this experiment!,.,Please press the space bar to continue,12,2021-05-04_15h34.29.044,premceCat2_ses-02_part-02_label-phase2,2020.2.10,MacIntel,60,,,,,,,,,,,,,,,,,,,,,,,,,,,,,,,,
0,1,1,1,1,.,"In this phase, you will see some objects. 

For each object, you should indicate whether you have seen it before during the experiment.

Press LEFT ARROW for YES
Press RIGHT ARROW for NO

",Please press the space bar to continue ,12,2021-05-04_15h34.29.044,premceCat2_ses-02_part-02_label-phase2,2020.2.10,MacIntel,60,,,,,,,,,,,,,,,,,,,,,,,,,,,,,,,,
0,2,2,2,1,.,"After that, you will be asked how confident you are of your choice.

Please rate the confidence in your choice with the numbers from 1 to 4 of your keyboard. 

The numbers correspond to:

1 = Very unsure
2 = Unsure
3 = Sure
4 = Very Sure",Please press the space bar to continue,12,2021-05-04_15h34.29.044,premceCat2_ses-02_part-02_label-phase2,2020.2.10,MacIntel,60,,,,,,,,,,,,,,,,,,,,,,,,,,,,,,,,
,,,,,,,,12,2021-05-04_15h34.29.044,premceCat2_ses-02_part-02_label-phase2,2020.2.10,MacIntel,60,space,15.604,space,11.232,left,3.151,4,2.485,right,7.023,0,0,0,0,1,,,,,,,,,,,,,,,,,
,,,,,,,,12,2021-05-04_15h34.29.044,premceCat2_ses-02_part-02_label-phase2,2020.2.10,MacIntel,60,,,,,,,,,,,,,,,,0,0,0,37,1,stimuli/objects/aircompressor.jpg,left,old,38,,,,,,,,
,,,,,,,,12,2021-05-04_15h34.29.044,premceCat2_ses-02_part-02_label-phase2,2020.2.10,MacIntel,60,,,,,right,4.811,1,0.964,,,,,,,,0,1,1,128,1,stimuli/objects/tripod01.jpg,right,new,129,,,,,,,,
,,,,,,,,12,2021-05-04_15h34.29.044,premceCat2_ses-02_part-02_label-phase2,2020.2.10,MacIntel,60,,,,,left,2.232,4,1.369,right,2.258,0,0,0,0,1,,,,,,,,,,,,,,,,,
,,,,,,,,12,2021-05-04_15h34.29.044,premceCat2_ses-02_part-02_label-phase2,2020.2.10,MacIntel,60,,,,,,,,,,,,,,,,0,2,2,87,1,stimuli/objects/coffeemachine.jpg,left,old,88,,,,,,,,
,,,,,,,,12,2021-05-04_15h34.29.044,premceCat2_ses-02_part-02_label-phase2,2020.2.10,MacIntel,60,,,,,left,2.574,2,1.584,right,1.207,0,0,0,0,1,,,,,,,,,,,,,,,,,
,,,,,,,,12,2021-05-04_15h34.29.044,premceCat2_ses-02_part-02_label-phase2,2020.2.10,MacIntel,60,,,,,,,,,,,,,,,,0,3,3,134,1,stimuli/objects/screwdriver04b.jpg,right,new,135,,,,,,,,
,,,,,,,,12,2021-05-04_15h34.29.044,premceCat2_ses-02_part-02_label-phase2,2020.2.10,MacIntel,60,,,,,right,4.317,1,0.541,,,,,,,,0,4,4,94,1,stimuli/objects/electricmixer.jpg,right,new,95,,,,,,,,
,,,,,,,,12,2021-05-04_15h34.29.044,premceCat2_ses-02_part-02_label-phase2,2020.2.10,MacIntel,60,,,,,left,2.666,4,2.965,right,2.148,0,0,0,0,1,,,,,,,,,,,,,,,,,
,,,,,,,,12,2021-05-04_15h34.29.044,premceCat2_ses-02_part-02_label-phase2,2020.2.10,MacIntel,60,,,,,,,,,,,,,,,,0,5,5,1,1,stimuli/objects/headphones02b.jpg,left,old,2,,,,,,,,
,,,,,,,,12,2021-05-04_15h34.29.044,premceCat2_ses-02_part-02_label-phase2,2020.2.10,MacIntel,60,,,,,left,1.942,4,1.349,left,0.693,0,0,0,0,1,,,,,,,,,,,,,,,,,
,,,,,,,,12,2021-05-04_15h34.29.044,premceCat2_ses-02_part-02_label-phase2,2020.2.10,MacIntel,60,,,,,,,,,,,,,,,,0,6,6,70,1,stimuli/objects/oven.jpg,left,old,71,,,,,,,,
,,,,,,,,12,2021-05-04_15h34.29.044,premceCat2_ses-02_part-02_label-phase2,2020.2.10,MacIntel,60,,,,,right,3.447,3,1.028,,,,,,,,0,7,7,26,1,stimuli/objects/boogieboard.jpg,right,new,27,,,,,,,,
,,,,,,,,12,2021-05-04_15h34.29.044,premceCat2_ses-02_part-02_label-phase2,2020.2.10,MacIntel,60,,,,,left,1.365,4,1.666,left,2.056,0,0,0,0,1,,,,,,,,,,,,,,,,,
,,,,,,,,12,2021-05-04_15h34.29.044,premceCat2_ses-02_part-02_label-phase2,2020.2.10,MacIntel,60,,,,,,,,,,,,,,,,0,8,8,67,1,stimuli/objects/lifesaver.jpg,left,old,68,,,,,,,,
,,,,,,,,12,2021-05-04_15h34.29.044,premceCat2_ses-02_part-02_label-phase2,2020.2.10,MacIntel,60,,,,,right,3.966,2,0.833,,,,,,,,0,9,9,22,1,stimuli/objects/umbrella04.jpg,right,new,23,,,,,,,,
,,,,,,,,12,2021-05-04_15h34.29.044,premceCat2_ses-02_part-02_label-phase2,2020.2.10,MacIntel,60,,,,,right,5.232,2,0.862,,,,,,,,0,10,10,71,1,stimuli/objects/faxmachine.jpg,right,new,72,,,,,,,,
,,,,,,,,12,2021-05-04_15h34.29.044,premceCat2_ses-02_part-02_label-phase2,2020.2.10,MacIntel,60,,,,,right,4.034,2,1.632,,,,,,,,0,11,11,4,1,stimuli/objects/microphone01.jpg,right,new,5,,,,,,,,
,,,,,,,,12,2021-05-04_15h34.29.044,premceCat2_ses-02_part-02_label-phase2,2020.2.10,MacIntel,60,,,,,left,2.568,3,1.201,right,1.081,0,0,0,0,1,,,,,,,,,,,,,,,,,
,,,,,,,,12,2021-05-04_15h34.29.044,premceCat2_ses-02_part-02_label-phase2,2020.2.10,MacIntel,60,,,,,,,,,,,,,,,,0,12,12,72,1,stimuli/objects/cclamp.jpg,right,new,73,,,,,,,,
,,,,,,,,12,2021-05-04_15h34.29.044,premceCat2_ses-02_part-02_label-phase2,2020.2.10,MacIntel,60,,,,,left,1.628,4,1.309,left,0.39,0,0,0,0,1,,,,,,,,,,,,,,,,,
,,,,,,,,12,2021-05-04_15h34.29.044,premceCat2_ses-02_part-02_label-phase2,2020.2.10,MacIntel,60,,,,,,,,,,,,,,,,0,13,13,85,1,stimuli/objects/golfball.jpg,right,new,86,,,,,,,,
,,,,,,,,12,2021-05-04_15h34.29.044,premceCat2_ses-02_part-02_label-phase2,2020.2.10,MacIntel,60,,,,,left,3.132,3,1.375,left,0.632,0,0,0,0,1,,,,,,,,,,,,,,,,,
,,,,,,,,12,2021-05-04_15h34.29.044,premceCat2_ses-02_part-02_label-phase2,2020.2.10,MacIntel,60,,,,,,,,,,,,,,,,0,14,14,45,1,stimuli/objects/butterknife.jpg,left,old,46,,,,,,,,
,,,,,,,,12,2021-05-04_15h34.29.044,premceCat2_ses-02_part-02_label-phase2,2020.2.10,MacIntel,60,,,,,left,1.668,4,0.776,left,0.672,0,0,0,0,1,,,,,,,,,,,,,,,,,
,,,,,,,,12,2021-05-04_15h34.29.044,premceCat2_ses-02_part-02_label-phase2,2020.2.10,MacIntel,60,,,,,,,,,,,,,,,,0,15,15,6,1,stimuli/objects/contactlens.jpg,left,old,7,,,,,,,,
,,,,,,,,12,2021-05-04_15h34.29.044,premceCat2_ses-02_part-02_label-phase2,2020.2.10,MacIntel,60,,,,,right,4.333,1,1.21,,,,,,,,0,16,16,25,1,stimuli/objects/bowlingball.jpg,right,new,26,,,,,,,,
,,,,,,,,12,2021-05-04_15h34.29.044,premceCat2_ses-02_part-02_label-phase2,2020.2.10,MacIntel,60,,,,,left,1.307,4,1.366,right,0.518,0,0,0,0,1,,,,,,,,,,,,,,,,,
,,,,,,,,12,2021-05-04_15h34.29.044,premceCat2_ses-02_part-02_label-phase2,2020.2.10,MacIntel,60,,,,,,,,,,,,,,,,0,17,17,142,1,stimuli/objects/waterbottle03.jpg,left,old,143,,,,,,,,
,,,,,,,,12,2021-05-04_15h34.29.044,premceCat2_ses-02_part-02_label-phase2,2020.2.10,MacIntel,60,,,,,left,5.498,4,1.058,left,0.515,0,0,0,0,1,,,,,,,,,,,,,,,,,
,,,,,,,,12,2021-05-04_15h34.29.044,premceCat2_ses-02_part-02_label-phase2,2020.2.10,MacIntel,60,,,,,,,,,,,,,,,,0,18,18,53,1,stimuli/objects/binoculars01b.jpg,right,new,54,,,,,,,,
,,,,,,,,12,2021-05-04_15h34.29.044,premceCat2_ses-02_part-02_label-phase2,2020.2.10,MacIntel,60,,,,,left,3.432,2,0.775,left,6.175,0,0,0,0,1,,,,,,,,,,,,,,,,,
,,,,,,,,12,2021-05-04_15h34.29.044,premceCat2_ses-02_part-02_label-phase2,2020.2.10,MacIntel,60,,,,,,,,,,,,,,,,0,19,19,13,1,stimuli/objects/bastingbrush.jpg,right,new,14,,,,,,,,
,,,,,,,,12,2021-05-04_15h34.29.044,premceCat2_ses-02_part-02_label-phase2,2020.2.10,MacIntel,60,,,,,left,1.175,4,1,right,0.324,0,0,0,0,1,,,,,,,,,,,,,,,,,
,,,,,,,,12,2021-05-04_15h34.29.044,premceCat2_ses-02_part-02_label-phase2,2020.2.10,MacIntel,60,,,,,,,,,,,,,,,,0,20,20,3,1,stimuli/objects/towel01.jpg,left,old,4,,,,,,,,
,,,,,,,,12,2021-05-04_15h34.29.044,premceCat2_ses-02_part-02_label-phase2,2020.2.10,MacIntel,60,,,,,right,2.518,1,1.274,,,,,,,,0,21,21,60,1,stimuli/objects/glass02a.jpg,right,new,61,,,,,,,,
,,,,,,,,12,2021-05-04_15h34.29.044,premceCat2_ses-02_part-02_label-phase2,2020.2.10,MacIntel,60,,,,,left,4.352,4,1.826,left,2.511,0,0,0,0,1,,,,,,,,,,,,,,,,,
,,,,,,,,12,2021-05-04_15h34.29.044,premceCat2_ses-02_part-02_label-phase2,2020.2.10,MacIntel,60,,,,,,,,,,,,,,,,0,22,22,138,1,stimuli/objects/taperecorder.jpg,right,new,139,,,,,,,,
,,,,,,,,12,2021-05-04_15h34.29.044,premceCat2_ses-02_part-02_label-phase2,2020.2.10,MacIntel,60,,,,,left,1.34,4,0.757,left,7.181,0,0,0,0,1,,,,,,,,,,,,,,,,,
,,,,,,,,12,2021-05-04_15h34.29.044,premceCat2_ses-02_part-02_label-phase2,2020.2.10,MacIntel,60,,,,,,,,,,,,,,,,0,23,23,103,1,stimuli/objects/bowl02a.jpg,left,old,104,,,,,,,,
,,,,,,,,12,2021-05-04_15h34.29.044,premceCat2_ses-02_part-02_label-phase2,2020.2.10,MacIntel,60,,,,,right,5.723,3,0.893,,,,,,,,0,24,24,75,1,stimuli/objects/stepladder.jpg,right,new,76,,,,,,,,
,,,,,,,,12,2021-05-04_15h34.29.044,premceCat2_ses-02_part-02_label-phase2,2020.2.10,MacIntel,60,,,,,left,1.687,4,1.11,right,0.574,0,0,0,0,1,,,,,,,,,,,,,,,,,
,,,,,,,,12,2021-05-04_15h34.29.044,premceCat2_ses-02_part-02_label-phase2,2020.2.10,MacIntel,60,,,,,,,,,,,,,,,,0,25,25,14,1,stimuli/objects/mallet01b.jpg,left,old,15,,,,,,,,
,,,,,,,,12,2021-05-04_15h34.29.044,premceCat2_ses-02_part-02_label-phase2,2020.2.10,MacIntel,60,,,,,right,2.079,3,1.051,,,,,,,,0,26,26,133,1,stimuli/objects/icebucket.jpg,right,new,134,,,,,,,,
,,,,,,,,12,2021-05-04_15h34.29.044,premceCat2_ses-02_part-02_label-phase2,2020.2.10,MacIntel,60,,,,,right,3.04,3,1.441,,,,,,,,0,27,27,96,1,stimuli/objects/golfbag.jpg,right,new,97,,,,,,,,
,,,,,,,,12,2021-05-04_15h34.29.044,premceCat2_ses-02_part-02_label-phase2,2020.2.10,MacIntel,60,,,,,left,1.223,4,1.075,left,0.233,0,0,0,0,1,,,,,,,,,,,,,,,,,
,,,,,,,,12,2021-05-04_15h34.29.044,premceCat2_ses-02_part-02_label-phase2,2020.2.10,MacIntel,60,,,,,,,,,,,,,,,,0,28,28,127,1,stimuli/objects/cooler01.jpg,left,old,128,,,,,,,,
,,,,,,,,12,2021-05-04_15h34.29.044,premceCat2_ses-02_part-02_label-phase2,2020.2.10,MacIntel,60,,,,,left,1.339,4,2.108,left,0.383,0,0,0,0,1,,,,,,,,,,,,,,,,,
,,,,,,,,12,2021-05-04_15h34.29.044,premceCat2_ses-02_part-02_label-phase2,2020.2.10,MacIntel,60,,,,,,,,,,,,,,,,0,29,29,79,1,stimuli/objects/gps.jpg,left,old,80,,,,,,,,
,,,,,,,,12,2021-05-04_15h34.29.044,premceCat2_ses-02_part-02_label-phase2,2020.2.10,MacIntel,60,,,,,right,1.234,3,0.767,,,,,,,,0,30,30,41,1,stimuli/objects/pylon01.jpg,right,new,42,,,,,,,,
,,,,,,,,12,2021-05-04_15h34.29.044,premceCat2_ses-02_part-02_label-phase2,2020.2.10,MacIntel,60,,,,,left,1.876,3,0.966,left,2.102,0,0,0,0,1,,,,,,,,,,,,,,,,,
,,,,,,,,12,2021-05-04_15h34.29.044,premceCat2_ses-02_part-02_label-phase2,2020.2.10,MacIntel,60,,,,,,,,,,,,,,,,0,31,31,118,1,stimuli/objects/rope03.jpg,left,old,119,,,,,,,,
,,,,,,,,12,2021-05-04_15h34.29.044,premceCat2_ses-02_part-02_label-phase2,2020.2.10,MacIntel,60,,,,,right,1.935,1,0.533,,,,,,,,0,32,32,8,1,stimuli/objects/basketballhoop01.jpg,right,new,9,,,,,,,,
,,,,,,,,12,2021-05-04_15h34.29.044,premceCat2_ses-02_part-02_label-phase2,2020.2.10,MacIntel,60,,,,,right,1.778,3,1.028,,,,,,,,0,33,33,98,1,stimuli/objects/toyhockeystick01.jpg,left,old,99,,,,,,,,
,,,,,,,,12,2021-05-04_15h34.29.044,premceCat2_ses-02_part-02_label-phase2,2020.2.10,MacIntel,60,,,,,left,1.428,4,0.949,left,0.394,0,0,0,0,1,,,,,,,,,,,,,,,,,
,,,,,,,,12,2021-05-04_15h34.29.044,premceCat2_ses-02_part-02_label-phase2,2020.2.10,MacIntel,60,,,,,,,,,,,,,,,,0,34,34,129,1,stimuli/objects/corkscrew03a.jpg,left,old,130,,,,,,,,
,,,,,,,,12,2021-05-04_15h34.29.044,premceCat2_ses-02_part-02_label-phase2,2020.2.10,MacIntel,60,,,,,left,1.328,4,0.785,left,0.266,0,0,0,0,1,,,,,,,,,,,,,,,,,
,,,,,,,,12,2021-05-04_15h34.29.044,premceCat2_ses-02_part-02_label-phase2,2020.2.10,MacIntel,60,,,,,,,,,,,,,,,,0,35,35,27,1,stimuli/objects/catchermask.jpg,left,old,28,,,,,,,,
,,,,,,,,12,2021-05-04_15h34.29.044,premceCat2_ses-02_part-02_label-phase2,2020.2.10,MacIntel,60,,,,,left,1.273,4,1.645,left,0.342,0,0,0,0,1,,,,,,,,,,,,,,,,,
,,,,,,,,12,2021-05-04_15h34.29.044,premceCat2_ses-02_part-02_label-phase2,2020.2.10,MacIntel,60,,,,,,,,,,,,,,,,0,36,36,48,1,stimuli/objects/gasburner.jpg,left,old,49,,,,,,,,
,,,,,,,,12,2021-05-04_15h34.29.044,premceCat2_ses-02_part-02_label-phase2,2020.2.10,MacIntel,60,,,,,left,1.23,2,0.783,left,0.374,0,0,0,0,1,,,,,,,,,,,,,,,,,
,,,,,,,,12,2021-05-04_15h34.29.044,premceCat2_ses-02_part-02_label-phase2,2020.2.10,MacIntel,60,,,,,,,,,,,,,,,,0,37,37,102,1,stimuli/objects/skihelmet01.jpg,left,old,103,,,,,,,,
,,,,,,,,12,2021-05-04_15h34.29.044,premceCat2_ses-02_part-02_label-phase2,2020.2.10,MacIntel,60,,,,,left,2.631,2,0.657,right,0.273,0,0,0,0,1,,,,,,,,,,,,,,,,,
,,,,,,,,12,2021-05-04_15h34.29.044,premceCat2_ses-02_part-02_label-phase2,2020.2.10,MacIntel,60,,,,,,,,,,,,,,,,0,38,38,66,1,stimuli/objects/nailgun.jpg,right,new,67,,,,,,,,
,,,,,,,,12,2021-05-04_15h34.29.044,premceCat2_ses-02_part-02_label-phase2,2020.2.10,MacIntel,60,,,,,left,1.557,4,0.917,right,0.258,0,0,0,0,1,,,,,,,,,,,,,,,,,
,,,,,,,,12,2021-05-04_15h34.29.044,premceCat2_ses-02_part-02_label-phase2,2020.2.10,MacIntel,60,,,,,,,,,,,,,,,,0,39,39,20,1,stimuli/objects/laptop01a.jpg,right,new,21,,,,,,,,
,,,,,,,,12,2021-05-04_15h34.29.044,premceCat2_ses-02_part-02_label-phase2,2020.2.10,MacIntel,60,,,,,left,1.375,4,0.908,right,0.526,0,0,0,0,1,,,,,,,,,,,,,,,,,
,,,,,,,,12,2021-05-04_15h34.29.044,premceCat2_ses-02_part-02_label-phase2,2020.2.10,MacIntel,60,,,,,,,,,,,,,,,,0,40,40,113,1,stimuli/objects/powercable.jpg,right,new,114,,,,,,,,
,,,,,,,,12,2021-05-04_15h34.29.044,premceCat2_ses-02_part-02_label-phase2,2020.2.10,MacIntel,60,,,,,right,1.559,4,0.924,,,,,,,,0,41,41,80,1,stimuli/objects/snowman.jpg,right,new,81,,,,,,,,
,,,,,,,,12,2021-05-04_15h34.29.044,premceCat2_ses-02_part-02_label-phase2,2020.2.10,MacIntel,60,,,,,left,0.998,4,0.976,right,0.332,0,0,0,0,1,,,,,,,,,,,,,,,,,
,,,,,,,,12,2021-05-04_15h34.29.044,premceCat2_ses-02_part-02_label-phase2,2020.2.10,MacIntel,60,,,,,,,,,,,,,,,,0,42,42,99,1,stimuli/objects/sewingmachine01a.jpg,left,old,100,,,,,,,,
,,,,,,,,12,2021-05-04_15h34.29.044,premceCat2_ses-02_part-02_label-phase2,2020.2.10,MacIntel,60,,,,,right,1.5,4,0.358,,,,,,,,0,43,43,51,1,stimuli/objects/webcam.jpg,right,new,52,,,,,,,,
,,,,,,,,12,2021-05-04_15h34.29.044,premceCat2_ses-02_part-02_label-phase2,2020.2.10,MacIntel,60,,,,,right,1.737,2,0.526,,,,,,,,0,44,44,43,1,stimuli/objects/punchingball.jpg,right,new,44,,,,,,,,
,,,,,,,,12,2021-05-04_15h34.29.044,premceCat2_ses-02_part-02_label-phase2,2020.2.10,MacIntel,60,,,,,left,2.217,1,0.26,left,1.467,0,0,0,0,1,,,,,,,,,,,,,,,,,
,,,,,,,,12,2021-05-04_15h34.29.044,premceCat2_ses-02_part-02_label-phase2,2020.2.10,MacIntel,60,,,,,,,,,,,,,,,,0,45,45,47,1,stimuli/objects/bucket02.jpg,left,old,48,,,,,,,,
,,,,,,,,12,2021-05-04_15h34.29.044,premceCat2_ses-02_part-02_label-phase2,2020.2.10,MacIntel,60,,,,,left,1.093,4,0.832,left,0.606,0,0,0,0,1,,,,,,,,,,,,,,,,,
,,,,,,,,12,2021-05-04_15h34.29.044,premceCat2_ses-02_part-02_label-phase2,2020.2.10,MacIntel,60,,,,,,,,,,,,,,,,0,46,46,74,1,stimuli/objects/treadmill.jpg,left,old,75,,,,,,,,
,,,,,,,,12,2021-05-04_15h34.29.044,premceCat2_ses-02_part-02_label-phase2,2020.2.10,MacIntel,60,,,,,right,1.978,4,0.279,,,,,,,,0,47,47,112,1,stimuli/objects/gymnasticring.jpg,right,new,113,,,,,,,,
,,,,,,,,12,2021-05-04_15h34.29.044,premceCat2_ses-02_part-02_label-phase2,2020.2.10,MacIntel,60,,,,,left,0.892,4,0.974,right,0.794,0,0,0,0,1,,,,,,,,,,,,,,,,,
,,,,,,,,12,2021-05-04_15h34.29.044,premceCat2_ses-02_part-02_label-phase2,2020.2.10,MacIntel,60,,,,,,,,,,,,,,,,0,48,48,78,1,stimuli/objects/servingspoon01.jpg,left,old,79,,,,,,,,
,,,,,,,,12,2021-05-04_15h34.29.044,premceCat2_ses-02_part-02_label-phase2,2020.2.10,MacIntel,60,,,,,right,1.082,2,0.352,,,,,,,,0,49,49,139,1,stimuli/objects/frisbee.jpg,right,new,140,,,,,,,,
,,,,,,,,12,2021-05-04_15h34.29.044,premceCat2_ses-02_part-02_label-phase2,2020.2.10,MacIntel,60,,,,,right,1.122,2,0.67,,,,,,,,0,50,50,24,1,stimuli/objects/skateboard.jpg,right,new,25,,,,,,,,
,,,,,,,,12,2021-05-04_15h34.29.044,premceCat2_ses-02_part-02_label-phase2,2020.2.10,MacIntel,60,,,,,left,1.436,4,0.643,right,0.132,0,0,0,0,1,,,,,,,,,,,,,,,,,
,,,,,,,,12,2021-05-04_15h34.29.044,premceCat2_ses-02_part-02_label-phase2,2020.2.10,MacIntel,60,,,,,,,,,,,,,,,,0,51,51,122,1,stimuli/objects/wire.jpg,left,old,123,,,,,,,,
,,,,,,,,12,2021-05-04_15h34.29.044,premceCat2_ses-02_part-02_label-phase2,2020.2.10,MacIntel,60,,,,,right,2.53,1,1.858,,,,,,,,0,52,52,90,1,stimuli/objects/carlighter02.jpg,right,new,91,,,,,,,,
,,,,,,,,12,2021-05-04_15h34.29.044,premceCat2_ses-02_part-02_label-phase2,2020.2.10,MacIntel,60,,,,,left,3.041,2,0.859,left,0.52,0,0,0,0,1,,,,,,,,,,,,,,,,,
,,,,,,,,12,2021-05-04_15h34.29.044,premceCat2_ses-02_part-02_label-phase2,2020.2.10,MacIntel,60,,,,,,,,,,,,,,,,0,53,53,140,1,stimuli/objects/volleyball.jpg,left,old,141,,,,,,,,
,,,,,,,,12,2021-05-04_15h34.29.044,premceCat2_ses-02_part-02_label-phase2,2020.2.10,MacIntel,60,,,,,left,1.105,4,0.374,right,0.055,0,0,0,0,1,,,,,,,,,,,,,,,,,
,,,,,,,,12,2021-05-04_15h34.29.044,premceCat2_ses-02_part-02_label-phase2,2020.2.10,MacIntel,60,,,,,,,,,,,,,,,,0,54,54,135,1,stimuli/objects/drillbit03a.jpg,left,old,136,,,,,,,,
,,,,,,,,12,2021-05-04_15h34.29.044,premceCat2_ses-02_part-02_label-phase2,2020.2.10,MacIntel,60,,,,,right,1.821,3,1.007,,,,,,,,0,55,55,9,1,stimuli/objects/measuringtape01.jpg,right,new,10,,,,,,,,
,,,,,,,,12,2021-05-04_15h34.29.044,premceCat2_ses-02_part-02_label-phase2,2020.2.10,MacIntel,60,,,,,left,1.082,4,0.447,left,0.085,0,0,0,0,1,,,,,,,,,,,,,,,,,
,,,,,,,,12,2021-05-04_15h34.29.044,premceCat2_ses-02_part-02_label-phase2,2020.2.10,MacIntel,60,,,,,,,,,,,,,,,,0,56,56,137,1,stimuli/objects/podium.jpg,left,old,138,,,,,,,,
,,,,,,,,12,2021-05-04_15h34.29.044,premceCat2_ses-02_part-02_label-phase2,2020.2.10,MacIntel,60,,,,,left,0.965,4,0.661,left,0.829,0,0,0,0,1,,,,,,,,,,,,,,,,,
,,,,,,,,12,2021-05-04_15h34.29.044,premceCat2_ses-02_part-02_label-phase2,2020.2.10,MacIntel,60,,,,,,,,,,,,,,,,0,57,57,84,1,stimuli/objects/swimgoggles.jpg,left,old,85,,,,,,,,
,,,,,,,,12,2021-05-04_15h34.29.044,premceCat2_ses-02_part-02_label-phase2,2020.2.10,MacIntel,60,,,,,left,1.025,4,0.881,left,0.283,0,0,0,0,1,,,,,,,,,,,,,,,,,
,,,,,,,,12,2021-05-04_15h34.29.044,premceCat2_ses-02_part-02_label-phase2,2020.2.10,MacIntel,60,,,,,,,,,,,,,,,,0,58,58,64,1,stimuli/objects/snowshovel.jpg,left,old,65,,,,,,,,
,,,,,,,,12,2021-05-04_15h34.29.044,premceCat2_ses-02_part-02_label-phase2,2020.2.10,MacIntel,60,,,,,left,2.676,3,1.559,left,0.44,0,0,0,0,1,,,,,,,,,,,,,,,,,
,,,,,,,,12,2021-05-04_15h34.29.044,premceCat2_ses-02_part-02_label-phase2,2020.2.10,MacIntel,60,,,,,,,,,,,,,,,,0,59,59,56,1,stimuli/objects/jar02.jpg,left,old,57,,,,,,,,
,,,,,,,,12,2021-05-04_15h34.29.044,premceCat2_ses-02_part-02_label-phase2,2020.2.10,MacIntel,60,,,,,right,1.566,2,0.251,,,,,,,,0,60,60,125,1,stimuli/objects/shoulderpad.jpg,right,new,126,,,,,,,,
,,,,,,,,12,2021-05-04_15h34.29.044,premceCat2_ses-02_part-02_label-phase2,2020.2.10,MacIntel,60,,,,,left,1.117,3,0.815,right,0.264,0,0,0,0,1,,,,,,,,,,,,,,,,,
,,,,,,,,12,2021-05-04_15h34.29.044,premceCat2_ses-02_part-02_label-phase2,2020.2.10,MacIntel,60,,,,,,,,,,,,,,,,0,61,61,30,1,stimuli/objects/printer02.jpg,right,new,31,,,,,,,,
,,,,,,,,12,2021-05-04_15h34.29.044,premceCat2_ses-02_part-02_label-phase2,2020.2.10,MacIntel,60,,,,,left,1.101,2,0.425,left,3.383,0,0,0,0,1,,,,,,,,,,,,,,,,,
,,,,,,,,12,2021-05-04_15h34.29.044,premceCat2_ses-02_part-02_label-phase2,2020.2.10,MacIntel,60,,,,,,,,,,,,,,,,0,62,62,123,1,stimuli/objects/breadknife.jpg,left,old,124,,,,,,,,
,,,,,,,,12,2021-05-04_15h34.29.044,premceCat2_ses-02_part-02_label-phase2,2020.2.10,MacIntel,60,,,,,left,1.227,4,0.41,right,0.508,0,0,0,0,1,,,,,,,,,,,,,,,,,
,,,,,,,,12,2021-05-04_15h34.29.044,premceCat2_ses-02_part-02_label-phase2,2020.2.10,MacIntel,60,,,,,,,,,,,,,,,,0,63,63,0,1,stimuli/objects/phonejack.jpg,left,old,1,,,,,,,,
,,,,,,,,12,2021-05-04_15h34.29.044,premceCat2_ses-02_part-02_label-phase2,2020.2.10,MacIntel,60,,,,,right,1.152,3,0.298,,,,,,,,0,64,64,86,1,stimuli/objects/toasteroven.jpg,right,new,87,,,,,,,,
,,,,,,,,12,2021-05-04_15h34.29.044,premceCat2_ses-02_part-02_label-phase2,2020.2.10,MacIntel,60,,,,,left,1.417,2,1.035,left,1.776,0,0,0,0,1,,,,,,,,,,,,,,,,,
,,,,,,,,12,2021-05-04_15h34.29.044,premceCat2_ses-02_part-02_label-phase2,2020.2.10,MacIntel,60,,,,,,,,,,,,,,,,0,65,65,130,1,stimuli/objects/hockeypuck.jpg,left,old,131,,,,,,,,
,,,,,,,,12,2021-05-04_15h34.29.044,premceCat2_ses-02_part-02_label-phase2,2020.2.10,MacIntel,60,,,,,right,1.204,4,0.175,,,,,,,,0,66,66,73,1,stimuli/objects/clock01a.jpg,right,new,74,,,,,,,,
,,,,,,,,12,2021-05-04_15h34.29.044,premceCat2_ses-02_part-02_label-phase2,2020.2.10,MacIntel,60,,,,,right,2.017,2,0.093,,,,,,,,0,67,67,32,1,stimuli/objects/mitresaw.jpg,right,new,33,,,,,,,,
,,,,,,,,12,2021-05-04_15h34.29.044,premceCat2_ses-02_part-02_label-phase2,2020.2.10,MacIntel,60,,,,,left,1.024,4,0.552,left,1.054,0,0,0,0,1,,,,,,,,,,,,,,,,,
,,,,,,,,12,2021-05-04_15h34.29.044,premceCat2_ses-02_part-02_label-phase2,2020.2.10,MacIntel,60,,,,,,,,,,,,,,,,0,68,68,15,1,stimuli/objects/spicerack.jpg,left,old,16,,,,,,,,
,,,,,,,,12,2021-05-04_15h34.29.044,premceCat2_ses-02_part-02_label-phase2,2020.2.10,MacIntel,60,,,,,right,1.57,2,0.225,,,,,,,,0,69,69,46,1,stimuli/objects/walkman.jpg,right,new,47,,,,,,,,
,,,,,,,,12,2021-05-04_15h34.29.044,premceCat2_ses-02_part-02_label-phase2,2020.2.10,MacIntel,60,,,,,left,4.16,1,0.791,right,0.682,0,0,0,0,1,,,,,,,,,,,,,,,,,
,,,,,,,,12,2021-05-04_15h34.29.044,premceCat2_ses-02_part-02_label-phase2,2020.2.10,MacIntel,60,,,,,,,,,,,,,,,,0,70,70,100,1,stimuli/objects/remotecontrol04.jpg,right,new,101,,,,,,,,
,,,,,,,,12,2021-05-04_15h34.29.044,premceCat2_ses-02_part-02_label-phase2,2020.2.10,MacIntel,60,,,,,left,1.203,4,0.26,right,0.815,0,0,0,0,1,,,,,,,,,,,,,,,,,
,,,,,,,,12,2021-05-04_15h34.29.044,premceCat2_ses-02_part-02_label-phase2,2020.2.10,MacIntel,60,,,,,,,,,,,,,,,,0,71,71,38,1,stimuli/objects/soundmixer.jpg,right,new,39,,,,,,,,
,,,,,,,,12,2021-05-04_15h34.29.044,premceCat2_ses-02_part-02_label-phase2,2020.2.10,MacIntel,60,,,,,left,1.234,4,0.666,right,0.383,0,0,0,0,1,,,,,,,,,,,,,,,,,
,,,,,,,,12,2021-05-04_15h34.29.044,premceCat2_ses-02_part-02_label-phase2,2020.2.10,MacIntel,60,,,,,,,,,,,,,,,,0,72,72,95,1,stimuli/objects/telephone01b.jpg,left,old,96,,,,,,,,
,,,,,,,,12,2021-05-04_15h34.29.044,premceCat2_ses-02_part-02_label-phase2,2020.2.10,MacIntel,60,,,,,left,1.071,4,0.441,left,0.142,0,0,0,0,1,,,,,,,,,,,,,,,,,
,,,,,,,,12,2021-05-04_15h34.29.044,premceCat2_ses-02_part-02_label-phase2,2020.2.10,MacIntel,60,,,,,,,,,,,,,,,,0,73,73,62,1,stimuli/objects/tray.jpg,left,old,63,,,,,,,,
,,,,,,,,12,2021-05-04_15h34.29.044,premceCat2_ses-02_part-02_label-phase2,2020.2.10,MacIntel,60,,,,,left,1.589,4,1.115,right,0.637,0,0,0,0,1,,,,,,,,,,,,,,,,,
,,,,,,,,12,2021-05-04_15h34.29.044,premceCat2_ses-02_part-02_label-phase2,2020.2.10,MacIntel,60,,,,,,,,,,,,,,,,0,74,74,40,1,stimuli/objects/staplegun.jpg,left,old,41,,,,,,,,
,,,,,,,,12,2021-05-04_15h34.29.044,premceCat2_ses-02_part-02_label-phase2,2020.2.10,MacIntel,60,,,,,right,1.142,3,0.239,,,,,,,,0,75,75,93,1,stimuli/objects/icepack.jpg,right,new,94,,,,,,,,
,,,,,,,,12,2021-05-04_15h34.29.044,premceCat2_ses-02_part-02_label-phase2,2020.2.10,MacIntel,60,,,,,left,1.179,4,0.399,left,1.914,0,0,0,0,1,,,,,,,,,,,,,,,,,
,,,,,,,,12,2021-05-04_15h34.29.044,premceCat2_ses-02_part-02_label-phase2,2020.2.10,MacIntel,60,,,,,,,,,,,,,,,,0,76,76,88,1,stimuli/objects/cowbell.jpg,left,old,89,,,,,,,,
,,,,,,,,12,2021-05-04_15h34.29.044,premceCat2_ses-02_part-02_label-phase2,2020.2.10,MacIntel,60,,,,,left,1.037,4,0.276,left,1.658,0,0,0,0,1,,,,,,,,,,,,,,,,,
,,,,,,,,12,2021-05-04_15h34.29.044,premceCat2_ses-02_part-02_label-phase2,2020.2.10,MacIntel,60,,,,,,,,,,,,,,,,0,77,77,117,1,stimuli/objects/videotape01b.jpg,right,new,118,,,,,,,,
,,,,,,,,12,2021-05-04_15h34.29.044,premceCat2_ses-02_part-02_label-phase2,2020.2.10,MacIntel,60,,,,,left,1.3,4,0.283,right,0.125,0,0,0,0,1,,,,,,,,,,,,,,,,,
,,,,,,,,12,2021-05-04_15h34.29.044,premceCat2_ses-02_part-02_label-phase2,2020.2.10,MacIntel,60,,,,,,,,,,,,,,,,0,78,78,65,1,stimuli/objects/tape02a.jpg,left,old,66,,,,,,,,
,,,,,,,,12,2021-05-04_15h34.29.044,premceCat2_ses-02_part-02_label-phase2,2020.2.10,MacIntel,60,,,,,left,1.465,3,0.324,right,0.281,0,0,0,0,1,,,,,,,,,,,,,,,,,
,,,,,,,,12,2021-05-04_15h34.29.044,premceCat2_ses-02_part-02_label-phase2,2020.2.10,MacIntel,60,,,,,,,,,,,,,,,,0,79,79,2,1,stimuli/objects/crocodileclips.jpg,left,old,3,,,,,,,,
,,,,,,,,12,2021-05-04_15h34.29.044,premceCat2_ses-02_part-02_label-phase2,2020.2.10,MacIntel,60,,,,,right,1.415,4,0.296,,,,,,,,0,80,80,110,1,stimuli/objects/lock03a.jpg,right,new,111,,,,,,,,
,,,,,,,,12,2021-05-04_15h34.29.044,premceCat2_ses-02_part-02_label-phase2,2020.2.10,MacIntel,60,,,,,left,2.572,4,1.029,right,1.651,0,0,0,0,1,,,,,,,,,,,,,,,,,
,,,,,,,,12,2021-05-04_15h34.29.044,premceCat2_ses-02_part-02_label-phase2,2020.2.10,MacIntel,60,,,,,,,,,,,,,,,,0,81,81,77,1,stimuli/objects/lightbulb01.jpg,left,old,78,,,,,,,,
,,,,,,,,12,2021-05-04_15h34.29.044,premceCat2_ses-02_part-02_label-phase2,2020.2.10,MacIntel,60,,,,,left,3.366,4,1.16,left,0.225,0,0,0,0,1,,,,,,,,,,,,,,,,,
,,,,,,,,12,2021-05-04_15h34.29.044,premceCat2_ses-02_part-02_label-phase2,2020.2.10,MacIntel,60,,,,,,,,,,,,,,,,0,82,82,105,1,stimuli/objects/cellphone.jpg,left,old,106,,,,,,,,
,,,,,,,,12,2021-05-04_15h34.29.044,premceCat2_ses-02_part-02_label-phase2,2020.2.10,MacIntel,60,,,,,left,1.454,4,0.625,right,0.123,0,0,0,0,1,,,,,,,,,,,,,,,,,
,,,,,,,,12,2021-05-04_15h34.29.044,premceCat2_ses-02_part-02_label-phase2,2020.2.10,MacIntel,60,,,,,,,,,,,,,,,,0,83,83,50,1,stimuli/objects/chisel02b.jpg,right,new,51,,,,,,,,
,,,,,,,,12,2021-05-04_15h34.29.044,premceCat2_ses-02_part-02_label-phase2,2020.2.10,MacIntel,60,,,,,left,3.274,4,1.292,left,0.36,0,0,0,0,1,,,,,,,,,,,,,,,,,
,,,,,,,,12,2021-05-04_15h34.29.044,premceCat2_ses-02_part-02_label-phase2,2020.2.10,MacIntel,60,,,,,,,,,,,,,,,,0,84,84,11,1,stimuli/objects/videocamera01a.jpg,left,old,12,,,,,,,,
,,,,,,,,12,2021-05-04_15h34.29.044,premceCat2_ses-02_part-02_label-phase2,2020.2.10,MacIntel,60,,,,,right,13.015,3,0.549,,,,,,,,0,85,85,10,1,stimuli/objects/vhstape.jpg,left,old,11,,,,,,,,
,,,,,,,,12,2021-05-04_15h34.29.044,premceCat2_ses-02_part-02_label-phase2,2020.2.10,MacIntel,60,,,,,left,0.992,4,0.526,left,0.368,0,0,0,0,1,,,,,,,,,,,,,,,,,
,,,,,,,,12,2021-05-04_15h34.29.044,premceCat2_ses-02_part-02_label-phase2,2020.2.10,MacIntel,60,,,,,,,,,,,,,,,,0,86,86,16,1,stimuli/objects/wheelbarrow01.jpg,left,old,17,,,,,,,,
,,,,,,,,12,2021-05-04_15h34.29.044,premceCat2_ses-02_part-02_label-phase2,2020.2.10,MacIntel,60,,,,,left,1.072,4,0.732,left,0.339,0,0,0,0,1,,,,,,,,,,,,,,,,,
,,,,,,,,12,2021-05-04_15h34.29.044,premceCat2_ses-02_part-02_label-phase2,2020.2.10,MacIntel,60,,,,,,,,,,,,,,,,0,87,87,124,1,stimuli/objects/baseball01a.jpg,left,old,125,,,,,,,,
,,,,,,,,12,2021-05-04_15h34.29.044,premceCat2_ses-02_part-02_label-phase2,2020.2.10,MacIntel,60,,,,,right,1.394,2,0.118,,,,,,,,0,88,88,82,1,stimuli/objects/snowbrush.jpg,right,new,83,,,,,,,,
,,,,,,,,12,2021-05-04_15h34.29.044,premceCat2_ses-02_part-02_label-phase2,2020.2.10,MacIntel,60,,,,,left,0.979,4,0.516,left,0.141,0,0,0,0,1,,,,,,,,,,,,,,,,,
,,,,,,,,12,2021-05-04_15h34.29.044,premceCat2_ses-02_part-02_label-phase2,2020.2.10,MacIntel,60,,,,,,,,,,,,,,,,0,89,89,61,1,stimuli/objects/painttray.jpg,left,old,62,,,,,,,,
,,,,,,,,12,2021-05-04_15h34.29.044,premceCat2_ses-02_part-02_label-phase2,2020.2.10,MacIntel,60,,,,,right,1.407,2,0.242,,,,,,,,0,90,90,54,1,stimuli/objects/pda.jpg,right,new,55,,,,,,,,
,,,,,,,,12,2021-05-04_15h34.29.044,premceCat2_ses-02_part-02_label-phase2,2020.2.10,MacIntel,60,,,,,left,6.007,1,0.191,right,0.074,0,0,0,0,1,,,,,,,,,,,,,,,,,
,,,,,,,,12,2021-05-04_15h34.29.044,premceCat2_ses-02_part-02_label-phase2,2020.2.10,MacIntel,60,,,,,,,,,,,,,,,,0,91,91,21,1,stimuli/objects/paintbrush01.jpg,right,new,22,,,,,,,,
,,,,,,,,12,2021-05-04_15h34.29.044,premceCat2_ses-02_part-02_label-phase2,2020.2.10,MacIntel,60,,,,,right,2.19,1,0.258,,,,,,,,0,92,92,17,1,stimuli/objects/exercisebench.jpg,right,new,18,,,,,,,,
,,,,,,,,12,2021-05-04_15h34.29.044,premceCat2_ses-02_part-02_label-phase2,2020.2.10,MacIntel,60,,,,,left,1.129,4,0.724,right,2.593,0,0,0,0,1,,,,,,,,,,,,,,,,,
,,,,,,,,12,2021-05-04_15h34.29.044,premceCat2_ses-02_part-02_label-phase2,2020.2.10,MacIntel,60,,,,,,,,,,,,,,,,0,93,93,35,1,stimuli/objects/chandelier.jpg,left,old,36,,,,,,,,
,,,,,,,,12,2021-05-04_15h34.29.044,premceCat2_ses-02_part-02_label-phase2,2020.2.10,MacIntel,60,,,,,left,5.644,4,1,left,1.16,0,0,0,0,1,,,,,,,,,,,,,,,,,
,,,,,,,,12,2021-05-04_15h34.29.044,premceCat2_ses-02_part-02_label-phase2,2020.2.10,MacIntel,60,,,,,,,,,,,,,,,,0,94,94,126,1,stimuli/objects/tableknife02.jpg,right,new,127,,,,,,,,
,,,,,,,,12,2021-05-04_15h34.29.044,premceCat2_ses-02_part-02_label-phase2,2020.2.10,MacIntel,60,,,,,right,4.086,3,0.527,,,,,,,,0,95,95,106,1,stimuli/objects/minifridge.jpg,right,new,107,,,,,,,,
,,,,,,,,12,2021-05-04_15h34.29.044,premceCat2_ses-02_part-02_label-phase2,2020.2.10,MacIntel,60,,,,,right,2.811,3,0.399,,,,,,,,0,96,96,111,1,stimuli/objects/speaker04.jpg,right,new,112,,,,,,,,
,,,,,,,,12,2021-05-04_15h34.29.044,premceCat2_ses-02_part-02_label-phase2,2020.2.10,MacIntel,60,,,,,left,1.565,2,0.259,right,1.282,0,0,0,0,1,,,,,,,,,,,,,,,,,
,,,,,,,,12,2021-05-04_15h34.29.044,premceCat2_ses-02_part-02_label-phase2,2020.2.10,MacIntel,60,,,,,,,,,,,,,,,,0,97,97,68,1,stimuli/objects/leafblower01.jpg,right,new,69,,,,,,,,
,,,,,,,,12,2021-05-04_15h34.29.044,premceCat2_ses-02_part-02_label-phase2,2020.2.10,MacIntel,60,,,,,left,1.221,3,0.334,right,0.251,0,0,0,0,1,,,,,,,,,,,,,,,,,
,,,,,,,,12,2021-05-04_15h34.29.044,premceCat2_ses-02_part-02_label-phase2,2020.2.10,MacIntel,60,,,,,,,,,,,,,,,,0,98,98,101,1,stimuli/objects/fuse.jpg,left,old,102,,,,,,,,
,,,,,,,,12,2021-05-04_15h34.29.044,premceCat2_ses-02_part-02_label-phase2,2020.2.10,MacIntel,60,,,,,left,0.941,4,0.308,right,0.504,0,0,0,0,1,,,,,,,,,,,,,,,,,
,,,,,,,,12,2021-05-04_15h34.29.044,premceCat2_ses-02_part-02_label-phase2,2020.2.10,MacIntel,60,,,,,,,,,,,,,,,,0,99,99,115,1,stimuli/objects/flooringstapler.jpg,left,old,116,,,,,,,,
,,,,,,,,12,2021-05-04_15h34.29.044,premceCat2_ses-02_part-02_label-phase2,2020.2.10,MacIntel,60,,,,,right,1.547,2,0.146,,,,,,,,0,100,100,109,1,stimuli/objects/winerack.jpg,right,new,110,,,,,,,,
,,,,,,,,12,2021-05-04_15h34.29.044,premceCat2_ses-02_part-02_label-phase2,2020.2.10,MacIntel,60,,,,,left,5.809,2,0.082,left,0.856,0,0,0,0,1,,,,,,,,,,,,,,,,,
,,,,,,,,12,2021-05-04_15h34.29.044,premceCat2_ses-02_part-02_label-phase2,2020.2.10,MacIntel,60,,,,,,,,,,,,,,,,0,101,101,18,1,stimuli/objects/cashregister01.jpg,right,new,19,,,,,,,,
,,,,,,,,12,2021-05-04_15h34.29.044,premceCat2_ses-02_part-02_label-phase2,2020.2.10,MacIntel,60,,,,,left,1.172,3,0.952,left,0.382,0,0,0,0,1,,,,,,,,,,,,,,,,,
,,,,,,,,12,2021-05-04_15h34.29.044,premceCat2_ses-02_part-02_label-phase2,2020.2.10,MacIntel,60,,,,,,,,,,,,,,,,0,102,102,36,1,stimuli/objects/outletadapter.jpg,left,old,37,,,,,,,,
,,,,,,,,12,2021-05-04_15h34.29.044,premceCat2_ses-02_part-02_label-phase2,2020.2.10,MacIntel,60,,,,,left,2.635,4,0.399,left,0.281,0,0,0,0,1,,,,,,,,,,,,,,,,,
,,,,,,,,12,2021-05-04_15h34.29.044,premceCat2_ses-02_part-02_label-phase2,2020.2.10,MacIntel,60,,,,,,,,,,,,,,,,0,103,103,23,1,stimuli/objects/football.jpg,right,new,24,,,,,,,,
,,,,,,,,12,2021-05-04_15h34.29.044,premceCat2_ses-02_part-02_label-phase2,2020.2.10,MacIntel,60,,,,,left,2.216,2,0.281,right,0.236,0,0,0,0,1,,,,,,,,,,,,,,,,,
,,,,,,,,12,2021-05-04_15h34.29.044,premceCat2_ses-02_part-02_label-phase2,2020.2.10,MacIntel,60,,,,,,,,,,,,,,,,0,104,104,12,1,stimuli/objects/garlicpress02a.jpg,right,new,13,,,,,,,,
,,,,,,,,12,2021-05-04_15h34.29.044,premceCat2_ses-02_part-02_label-phase2,2020.2.10,MacIntel,60,,,,,left,1.923,4,0.208,right,0.175,0,0,0,0,1,,,,,,,,,,,,,,,,,
,,,,,,,,12,2021-05-04_15h34.29.044,premceCat2_ses-02_part-02_label-phase2,2020.2.10,MacIntel,60,,,,,,,,,,,,,,,,0,105,105,7,1,stimuli/objects/hammer01.jpg,left,old,8,,,,,,,,
,,,,,,,,12,2021-05-04_15h34.29.044,premceCat2_ses-02_part-02_label-phase2,2020.2.10,MacIntel,60,,,,,left,0.832,3,0.334,left,0.299,0,0,0,0,1,,,,,,,,,,,,,,,,,
,,,,,,,,12,2021-05-04_15h34.29.044,premceCat2_ses-02_part-02_label-phase2,2020.2.10,MacIntel,60,,,,,,,,,,,,,,,,0,106,106,120,1,stimuli/objects/muffintray01.jpg,left,old,121,,,,,,,,
,,,,,,,,12,2021-05-04_15h34.29.044,premceCat2_ses-02_part-02_label-phase2,2020.2.10,MacIntel,60,,,,,right,1.566,2,0,,,,,,,,0,107,107,83,1,stimuli/objects/kitchenscale01a.jpg,right,new,84,,,,,,,,
,,,,,,,,12,2021-05-04_15h34.29.044,premceCat2_ses-02_part-02_label-phase2,2020.2.10,MacIntel,60,,,,,left,1.032,4,0.484,left,2.723,0,0,0,0,1,,,,,,,,,,,,,,,,,
,,,,,,,,12,2021-05-04_15h34.29.044,premceCat2_ses-02_part-02_label-phase2,2020.2.10,MacIntel,60,,,,,,,,,,,,,,,,0,108,108,29,1,stimuli/objects/ipad02.jpg,left,old,30,,,,,,,,
,,,,,,,,12,2021-05-04_15h34.29.044,premceCat2_ses-02_part-02_label-phase2,2020.2.10,MacIntel,60,,,,,right,4.718,4,0.161,,,,,,,,0,109,109,141,1,stimuli/objects/generator.jpg,right,new,142,,,,,,,,
,,,,,,,,12,2021-05-04_15h34.29.044,premceCat2_ses-02_part-02_label-phase2,2020.2.10,MacIntel,60,,,,,left,1.037,4,0.349,right,0.176,0,0,0,0,1,,,,,,,,,,,,,,,,,
,,,,,,,,12,2021-05-04_15h34.29.044,premceCat2_ses-02_part-02_label-phase2,2020.2.10,MacIntel,60,,,,,,,,,,,,,,,,0,110,110,91,1,stimuli/objects/puttyknife.jpg,left,old,92,,,,,,,,
,,,,,,,,12,2021-05-04_15h34.29.044,premceCat2_ses-02_part-02_label-phase2,2020.2.10,MacIntel,60,,,,,right,1.474,3,0.126,,,,,,,,0,111,111,136,1,stimuli/objects/battery02b.jpg,right,new,137,,,,,,,,
,,,,,,,,12,2021-05-04_15h34.29.044,premceCat2_ses-02_part-02_label-phase2,2020.2.10,MacIntel,60,,,,,right,1.423,1,0.065,,,,,,,,0,112,112,89,1,stimuli/objects/ducttape.jpg,right,new,90,,,,,,,,
,,,,,,,,12,2021-05-04_15h34.29.044,premceCat2_ses-02_part-02_label-phase2,2020.2.10,MacIntel,60,,,,,right,1.91,2,0.102,,,,,,,,0,113,113,55,1,stimuli/objects/toolbox02.jpg,right,new,56,,,,,,,,
,,,,,,,,12,2021-05-04_15h34.29.044,premceCat2_ses-02_part-02_label-phase2,2020.2.10,MacIntel,60,,,,,right,1.166,2,0.102,,,,,,,,0,114,114,116,1,stimuli/objects/radio01.jpg,right,new,117,,,,,,,,
,,,,,,,,12,2021-05-04_15h34.29.044,premceCat2_ses-02_part-02_label-phase2,2020.2.10,MacIntel,60,,,,,left,1.134,4,0.116,right,0.26,0,0,0,0,1,,,,,,,,,,,,,,,,,
,,,,,,,,12,2021-05-04_15h34.29.044,premceCat2_ses-02_part-02_label-phase2,2020.2.10,MacIntel,60,,,,,,,,,,,,,,,,0,115,115,44,1,stimuli/objects/toyhardhat.jpg,left,old,45,,,,,,,,
,,,,,,,,12,2021-05-04_15h34.29.044,premceCat2_ses-02_part-02_label-phase2,2020.2.10,MacIntel,60,,,,,left,0.96,4,0.184,left,0.142,0,0,0,0,1,,,,,,,,,,,,,,,,,
,,,,,,,,12,2021-05-04_15h34.29.044,premceCat2_ses-02_part-02_label-phase2,2020.2.10,MacIntel,60,,,,,,,,,,,,,,,,0,116,116,28,1,stimuli/objects/backpack01a.jpg,left,old,29,,,,,,,,
,,,,,,,,12,2021-05-04_15h34.29.044,premceCat2_ses-02_part-02_label-phase2,2020.2.10,MacIntel,60,,,,,right,1.266,1,0.133,,,,,,,,0,117,117,131,1,stimuli/objects/spotlight.jpg,right,new,132,,,,,,,,
,,,,,,,,12,2021-05-04_15h34.29.044,premceCat2_ses-02_part-02_label-phase2,2020.2.10,MacIntel,60,,,,,left,1.709,2,0.55,left,3.945,0,0,0,0,1,,,,,,,,,,,,,,,,,
,,,,,,,,12,2021-05-04_15h34.29.044,premceCat2_ses-02_part-02_label-phase2,2020.2.10,MacIntel,60,,,,,,,,,,,,,,,,0,118,118,33,1,stimuli/objects/microwave.jpg,right,new,34,,,,,,,,
,,,,,,,,12,2021-05-04_15h34.29.044,premceCat2_ses-02_part-02_label-phase2,2020.2.10,MacIntel,60,,,,,right,3.417,3,0.294,,,,,,,,0,119,119,59,1,stimuli/objects/studiolight.jpg,right,new,60,,,,,,,,
,,,,,,,,12,2021-05-04_15h34.29.044,premceCat2_ses-02_part-02_label-phase2,2020.2.10,MacIntel,60,,,,,right,1.002,3,0.199,,,,,,,,0,120,120,121,1,stimuli/objects/ceilingspeaker.jpg,right,new,122,,,,,,,,
,,,,,,,,12,2021-05-04_15h34.29.044,premceCat2_ses-02_part-02_label-phase2,2020.2.10,MacIntel,60,,,,,left,1.398,3,0.711,left,1.115,0,0,0,0,1,,,,,,,,,,,,,,,,,
,,,,,,,,12,2021-05-04_15h34.29.044,premceCat2_ses-02_part-02_label-phase2,2020.2.10,MacIntel,60,,,,,,,,,,,,,,,,0,121,121,58,1,stimuli/objects/bungeecord02.jpg,left,old,59,,,,,,,,
,,,,,,,,12,2021-05-04_15h34.29.044,premceCat2_ses-02_part-02_label-phase2,2020.2.10,MacIntel,60,,,,,left,1.194,1,0.811,left,0.31,0,0,0,0,1,,,,,,,,,,,,,,,,,
,,,,,,,,12,2021-05-04_15h34.29.044,premceCat2_ses-02_part-02_label-phase2,2020.2.10,MacIntel,60,,,,,,,,,,,,,,,,0,122,122,19,1,stimuli/objects/peppermill02b.jpg,right,new,20,,,,,,,,
,,,,,,,,12,2021-05-04_15h34.29.044,premceCat2_ses-02_part-02_label-phase2,2020.2.10,MacIntel,60,,,,,right,1.25,1,0.06,,,,,,,,0,123,123,63,1,stimuli/objects/butterdish.jpg,right,new,64,,,,,,,,
,,,,,,,,12,2021-05-04_15h34.29.044,premceCat2_ses-02_part-02_label-phase2,2020.2.10,MacIntel,60,,,,,left,10.017,4,0.292,right,0.208,0,0,0,0,1,,,,,,,,,,,,,,,,,
,,,,,,,,12,2021-05-04_15h34.29.044,premceCat2_ses-02_part-02_label-phase2,2020.2.10,MacIntel,60,,,,,,,,,,,,,,,,0,124,124,114,1,stimuli/objects/pitcher02b.jpg,left,old,115,,,,,,,,
,,,,,,,,12,2021-05-04_15h34.29.044,premceCat2_ses-02_part-02_label-phase2,2020.2.10,MacIntel,60,,,,,left,1.053,3,0.345,left,2.14,0,0,0,0,1,,,,,,,,,,,,,,,,,
,,,,,,,,12,2021-05-04_15h34.29.044,premceCat2_ses-02_part-02_label-phase2,2020.2.10,MacIntel,60,,,,,,,,,,,,,,,,0,125,125,132,1,stimuli/objects/airconditioner.jpg,left,old,133,,,,,,,,
,,,,,,,,12,2021-05-04_15h34.29.044,premceCat2_ses-02_part-02_label-phase2,2020.2.10,MacIntel,60,,,,,right,3.319,2,0.457,,,,,,,,0,126,126,108,1,stimuli/objects/metalscissors.jpg,right,new,109,,,,,,,,
,,,,,,,,12,2021-05-04_15h34.29.044,premceCat2_ses-02_part-02_label-phase2,2020.2.10,MacIntel,60,,,,,right,1.489,4,0.035,,,,,,,,0,127,127,42,1,stimuli/objects/snowshoe.jpg,right,new,43,,,,,,,,
,,,,,,,,12,2021-05-04_15h34.29.044,premceCat2_ses-02_part-02_label-phase2,2020.2.10,MacIntel,60,,,,,left,0.923,4,0.227,left,0.358,0,0,0,0,1,,,,,,,,,,,,,,,,,
,,,,,,,,12,2021-05-04_15h34.29.044,premceCat2_ses-02_part-02_label-phase2,2020.2.10,MacIntel,60,,,,,,,,,,,,,,,,0,128,128,5,1,stimuli/objects/electricoutlet.jpg,left,old,6,,,,,,,,
,,,,,,,,12,2021-05-04_15h34.29.044,premceCat2_ses-02_part-02_label-phase2,2020.2.10,MacIntel,60,,,,,left,1.212,4,0.228,left,0.251,0,0,0,0,1,,,,,,,,,,,,,,,,,
,,,,,,,,12,2021-05-04_15h34.29.044,premceCat2_ses-02_part-02_label-phase2,2020.2.10,MacIntel,60,,,,,,,,,,,,,,,,0,129,129,69,1,stimuli/objects/atm.jpg,left,old,70,,,,,,,,
,,,,,,,,12,2021-05-04_15h34.29.044,premceCat2_ses-02_part-02_label-phase2,2020.2.10,MacIntel,60,,,,,left,1.023,4,0.215,right,0.248,0,0,0,0,1,,,,,,,,,,,,,,,,,
,,,,,,,,12,2021-05-04_15h34.29.044,premceCat2_ses-02_part-02_label-phase2,2020.2.10,MacIntel,60,,,,,,,,,,,,,,,,0,130,130,97,1,stimuli/objects/djmixer02.jpg,left,old,98,,,,,,,,
,,,,,,,,12,2021-05-04_15h34.29.044,premceCat2_ses-02_part-02_label-phase2,2020.2.10,MacIntel,60,,,,,right,1.294,4,0.066,,,,,,,,0,131,131,39,1,stimuli/objects/sippycup.jpg,right,new,40,,,,,,,,
,,,,,,,,12,2021-05-04_15h34.29.044,premceCat2_ses-02_part-02_label-phase2,2020.2.10,MacIntel,60,,,,,left,1.037,4,0.377,right,0.065,0,0,0,0,1,,,,,,,,,,,,,,,,,
,,,,,,,,12,2021-05-04_15h34.29.044,premceCat2_ses-02_part-02_label-phase2,2020.2.10,MacIntel,60,,,,,,,,,,,,,,,,0,132,132,104,1,stimuli/objects/securitycamera.jpg,left,old,105,,,,,,,,
,,,,,,,,12,2021-05-04_15h34.29.044,premceCat2_ses-02_part-02_label-phase2,2020.2.10,MacIntel,60,,,,,left,1.884,2,0.052,right,0.282,0,0,0,0,1,,,,,,,,,,,,,,,,,
,,,,,,,,12,2021-05-04_15h34.29.044,premceCat2_ses-02_part-02_label-phase2,2020.2.10,MacIntel,60,,,,,,,,,,,,,,,,0,133,133,31,1,stimuli/objects/metalbrush.jpg,left,old,32,,,,,,,,
,,,,,,,,12,2021-05-04_15h34.29.044,premceCat2_ses-02_part-02_label-phase2,2020.2.10,MacIntel,60,,,,,right,2.759,3,0.668,,,,,,,,0,134,134,76,1,stimuli/objects/megaphone.jpg,right,new,77,,,,,,,,
,,,,,,,,12,2021-05-04_15h34.29.044,premceCat2_ses-02_part-02_label-phase2,2020.2.10,MacIntel,60,,,,,left,0.871,4,0.308,left,0.11,0,0,0,0,1,,,,,,,,,,,,,,,,,
,,,,,,,,12,2021-05-04_15h34.29.044,premceCat2_ses-02_part-02_label-phase2,2020.2.10,MacIntel,60,,,,,,,,,,,,,,,,0,135,135,107,1,stimuli/objects/martiniglass01b.jpg,left,old,108,,,,,,,,
,,,,,,,,12,2021-05-04_15h34.29.044,premceCat2_ses-02_part-02_label-phase2,2020.2.10,MacIntel,60,,,,,left,0.849,4,0.229,right,0.348,0,0,0,0,1,,,,,,,,,,,,,,,,,
,,,,,,,,12,2021-05-04_15h34.29.044,premceCat2_ses-02_part-02_label-phase2,2020.2.10,MacIntel,60,,,,,,,,,,,,,,,,0,136,136,52,1,stimuli/objects/bottlecap.jpg,left,old,53,,,,,,,,
,,,,,,,,12,2021-05-04_15h34.29.044,premceCat2_ses-02_part-02_label-phase2,2020.2.10,MacIntel,60,,,,,right,1.546,2,0.118,,,,,,,,0,137,137,57,1,stimuli/objects/audiocablesplitter.jpg,right,new,58,,,,,,,,
,,,,,,,,12,2021-05-04_15h34.29.044,premceCat2_ses-02_part-02_label-phase2,2020.2.10,MacIntel,60,,,,,left,2.34,2,0.145,left,1.558,0,0,0,0,1,,,,,,,,,,,,,,,,,
,,,,,,,,12,2021-05-04_15h34.29.044,premceCat2_ses-02_part-02_label-phase2,2020.2.10,MacIntel,60,,,,,,,,,,,,,,,,0,138,138,81,1,stimuli/objects/avcable.jpg,right,new,82,,,,,,,,
,,,,,,,,12,2021-05-04_15h34.29.044,premceCat2_ses-02_part-02_label-phase2,2020.2.10,MacIntel,60,,,,,right,1.557,2,0.235,,,,,,,,0,139,139,119,1,stimuli/objects/tongs01b.jpg,right,new,120,,,,,,,,
,,,,,,,,12,2021-05-04_15h34.29.044,premceCat2_ses-02_part-02_label-phase2,2020.2.10,MacIntel,60,,,,,left,0.8,4,0.361,left,0.233,0,0,0,0,1,,,,,,,,,,,,,,,,,
,,,,,,,,12,2021-05-04_15h34.29.044,premceCat2_ses-02_part-02_label-phase2,2020.2.10,MacIntel,60,,,,,,,,,,,,,,,,0,140,140,34,1,stimuli/objects/surfboard.jpg,left,old,35,,,,,,,,
,,,,,,,,12,2021-05-04_15h34.29.044,premceCat2_ses-02_part-02_label-phase2,2020.2.10,MacIntel,60,,,,,right,1.504,1,0.359,,,,,,,,0,141,141,92,1,stimuli/objects/carjack.jpg,right,new,93,,,,,,,,
,,,,,,,,12,2021-05-04_15h34.29.044,premceCat2_ses-02_part-02_label-phase2,2020.2.10,MacIntel,60,,,,,left,1.135,4,0.591,left,0.168,0,0,0,0,1,,,,,,,,,,,,,,,,,
,,,,,,,,12,2021-05-04_15h34.29.044,premceCat2_ses-02_part-02_label-phase2,2020.2.10,MacIntel,60,,,,,,,,,,,,,,,,0,142,142,49,1,stimuli/objects/badmintonracket.jpg,left,old,50,,,,,,,,
,,,,,,,,12,2021-05-04_15h34.29.044,premceCat2_ses-02_part-02_label-phase2,2020.2.10,MacIntel,60,,,,,,,,,,,,,,,,,,,,,,,,,space,27.971,0,0,0,0,1,condition_files/ImagesforRecog1_1.csv
,,,,,,,,12,2021-05-04_15h34.29.044,premceCat2_ses-02_part-02_label-phase2,2020.2.10,MacIntel,60,,,,,left,2.672,3,1.443,right,0.534,0,0,0,0,1,,,,,,,,,,,,,,,,,
,,,,,,,,12,2021-05-04_15h34.29.044,premceCat2_ses-02_part-02_label-phase2,2020.2.10,MacIntel,60,,,,,,,,,,,,,,,,0,0,0,109,1,stimuli/objects/peeler01.jpg,left,old,253,,,,,,,,
,,,,,,,,12,2021-05-04_15h34.29.044,premceCat2_ses-02_part-02_label-phase2,2020.2.10,MacIntel,60,,,,,right,1.889,2,0.33,,,,,,,,0,1,1,95,1,stimuli/objects/tennisball01b.jpg,right,new,239,,,,,,,,
,,,,,,,,12,2021-05-04_15h34.29.044,premceCat2_ses-02_part-02_label-phase2,2020.2.10,MacIntel,60,,,,,left,2.024,2,0.927,left,0.282,0,0,0,0,1,,,,,,,,,,,,,,,,,
,,,,,,,,12,2021-05-04_15h34.29.044,premceCat2_ses-02_part-02_label-phase2,2020.2.10,MacIntel,60,,,,,,,,,,,,,,,,0,2,2,126,1,stimuli/objects/shinpad.jpg,left,old,270,,,,,,,,
,,,,,,,,12,2021-05-04_15h34.29.044,premceCat2_ses-02_part-02_label-phase2,2020.2.10,MacIntel,60,,,,,left,1.005,4,0.18,left,0.242,0,0,0,0,1,,,,,,,,,,,,,,,,,
,,,,,,,,12,2021-05-04_15h34.29.044,premceCat2_ses-02_part-02_label-phase2,2020.2.10,MacIntel,60,,,,,,,,,,,,,,,,0,3,3,64,1,stimuli/objects/fishingrod.jpg,left,old,208,,,,,,,,
,,,,,,,,12,2021-05-04_15h34.29.044,premceCat2_ses-02_part-02_label-phase2,2020.2.10,MacIntel,60,,,,,left,1.831,4,0.251,left,0.093,0,0,0,0,1,,,,,,,,,,,,,,,,,
,,,,,,,,12,2021-05-04_15h34.29.044,premceCat2_ses-02_part-02_label-phase2,2020.2.10,MacIntel,60,,,,,,,,,,,,,,,,0,4,4,79,1,stimuli/objects/snowboard.jpg,left,old,223,,,,,,,,
,,,,,,,,12,2021-05-04_15h34.29.044,premceCat2_ses-02_part-02_label-phase2,2020.2.10,MacIntel,60,,,,,right,1.084,3,0.208,,,,,,,,0,5,5,2,1,stimuli/objects/wetfloorsign.jpg,right,new,146,,,,,,,,
,,,,,,,,12,2021-05-04_15h34.29.044,premceCat2_ses-02_part-02_label-phase2,2020.2.10,MacIntel,60,,,,,left,2.05,3,0.225,right,0.556,0,0,0,0,1,,,,,,,,,,,,,,,,,
,,,,,,,,12,2021-05-04_15h34.29.044,premceCat2_ses-02_part-02_label-phase2,2020.2.10,MacIntel,60,,,,,,,,,,,,,,,,0,6,6,15,1,stimuli/objects/computermouse06.jpg,right,new,159,,,,,,,,
,,,,,,,,12,2021-05-04_15h34.29.044,premceCat2_ses-02_part-02_label-phase2,2020.2.10,MacIntel,60,,,,,left,0.937,3,0.15,right,0.1,0,0,0,0,1,,,,,,,,,,,,,,,,,
,,,,,,,,12,2021-05-04_15h34.29.044,premceCat2_ses-02_part-02_label-phase2,2020.2.10,MacIntel,60,,,,,,,,,,,,,,,,0,7,7,100,1,stimuli/objects/lawnmower.jpg,left,old,244,,,,,,,,
,,,,,,,,12,2021-05-04_15h34.29.044,premceCat2_ses-02_part-02_label-phase2,2020.2.10,MacIntel,60,,,,,left,1.208,3,0.495,left,0.065,0,0,0,0,1,,,,,,,,,,,,,,,,,
,,,,,,,,12,2021-05-04_15h34.29.044,premceCat2_ses-02_part-02_label-phase2,2020.2.10,MacIntel,60,,,,,,,,,,,,,,,,0,8,8,66,1,stimuli/objects/heatpump.jpg,right,new,210,,,,,,,,
,,,,,,,,12,2021-05-04_15h34.29.044,premceCat2_ses-02_part-02_label-phase2,2020.2.10,MacIntel,60,,,,,right,1.397,2,0.682,,,,,,,,0,9,9,67,1,stimuli/objects/nintendods.jpg,left,old,211,,,,,,,,
,,,,,,,,12,2021-05-04_15h34.29.044,premceCat2_ses-02_part-02_label-phase2,2020.2.10,MacIntel,60,,,,,right,2.385,2,0.134,,,,,,,,0,10,10,132,1,stimuli/objects/wirestripper.jpg,right,new,276,,,,,,,,
,,,,,,,,12,2021-05-04_15h34.29.044,premceCat2_ses-02_part-02_label-phase2,2020.2.10,MacIntel,60,,,,,left,2.128,4,0.245,right,0.231,0,0,0,0,1,,,,,,,,,,,,,,,,,
,,,,,,,,12,2021-05-04_15h34.29.044,premceCat2_ses-02_part-02_label-phase2,2020.2.10,MacIntel,60,,,,,,,,,,,,,,,,0,11,11,11,1,stimuli/objects/antenna.jpg,left,old,155,,,,,,,,
,,,,,,,,12,2021-05-04_15h34.29.044,premceCat2_ses-02_part-02_label-phase2,2020.2.10,MacIntel,60,,,,,left,1.359,2,0.309,left,0.377,0,0,0,0,1,,,,,,,,,,,,,,,,,
,,,,,,,,12,2021-05-04_15h34.29.044,premceCat2_ses-02_part-02_label-phase2,2020.2.10,MacIntel,60,,,,,,,,,,,,,,,,0,12,12,34,1,stimuli/objects/kneepad01c.jpg,right,new,178,,,,,,,,
,,,,,,,,12,2021-05-04_15h34.29.044,premceCat2_ses-02_part-02_label-phase2,2020.2.10,MacIntel,60,,,,,left,0.839,4,0.194,right,0.383,0,0,0,0,1,,,,,,,,,,,,,,,,,
,,,,,,,,12,2021-05-04_15h34.29.044,premceCat2_ses-02_part-02_label-phase2,2020.2.10,MacIntel,60,,,,,,,,,,,,,,,,0,13,13,141,1,stimuli/objects/coffeepot03a.jpg,left,old,285,,,,,,,,
,,,,,,,,12,2021-05-04_15h34.29.044,premceCat2_ses-02_part-02_label-phase2,2020.2.10,MacIntel,60,,,,,right,1.578,2,0.035,,,,,,,,0,14,14,36,1,stimuli/objects/loppingshears.jpg,right,new,180,,,,,,,,
,,,,,,,,12,2021-05-04_15h34.29.044,premceCat2_ses-02_part-02_label-phase2,2020.2.10,MacIntel,60,,,,,right,1.441,2,0.009,,,,,,,,0,15,15,140,1,stimuli/objects/wineglass01.jpg,right,new,284,,,,,,,,
,,,,,,,,12,2021-05-04_15h34.29.044,premceCat2_ses-02_part-02_label-phase2,2020.2.10,MacIntel,60,,,,,right,1.026,2,0.385,,,,,,,,0,16,16,111,1,stimuli/objects/diaperbag.jpg,right,new,255,,,,,,,,
,,,,,,,,12,2021-05-04_15h34.29.044,premceCat2_ses-02_part-02_label-phase2,2020.2.10,MacIntel,60,,,,,left,1.76,2,0.03,left,0.038,0,0,0,0,1,,,,,,,,,,,,,,,,,
,,,,,,,,12,2021-05-04_15h34.29.044,premceCat2_ses-02_part-02_label-phase2,2020.2.10,MacIntel,60,,,,,,,,,,,,,,,,0,17,17,122,1,stimuli/objects/hockeystick.jpg,right,new,266,,,,,,,,
,,,,,,,,12,2021-05-04_15h34.29.044,premceCat2_ses-02_part-02_label-phase2,2020.2.10,MacIntel,60,,,,,left,2.672,4,0.458,left,0.825,0,0,0,0,1,,,,,,,,,,,,,,,,,
,,,,,,,,12,2021-05-04_15h34.29.044,premceCat2_ses-02_part-02_label-phase2,2020.2.10,MacIntel,60,,,,,,,,,,,,,,,,0,18,18,29,1,stimuli/objects/ipod.jpg,left,old,173,,,,,,,,
,,,,,,,,12,2021-05-04_15h34.29.044,premceCat2_ses-02_part-02_label-phase2,2020.2.10,MacIntel,60,,,,,left,1.931,1,0.349,left,0.092,0,0,0,0,1,,,,,,,,,,,,,,,,,
,,,,,,,,12,2021-05-04_15h34.29.044,premceCat2_ses-02_part-02_label-phase2,2020.2.10,MacIntel,60,,,,,,,,,,,,,,,,0,19,19,133,1,stimuli/objects/birdie.jpg,right,new,277,,,,,,,,
,,,,,,,,12,2021-05-04_15h34.29.044,premceCat2_ses-02_part-02_label-phase2,2020.2.10,MacIntel,60,,,,,right,1.332,2,0.377,,,,,,,,0,20,20,46,1,stimuli/objects/waterbottleholder.jpg,right,new,190,,,,,,,,
,,,,,,,,12,2021-05-04_15h34.29.044,premceCat2_ses-02_part-02_label-phase2,2020.2.10,MacIntel,60,,,,,left,3.177,2,0.165,left,1.958,0,0,0,0,1,,,,,,,,,,,,,,,,,
,,,,,,,,12,2021-05-04_15h34.29.044,premceCat2_ses-02_part-02_label-phase2,2020.2.10,MacIntel,60,,,,,,,,,,,,,,,,0,21,21,55,1,stimuli/objects/fonduefork01.jpg,right,new,199,,,,,,,,
,,,,,,,,12,2021-05-04_15h34.29.044,premceCat2_ses-02_part-02_label-phase2,2020.2.10,MacIntel,60,,,,,right,2.475,1,0.836,,,,,,,,0,22,22,35,1,stimuli/objects/stroller.jpg,right,new,179,,,,,,,,
,,,,,,,,12,2021-05-04_15h34.29.044,premceCat2_ses-02_part-02_label-phase2,2020.2.10,MacIntel,60,,,,,right,1.503,1,1.935,,,,,,,,0,23,23,17,1,stimuli/objects/propanetank01.jpg,left,old,161,,,,,,,,
,,,,,,,,12,2021-05-04_15h34.29.044,premceCat2_ses-02_part-02_label-phase2,2020.2.10,MacIntel,60,,,,,left,1.908,3,0.19,left,0.21,0,0,0,0,1,,,,,,,,,,,,,,,,,
,,,,,,,,12,2021-05-04_15h34.29.044,premceCat2_ses-02_part-02_label-phase2,2020.2.10,MacIntel,60,,,,,,,,,,,,,,,,0,24,24,62,1,stimuli/objects/spoon01.jpg,left,old,206,,,,,,,,
,,,,,,,,12,2021-05-04_15h34.29.044,premceCat2_ses-02_part-02_label-phase2,2020.2.10,MacIntel,60,,,,,left,3.065,1,0.033,right,0.341,0,0,0,0,1,,,,,,,,,,,,,,,,,
,,,,,,,,12,2021-05-04_15h34.29.044,premceCat2_ses-02_part-02_label-phase2,2020.2.10,MacIntel,60,,,,,,,,,,,,,,,,0,25,25,5,1,stimuli/objects/pickaxe02.jpg,right,new,149,,,,,,,,
,,,,,,,,12,2021-05-04_15h34.29.044,premceCat2_ses-02_part-02_label-phase2,2020.2.10,MacIntel,60,,,,,left,2.109,4,0.253,left,0.241,0,0,0,0,1,,,,,,,,,,,,,,,,,
,,,,,,,,12,2021-05-04_15h34.29.044,premceCat2_ses-02_part-02_label-phase2,2020.2.10,MacIntel,60,,,,,,,,,,,,,,,,0,26,26,74,1,stimuli/objects/poolnet.jpg,left,old,218,,,,,,,,
,,,,,,,,12,2021-05-04_15h34.29.044,premceCat2_ses-02_part-02_label-phase2,2020.2.10,MacIntel,60,,,,,right,6.491,2,0.034,,,,,,,,0,27,27,91,1,stimuli/objects/cuttingpliers02.jpg,right,new,235,,,,,,,,
,,,,,,,,12,2021-05-04_15h34.29.044,premceCat2_ses-02_part-02_label-phase2,2020.2.10,MacIntel,60,,,,,right,2.722,2,0.11,,,,,,,,0,28,28,68,1,stimuli/objects/ladle02a.jpg,right,new,212,,,,,,,,
,,,,,,,,12,2021-05-04_15h34.29.044,premceCat2_ses-02_part-02_label-phase2,2020.2.10,MacIntel,60,,,,,right,1.322,3,0.052,,,,,,,,0,29,29,9,1,stimuli/objects/alarmsystem.jpg,right,new,153,,,,,,,,
,,,,,,,,12,2021-05-04_15h34.29.044,premceCat2_ses-02_part-02_label-phase2,2020.2.10,MacIntel,60,,,,,left,1.002,4,0.119,left,1.042,0,0,0,0,1,,,,,,,,,,,,,,,,,
,,,,,,,,12,2021-05-04_15h34.29.044,premceCat2_ses-02_part-02_label-phase2,2020.2.10,MacIntel,60,,,,,,,,,,,,,,,,0,30,30,96,1,stimuli/objects/knifesharpener.jpg,left,old,240,,,,,,,,
,,,,,,,,12,2021-05-04_15h34.29.044,premceCat2_ses-02_part-02_label-phase2,2020.2.10,MacIntel,60,,,,,left,3.241,2,0.377,right,0.728,0,0,0,0,1,,,,,,,,,,,,,,,,,
,,,,,,,,12,2021-05-04_15h34.29.044,premceCat2_ses-02_part-02_label-phase2,2020.2.10,MacIntel,60,,,,,,,,,,,,,,,,0,31,31,24,1,stimuli/objects/monitor.jpg,right,new,168,,,,,,,,
,,,,,,,,12,2021-05-04_15h34.29.044,premceCat2_ses-02_part-02_label-phase2,2020.2.10,MacIntel,60,,,,,left,1.841,1,0.191,left,0.19,0,0,0,0,1,,,,,,,,,,,,,,,,,
,,,,,,,,12,2021-05-04_15h34.29.044,premceCat2_ses-02_part-02_label-phase2,2020.2.10,MacIntel,60,,,,,,,,,,,,,,,,0,32,32,39,1,stimuli/objects/wafflemaker.jpg,right,new,183,,,,,,,,
,,,,,,,,12,2021-05-04_15h34.29.044,premceCat2_ses-02_part-02_label-phase2,2020.2.10,MacIntel,60,,,,,left,1.705,4,0.366,left,1.032,0,0,0,0,1,,,,,,,,,,,,,,,,,
,,,,,,,,12,2021-05-04_15h34.29.044,premceCat2_ses-02_part-02_label-phase2,2020.2.10,MacIntel,60,,,,,,,,,,,,,,,,0,33,33,14,1,stimuli/objects/canoepaddle02.jpg,left,old,158,,,,,,,,
,,,,,,,,12,2021-05-04_15h34.29.044,premceCat2_ses-02_part-02_label-phase2,2020.2.10,MacIntel,60,,,,,left,1.307,3,0.167,right,0.174,0,0,0,0,1,,,,,,,,,,,,,,,,,
,,,,,,,,12,2021-05-04_15h34.29.044,premceCat2_ses-02_part-02_label-phase2,2020.2.10,MacIntel,60,,,,,,,,,,,,,,,,0,34,34,21,1,stimuli/objects/adjustablewrench01b.jpg,left,old,165,,,,,,,,
,,,,,,,,12,2021-05-04_15h34.29.044,premceCat2_ses-02_part-02_label-phase2,2020.2.10,MacIntel,60,,,,,left,1.576,3,0.059,right,0.226,0,0,0,0,1,,,,,,,,,,,,,,,,,
,,,,,,,,12,2021-05-04_15h34.29.044,premceCat2_ses-02_part-02_label-phase2,2020.2.10,MacIntel,60,,,,,,,,,,,,,,,,0,35,35,51,1,stimuli/objects/cheeseknife01.jpg,right,new,195,,,,,,,,
,,,,,,,,12,2021-05-04_15h34.29.044,premceCat2_ses-02_part-02_label-phase2,2020.2.10,MacIntel,60,,,,,left,0.932,4,0.196,right,0.242,0,0,0,0,1,,,,,,,,,,,,,,,,,
,,,,,,,,12,2021-05-04_15h34.29.044,premceCat2_ses-02_part-02_label-phase2,2020.2.10,MacIntel,60,,,,,,,,,,,,,,,,0,36,36,104,1,stimuli/objects/lectern01.jpg,left,old,248,,,,,,,,
,,,,,,,,12,2021-05-04_15h34.29.044,premceCat2_ses-02_part-02_label-phase2,2020.2.10,MacIntel,60,,,,,left,0.904,3,0.039,left,0.314,0,0,0,0,1,,,,,,,,,,,,,,,,,
,,,,,,,,12,2021-05-04_15h34.29.044,premceCat2_ses-02_part-02_label-phase2,2020.2.10,MacIntel,60,,,,,,,,,,,,,,,,0,37,37,38,1,stimuli/objects/rollingpin01a.jpg,left,old,182,,,,,,,,
,,,,,,,,12,2021-05-04_15h34.29.044,premceCat2_ses-02_part-02_label-phase2,2020.2.10,MacIntel,60,,,,,left,1.54,2,0.005,right,0.56,0,0,0,0,1,,,,,,,,,,,,,,,,,
,,,,,,,,12,2021-05-04_15h34.29.044,premceCat2_ses-02_part-02_label-phase2,2020.2.10,MacIntel,60,,,,,,,,,,,,,,,,0,38,38,94,1,stimuli/objects/file.jpg,right,new,238,,,,,,,,
,,,,,,,,12,2021-05-04_15h34.29.044,premceCat2_ses-02_part-02_label-phase2,2020.2.10,MacIntel,60,,,,,left,1.401,3,0.063,left,0.341,0,0,0,0,1,,,,,,,,,,,,,,,,,
,,,,,,,,12,2021-05-04_15h34.29.044,premceCat2_ses-02_part-02_label-phase2,2020.2.10,MacIntel,60,,,,,,,,,,,,,,,,0,39,39,124,1,stimuli/objects/basketball01.jpg,right,new,268,,,,,,,,
,,,,,,,,12,2021-05-04_15h34.29.044,premceCat2_ses-02_part-02_label-phase2,2020.2.10,MacIntel,60,,,,,left,0.937,4,0.11,left,0.14,0,0,0,0,1,,,,,,,,,,,,,,,,,
,,,,,,,,12,2021-05-04_15h34.29.044,premceCat2_ses-02_part-02_label-phase2,2020.2.10,MacIntel,60,,,,,,,,,,,,,,,,0,40,40,28,1,stimuli/objects/saladspinner.jpg,left,old,172,,,,,,,,
,,,,,,,,12,2021-05-04_15h34.29.044,premceCat2_ses-02_part-02_label-phase2,2020.2.10,MacIntel,60,,,,,left,1.031,2,0.091,left,0.033,0,0,0,0,1,,,,,,,,,,,,,,,,,
,,,,,,,,12,2021-05-04_15h34.29.044,premceCat2_ses-02_part-02_label-phase2,2020.2.10,MacIntel,60,,,,,,,,,,,,,,,,0,41,41,47,1,stimuli/objects/plate01b.jpg,right,new,191,,,,,,,,
,,,,,,,,12,2021-05-04_15h34.29.044,premceCat2_ses-02_part-02_label-phase2,2020.2.10,MacIntel,60,,,,,left,1.967,2,0.199,left,0.007,0,0,0,0,1,,,,,,,,,,,,,,,,,
,,,,,,,,12,2021-05-04_15h34.29.044,premceCat2_ses-02_part-02_label-phase2,2020.2.10,MacIntel,60,,,,,,,,,,,,,,,,0,42,42,59,1,stimuli/objects/speedball.jpg,right,new,203,,,,,,,,
,,,,,,,,12,2021-05-04_15h34.29.044,premceCat2_ses-02_part-02_label-phase2,2020.2.10,MacIntel,60,,,,,left,2.675,2,0.066,right,0.118,0,0,0,0,1,,,,,,,,,,,,,,,,,
,,,,,,,,12,2021-05-04_15h34.29.044,premceCat2_ses-02_part-02_label-phase2,2020.2.10,MacIntel,60,,,,,,,,,,,,,,,,0,43,43,33,1,stimuli/objects/ethernetcable02.jpg,left,old,177,,,,,,,,
,,,,,,,,12,2021-05-04_15h34.29.044,premceCat2_ses-02_part-02_label-phase2,2020.2.10,MacIntel,60,,,,,left,0.832,4,0.267,right,0.24,0,0,0,0,1,,,,,,,,,,,,,,,,,
,,,,,,,,12,2021-05-04_15h34.29.044,premceCat2_ses-02_part-02_label-phase2,2020.2.10,MacIntel,60,,,,,,,,,,,,,,,,0,44,44,61,1,stimuli/objects/setsquare.jpg,left,old,205,,,,,,,,
,,,,,,,,12,2021-05-04_15h34.29.044,premceCat2_ses-02_part-02_label-phase2,2020.2.10,MacIntel,60,,,,,left,1.074,4,0.211,right,0.106,0,0,0,0,1,,,,,,,,,,,,,,,,,
,,,,,,,,12,2021-05-04_15h34.29.044,premceCat2_ses-02_part-02_label-phase2,2020.2.10,MacIntel,60,,,,,,,,,,,,,,,,0,45,45,27,1,stimuli/objects/wateringcan.jpg,left,old,171,,,,,,,,
,,,,,,,,12,2021-05-04_15h34.29.044,premceCat2_ses-02_part-02_label-phase2,2020.2.10,MacIntel,60,,,,,left,0.95,4,0.21,left,0.075,0,0,0,0,1,,,,,,,,,,,,,,,,,
,,,,,,,,12,2021-05-04_15h34.29.044,premceCat2_ses-02_part-02_label-phase2,2020.2.10,MacIntel,60,,,,,,,,,,,,,,,,0,46,46,80,1,stimuli/objects/barbecue03.jpg,right,new,224,,,,,,,,
,,,,,,,,12,2021-05-04_15h34.29.044,premceCat2_ses-02_part-02_label-phase2,2020.2.10,MacIntel,60,,,,,left,1.051,3,0.065,left,0.468,0,0,0,0,1,,,,,,,,,,,,,,,,,
,,,,,,,,12,2021-05-04_15h34.29.044,premceCat2_ses-02_part-02_label-phase2,2020.2.10,MacIntel,60,,,,,,,,,,,,,,,,0,47,47,23,1,stimuli/objects/baseballglove.jpg,left,old,167,,,,,,,,
,,,,,,,,12,2021-05-04_15h34.29.044,premceCat2_ses-02_part-02_label-phase2,2020.2.10,MacIntel,60,,,,,left,0.908,4,0.091,right,0.146,0,0,0,0,1,,,,,,,,,,,,,,,,,
,,,,,,,,12,2021-05-04_15h34.29.044,premceCat2_ses-02_part-02_label-phase2,2020.2.10,MacIntel,60,,,,,,,,,,,,,,,,0,48,48,134,1,stimuli/objects/filmnegative.jpg,left,old,278,,,,,,,,
,,,,,,,,12,2021-05-04_15h34.29.044,premceCat2_ses-02_part-02_label-phase2,2020.2.10,MacIntel,60,,,,,right,4.39,2,0.468,,,,,,,,0,49,49,86,1,stimuli/objects/trampoline.jpg,right,new,230,,,,,,,,
,,,,,,,,12,2021-05-04_15h34.29.044,premceCat2_ses-02_part-02_label-phase2,2020.2.10,MacIntel,60,,,,,left,1.351,2,0.146,right,0.132,0,0,0,0,1,,,,,,,,,,,,,,,,,
,,,,,,,,12,2021-05-04_15h34.29.044,premceCat2_ses-02_part-02_label-phase2,2020.2.10,MacIntel,60,,,,,,,,,,,,,,,,0,50,50,113,1,stimuli/objects/boltcutter.jpg,left,old,257,,,,,,,,
,,,,,,,,12,2021-05-04_15h34.29.044,premceCat2_ses-02_part-02_label-phase2,2020.2.10,MacIntel,60,,,,,right,1.365,1,3.697,,,,,,,,0,51,51,52,1,stimuli/objects/extensioncord.jpg,left,old,196,,,,,,,,
,,,,,,,,12,2021-05-04_15h34.29.044,premceCat2_ses-02_part-02_label-phase2,2020.2.10,MacIntel,60,,,,,left,4.173,2,0.575,right,0.051,0,0,0,0,1,,,,,,,,,,,,,,,,,
,,,,,,,,12,2021-05-04_15h34.29.044,premceCat2_ses-02_part-02_label-phase2,2020.2.10,MacIntel,60,,,,,,,,,,,,,,,,0,52,52,41,1,stimuli/objects/flask.jpg,right,new,185,,,,,,,,
,,,,,,,,12,2021-05-04_15h34.29.044,premceCat2_ses-02_part-02_label-phase2,2020.2.10,MacIntel,60,,,,,left,0.808,3,0.209,right,0.047,0,0,0,0,1,,,,,,,,,,,,,,,,,
,,,,,,,,12,2021-05-04_15h34.29.044,premceCat2_ses-02_part-02_label-phase2,2020.2.10,MacIntel,60,,,,,,,,,,,,,,,,0,53,53,43,1,stimuli/objects/bowrake.jpg,right,new,187,,,,,,,,
,,,,,,,,12,2021-05-04_15h34.29.044,premceCat2_ses-02_part-02_label-phase2,2020.2.10,MacIntel,60,,,,,right,2.189,3,0.334,,,,,,,,0,54,54,81,1,stimuli/objects/grill.jpg,right,new,225,,,,,,,,
,,,,,,,,12,2021-05-04_15h34.29.044,premceCat2_ses-02_part-02_label-phase2,2020.2.10,MacIntel,60,,,,,left,1.358,4,0.424,left,1.643,0,0,0,0,1,,,,,,,,,,,,,,,,,
,,,,,,,,12,2021-05-04_15h34.29.044,premceCat2_ses-02_part-02_label-phase2,2020.2.10,MacIntel,60,,,,,,,,,,,,,,,,0,55,55,119,1,stimuli/objects/cookiecutter.jpg,left,old,263,,,,,,,,
,,,,,,,,12,2021-05-04_15h34.29.044,premceCat2_ses-02_part-02_label-phase2,2020.2.10,MacIntel,60,,,,,left,2.392,4,0.076,right,0.433,0,0,0,0,1,,,,,,,,,,,,,,,,,
,,,,,,,,12,2021-05-04_15h34.29.044,premceCat2_ses-02_part-02_label-phase2,2020.2.10,MacIntel,60,,,,,,,,,,,,,,,,0,56,56,129,1,stimuli/objects/jigsaw.jpg,left,old,273,,,,,,,,
,,,,,,,,12,2021-05-04_15h34.29.044,premceCat2_ses-02_part-02_label-phase2,2020.2.10,MacIntel,60,,,,,right,1.914,3,0.016,,,,,,,,0,57,57,83,1,stimuli/objects/icecubetray01a.jpg,right,new,227,,,,,,,,
,,,,,,,,12,2021-05-04_15h34.29.044,premceCat2_ses-02_part-02_label-phase2,2020.2.10,MacIntel,60,,,,,left,0.84,4,0.192,right,0.292,0,0,0,0,1,,,,,,,,,,,,,,,,,
,,,,,,,,12,2021-05-04_15h34.29.044,premceCat2_ses-02_part-02_label-phase2,2020.2.10,MacIntel,60,,,,,,,,,,,,,,,,0,58,58,89,1,stimuli/objects/pastaspoon.jpg,left,old,233,,,,,,,,
,,,,,,,,12,2021-05-04_15h34.29.044,premceCat2_ses-02_part-02_label-phase2,2020.2.10,MacIntel,60,,,,,left,2.589,2,0,right,0.36,0,0,0,0,1,,,,,,,,,,,,,,,,,
,,,,,,,,12,2021-05-04_15h34.29.044,premceCat2_ses-02_part-02_label-phase2,2020.2.10,MacIntel,60,,,,,,,,,,,,,,,,0,59,59,76,1,stimuli/objects/satellitedish01.jpg,left,old,220,,,,,,,,
,,,,,,,,12,2021-05-04_15h34.29.044,premceCat2_ses-02_part-02_label-phase2,2020.2.10,MacIntel,60,,,,,left,1.031,4,0.035,right,0.075,0,0,0,0,1,,,,,,,,,,,,,,,,,
,,,,,,,,12,2021-05-04_15h34.29.044,premceCat2_ses-02_part-02_label-phase2,2020.2.10,MacIntel,60,,,,,,,,,,,,,,,,0,60,60,22,1,stimuli/objects/pipewrench.jpg,left,old,166,,,,,,,,
,,,,,,,,12,2021-05-04_15h34.29.044,premceCat2_ses-02_part-02_label-phase2,2020.2.10,MacIntel,60,,,,,left,1.363,4,0.21,left,0.109,0,0,0,0,1,,,,,,,,,,,,,,,,,
,,,,,,,,12,2021-05-04_15h34.29.044,premceCat2_ses-02_part-02_label-phase2,2020.2.10,MacIntel,60,,,,,,,,,,,,,,,,0,61,61,57,1,stimuli/objects/soccerball.jpg,left,old,201,,,,,,,,
,,,,,,,,12,2021-05-04_15h34.29.044,premceCat2_ses-02_part-02_label-phase2,2020.2.10,MacIntel,60,,,,,left,0.931,2,0,right,0.251,0,0,0,0,1,,,,,,,,,,,,,,,,,
,,,,,,,,12,2021-05-04_15h34.29.044,premceCat2_ses-02_part-02_label-phase2,2020.2.10,MacIntel,60,,,,,,,,,,,,,,,,0,62,62,107,1,stimuli/objects/dolly01.jpg,right,new,251,,,,,,,,
,,,,,,,,12,2021-05-04_15h34.29.044,premceCat2_ses-02_part-02_label-phase2,2020.2.10,MacIntel,60,,,,,right,1.598,4,0.248,,,,,,,,0,63,63,87,1,stimuli/objects/wiicontroller.jpg,right,new,231,,,,,,,,
,,,,,,,,12,2021-05-04_15h34.29.044,premceCat2_ses-02_part-02_label-phase2,2020.2.10,MacIntel,60,,,,,left,0.883,4,0.334,left,0.56,0,0,0,0,1,,,,,,,,,,,,,,,,,
,,,,,,,,12,2021-05-04_15h34.29.044,premceCat2_ses-02_part-02_label-phase2,2020.2.10,MacIntel,60,,,,,,,,,,,,,,,,0,64,64,105,1,stimuli/objects/cork02.jpg,left,old,249,,,,,,,,
,,,,,,,,12,2021-05-04_15h34.29.044,premceCat2_ses-02_part-02_label-phase2,2020.2.10,MacIntel,60,,,,,right,1.926,1,0.301,,,,,,,,0,65,65,0,1,stimuli/objects/smokedetector02.jpg,right,new,144,,,,,,,,
,,,,,,,,12,2021-05-04_15h34.29.044,premceCat2_ses-02_part-02_label-phase2,2020.2.10,MacIntel,60,,,,,right,2.666,2,0.477,,,,,,,,0,66,66,114,1,stimuli/objects/drinkshaker.jpg,right,new,258,,,,,,,,
,,,,,,,,12,2021-05-04_15h34.29.044,premceCat2_ses-02_part-02_label-phase2,2020.2.10,MacIntel,60,,,,,right,1.139,2,0.169,,,,,,,,0,67,67,69,1,stimuli/objects/straw.jpg,right,new,213,,,,,,,,
,,,,,,,,12,2021-05-04_15h34.29.044,premceCat2_ses-02_part-02_label-phase2,2020.2.10,MacIntel,60,,,,,left,1.382,4,0.09,right,0.144,0,0,0,0,1,,,,,,,,,,,,,,,,,
,,,,,,,,12,2021-05-04_15h34.29.044,premceCat2_ses-02_part-02_label-phase2,2020.2.10,MacIntel,60,,,,,,,,,,,,,,,,0,68,68,123,1,stimuli/objects/jackhammer.jpg,right,new,267,,,,,,,,
,,,,,,,,12,2021-05-04_15h34.29.044,premceCat2_ses-02_part-02_label-phase2,2020.2.10,MacIntel,60,,,,,left,1.3,4,0.102,right,0.216,0,0,0,0,1,,,,,,,,,,,,,,,,,
,,,,,,,,12,2021-05-04_15h34.29.044,premceCat2_ses-02_part-02_label-phase2,2020.2.10,MacIntel,60,,,,,,,,,,,,,,,,0,69,69,37,1,stimuli/objects/papershredder.jpg,left,old,181,,,,,,,,
,,,,,,,,12,2021-05-04_15h34.29.044,premceCat2_ses-02_part-02_label-phase2,2020.2.10,MacIntel,60,,,,,left,0.842,4,0.317,left,0.101,0,0,0,0,1,,,,,,,,,,,,,,,,,
,,,,,,,,12,2021-05-04_15h34.29.044,premceCat2_ses-02_part-02_label-phase2,2020.2.10,MacIntel,60,,,,,,,,,,,,,,,,0,70,70,97,1,stimuli/objects/shotglass.jpg,left,old,241,,,,,,,,
,,,,,,,,12,2021-05-04_15h34.29.044,premceCat2_ses-02_part-02_label-phase2,2020.2.10,MacIntel,60,,,,,left,1.831,4,0.094,left,0.195,0,0,0,0,1,,,,,,,,,,,,,,,,,
,,,,,,,,12,2021-05-04_15h34.29.044,premceCat2_ses-02_part-02_label-phase2,2020.2.10,MacIntel,60,,,,,,,,,,,,,,,,0,71,71,112,1,stimuli/objects/filmroll.jpg,left,old,256,,,,,,,,
,,,,,,,,12,2021-05-04_15h34.29.044,premceCat2_ses-02_part-02_label-phase2,2020.2.10,MacIntel,60,,,,,left,1.601,2,0.3,right,0.425,0,0,0,0,1,,,,,,,,,,,,,,,,,
,,,,,,,,12,2021-05-04_15h34.29.044,premceCat2_ses-02_part-02_label-phase2,2020.2.10,MacIntel,60,,,,,,,,,,,,,,,,0,72,72,99,1,stimuli/objects/floodlight.jpg,right,new,243,,,,,,,,
,,,,,,,,12,2021-05-04_15h34.29.044,premceCat2_ses-02_part-02_label-phase2,2020.2.10,MacIntel,60,,,,,right,1.082,4,0.135,,,,,,,,0,73,73,98,1,stimuli/objects/cameracase01a.jpg,right,new,242,,,,,,,,
,,,,,,,,12,2021-05-04_15h34.29.044,premceCat2_ses-02_part-02_label-phase2,2020.2.10,MacIntel,60,,,,,left,2.063,4,0.226,left,0.373,0,0,0,0,1,,,,,,,,,,,,,,,,,
,,,,,,,,12,2021-05-04_15h34.29.044,premceCat2_ses-02_part-02_label-phase2,2020.2.10,MacIntel,60,,,,,,,,,,,,,,,,0,74,74,32,1,stimuli/objects/potatomasher03b.jpg,left,old,176,,,,,,,,
,,,,,,,,12,2021-05-04_15h34.29.044,premceCat2_ses-02_part-02_label-phase2,2020.2.10,MacIntel,60,,,,,left,1.258,3,0.084,left,0.157,0,0,0,0,1,,,,,,,,,,,,,,,,,
,,,,,,,,12,2021-05-04_15h34.29.044,premceCat2_ses-02_part-02_label-phase2,2020.2.10,MacIntel,60,,,,,,,,,,,,,,,,0,75,75,12,1,stimuli/objects/fanheater.jpg,right,new,156,,,,,,,,
,,,,,,,,12,2021-05-04_15h34.29.044,premceCat2_ses-02_part-02_label-phase2,2020.2.10,MacIntel,60,,,,,left,1.083,2,0.136,right,0.03,0,0,0,0,1,,,,,,,,,,,,,,,,,
,,,,,,,,12,2021-05-04_15h34.29.044,premceCat2_ses-02_part-02_label-phase2,2020.2.10,MacIntel,60,,,,,,,,,,,,,,,,0,76,76,13,1,stimuli/objects/leafrake.jpg,left,old,157,,,,,,,,
,,,,,,,,12,2021-05-04_15h34.29.044,premceCat2_ses-02_part-02_label-phase2,2020.2.10,MacIntel,60,,,,,right,1.665,1,0.891,,,,,,,,0,77,77,101,1,stimuli/objects/lifejacket.jpg,right,new,245,,,,,,,,
,,,,,,,,12,2021-05-04_15h34.29.044,premceCat2_ses-02_part-02_label-phase2,2020.2.10,MacIntel,60,,,,,left,1.005,4,0.11,left,0.229,0,0,0,0,1,,,,,,,,,,,,,,,,,
,,,,,,,,12,2021-05-04_15h34.29.044,premceCat2_ses-02_part-02_label-phase2,2020.2.10,MacIntel,60,,,,,,,,,,,,,,,,0,78,78,63,1,stimuli/objects/watercooler.jpg,left,old,207,,,,,,,,
,,,,,,,,12,2021-05-04_15h34.29.044,premceCat2_ses-02_part-02_label-phase2,2020.2.10,MacIntel,60,,,,,left,0.836,4,0.123,right,0.049,0,0,0,0,1,,,,,,,,,,,,,,,,,
,,,,,,,,12,2021-05-04_15h34.29.044,premceCat2_ses-02_part-02_label-phase2,2020.2.10,MacIntel,60,,,,,,,,,,,,,,,,0,79,79,50,1,stimuli/objects/magneticcompass.jpg,left,old,194,,,,,,,,
,,,,,,,,12,2021-05-04_15h34.29.044,premceCat2_ses-02_part-02_label-phase2,2020.2.10,MacIntel,60,,,,,left,0.891,4,0.095,right,0.04,0,0,0,0,1,,,,,,,,,,,,,,,,,
,,,,,,,,12,2021-05-04_15h34.29.044,premceCat2_ses-02_part-02_label-phase2,2020.2.10,MacIntel,60,,,,,,,,,,,,,,,,0,80,80,116,1,stimuli/objects/lockingplier.jpg,right,new,260,,,,,,,,
,,,,,,,,12,2021-05-04_15h34.29.044,premceCat2_ses-02_part-02_label-phase2,2020.2.10,MacIntel,60,,,,,right,1.317,4,0.075,,,,,,,,0,81,81,137,1,stimuli/objects/nutcracker01.jpg,right,new,281,,,,,,,,
,,,,,,,,12,2021-05-04_15h34.29.044,premceCat2_ses-02_part-02_label-phase2,2020.2.10,MacIntel,60,,,,,left,0.861,4,0.116,left,0.732,0,0,0,0,1,,,,,,,,,,,,,,,,,
,,,,,,,,12,2021-05-04_15h34.29.044,premceCat2_ses-02_part-02_label-phase2,2020.2.10,MacIntel,60,,,,,,,,,,,,,,,,0,82,82,128,1,stimuli/objects/espressomachine.jpg,left,old,272,,,,,,,,
,,,,,,,,12,2021-05-04_15h34.29.044,premceCat2_ses-02_part-02_label-phase2,2020.2.10,MacIntel,60,,,,,left,1.066,4,0.115,right,0.033,0,0,0,0,1,,,,,,,,,,,,,,,,,
,,,,,,,,12,2021-05-04_15h34.29.044,premceCat2_ses-02_part-02_label-phase2,2020.2.10,MacIntel,60,,,,,,,,,,,,,,,,0,83,83,54,1,stimuli/objects/stubbywrench01a.jpg,left,old,198,,,,,,,,
,,,,,,,,12,2021-05-04_15h34.29.044,premceCat2_ses-02_part-02_label-phase2,2020.2.10,MacIntel,60,,,,,left,1.38,4,0.047,right,3.045,0,0,0,0,1,,,,,,,,,,,,,,,,,
,,,,,,,,12,2021-05-04_15h34.29.044,premceCat2_ses-02_part-02_label-phase2,2020.2.10,MacIntel,60,,,,,,,,,,,,,,,,0,84,84,18,1,stimuli/objects/dvdplayer.jpg,left,old,162,,,,,,,,
,,,,,,,,12,2021-05-04_15h34.29.044,premceCat2_ses-02_part-02_label-phase2,2020.2.10,MacIntel,60,,,,,left,0.966,4,0.044,left,0.506,0,0,0,0,1,,,,,,,,,,,,,,,,,
,,,,,,,,12,2021-05-04_15h34.29.044,premceCat2_ses-02_part-02_label-phase2,2020.2.10,MacIntel,60,,,,,,,,,,,,,,,,0,85,85,45,1,stimuli/objects/bikelock.jpg,left,old,189,,,,,,,,
,,,,,,,,12,2021-05-04_15h34.29.044,premceCat2_ses-02_part-02_label-phase2,2020.2.10,MacIntel,60,,,,,right,1.706,2,0.067,,,,,,,,0,86,86,40,1,stimuli/objects/tablesaw.jpg,right,new,184,,,,,,,,
,,,,,,,,12,2021-05-04_15h34.29.044,premceCat2_ses-02_part-02_label-phase2,2020.2.10,MacIntel,60,,,,,right,1.383,2,0.51,,,,,,,,0,87,87,138,1,stimuli/objects/beermug01a.jpg,right,new,282,,,,,,,,
,,,,,,,,12,2021-05-04_15h34.29.044,premceCat2_ses-02_part-02_label-phase2,2020.2.10,MacIntel,60,,,,,left,1.217,3,0.102,left,0.384,0,0,0,0,1,,,,,,,,,,,,,,,,,
,,,,,,,,12,2021-05-04_15h34.29.044,premceCat2_ses-02_part-02_label-phase2,2020.2.10,MacIntel,60,,,,,,,,,,,,,,,,0,88,88,103,1,stimuli/objects/swissarmyknife01a.jpg,right,new,247,,,,,,,,
,,,,,,,,12,2021-05-04_15h34.29.044,premceCat2_ses-02_part-02_label-phase2,2020.2.10,MacIntel,60,,,,,left,0.932,4,0.041,right,0.267,0,0,0,0,1,,,,,,,,,,,,,,,,,
,,,,,,,,12,2021-05-04_15h34.29.044,premceCat2_ses-02_part-02_label-phase2,2020.2.10,MacIntel,60,,,,,,,,,,,,,,,,0,89,89,92,1,stimuli/objects/gluetube.jpg,left,old,236,,,,,,,,
,,,,,,,,12,2021-05-04_15h34.29.044,premceCat2_ses-02_part-02_label-phase2,2020.2.10,MacIntel,60,,,,,right,1.067,3,0.102,,,,,,,,0,90,90,121,1,stimuli/objects/parachute.jpg,right,new,265,,,,,,,,
,,,,,,,,12,2021-05-04_15h34.29.044,premceCat2_ses-02_part-02_label-phase2,2020.2.10,MacIntel,60,,,,,left,1.559,4,0.065,left,0.282,0,0,0,0,1,,,,,,,,,,,,,,,,,
,,,,,,,,12,2021-05-04_15h34.29.044,premceCat2_ses-02_part-02_label-phase2,2020.2.10,MacIntel,60,,,,,,,,,,,,,,,,0,91,91,139,1,stimuli/objects/measuringcup01.jpg,left,old,283,,,,,,,,
,,,,,,,,12,2021-05-04_15h34.29.044,premceCat2_ses-02_part-02_label-phase2,2020.2.10,MacIntel,60,,,,,left,1.648,4,0.04,left,0.06,0,0,0,0,1,,,,,,,,,,,,,,,,,
,,,,,,,,12,2021-05-04_15h34.29.044,premceCat2_ses-02_part-02_label-phase2,2020.2.10,MacIntel,60,,,,,,,,,,,,,,,,0,92,92,88,1,stimuli/objects/charcoalbarbecue.jpg,left,old,232,,,,,,,,
,,,,,,,,12,2021-05-04_15h34.29.044,premceCat2_ses-02_part-02_label-phase2,2020.2.10,MacIntel,60,,,,,right,2.135,2,0.049,,,,,,,,0,93,93,120,1,stimuli/objects/tent.jpg,right,new,264,,,,,,,,
,,,,,,,,12,2021-05-04_15h34.29.044,premceCat2_ses-02_part-02_label-phase2,2020.2.10,MacIntel,60,,,,,right,1.519,2,0.06,,,,,,,,0,94,94,78,1,stimuli/objects/lightswitch01.jpg,right,new,222,,,,,,,,
,,,,,,,,12,2021-05-04_15h34.29.044,premceCat2_ses-02_part-02_label-phase2,2020.2.10,MacIntel,60,,,,,left,0.782,4,0.059,left,0.024,0,0,0,0,1,,,,,,,,,,,,,,,,,
,,,,,,,,12,2021-05-04_15h34.29.044,premceCat2_ses-02_part-02_label-phase2,2020.2.10,MacIntel,60,,,,,,,,,,,,,,,,0,95,95,73,1,stimuli/objects/weight01.jpg,left,old,217,,,,,,,,
,,,,,,,,12,2021-05-04_15h34.29.044,premceCat2_ses-02_part-02_label-phase2,2020.2.10,MacIntel,60,,,,,left,1.433,2,0.093,left,0.251,0,0,0,0,1,,,,,,,,,,,,,,,,,
,,,,,,,,12,2021-05-04_15h34.29.044,premceCat2_ses-02_part-02_label-phase2,2020.2.10,MacIntel,60,,,,,,,,,,,,,,,,0,96,96,102,1,stimuli/objects/beachumbrella01.jpg,right,new,246,,,,,,,,
,,,,,,,,12,2021-05-04_15h34.29.044,premceCat2_ses-02_part-02_label-phase2,2020.2.10,MacIntel,60,,,,,left,5.738,4,0.032,left,0.022,0,0,0,0,1,,,,,,,,,,,,,,,,,
,,,,,,,,12,2021-05-04_15h34.29.044,premceCat2_ses-02_part-02_label-phase2,2020.2.10,MacIntel,60,,,,,,,,,,,,,,,,0,97,97,115,1,stimuli/objects/dishrack.jpg,left,old,259,,,,,,,,
,,,,,,,,12,2021-05-04_15h34.29.044,premceCat2_ses-02_part-02_label-phase2,2020.2.10,MacIntel,60,,,,,right,1.004,2,0.532,,,,,,,,0,98,98,26,1,stimuli/objects/flashlight02b.jpg,right,new,170,,,,,,,,
,,,,,,,,12,2021-05-04_15h34.29.044,premceCat2_ses-02_part-02_label-phase2,2020.2.10,MacIntel,60,,,,,left,0.686,4,0.107,left,0.082,0,0,0,0,1,,,,,,,,,,,,,,,,,
,,,,,,,,12,2021-05-04_15h34.29.044,premceCat2_ses-02_part-02_label-phase2,2020.2.10,MacIntel,60,,,,,,,,,,,,,,,,0,99,99,58,1,stimuli/objects/ellipticalmachine.jpg,left,old,202,,,,,,,,
,,,,,,,,12,2021-05-04_15h34.29.044,premceCat2_ses-02_part-02_label-phase2,2020.2.10,MacIntel,60,,,,,right,1.132,2,0.326,,,,,,,,0,100,100,49,1,stimuli/objects/cakeplatter.jpg,right,new,193,,,,,,,,
,,,,,,,,12,2021-05-04_15h34.29.044,premceCat2_ses-02_part-02_label-phase2,2020.2.10,MacIntel,60,,,,,left,4.241,1,0.26,right,0.233,0,0,0,0,1,,,,,,,,,,,,,,,,,
,,,,,,,,12,2021-05-04_15h34.29.044,premceCat2_ses-02_part-02_label-phase2,2020.2.10,MacIntel,60,,,,,,,,,,,,,,,,0,101,101,44,1,stimuli/objects/toaster01.jpg,right,new,188,,,,,,,,
,,,,,,,,12,2021-05-04_15h34.29.044,premceCat2_ses-02_part-02_label-phase2,2020.2.10,MacIntel,60,,,,,left,1.12,4,0.067,right,0.162,0,0,0,0,1,,,,,,,,,,,,,,,,,
,,,,,,,,12,2021-05-04_15h34.29.044,premceCat2_ses-02_part-02_label-phase2,2020.2.10,MacIntel,60,,,,,,,,,,,,,,,,0,102,102,72,1,stimuli/objects/wheel01.jpg,left,old,216,,,,,,,,
,,,,,,,,12,2021-05-04_15h34.29.044,premceCat2_ses-02_part-02_label-phase2,2020.2.10,MacIntel,60,,,,,left,1.215,2,0.024,right,0.359,0,0,0,0,1,,,,,,,,,,,,,,,,,
,,,,,,,,12,2021-05-04_15h34.29.044,premceCat2_ses-02_part-02_label-phase2,2020.2.10,MacIntel,60,,,,,,,,,,,,,,,,0,103,103,8,1,stimuli/objects/sledgehammer.jpg,left,old,152,,,,,,,,
,,,,,,,,12,2021-05-04_15h34.29.044,premceCat2_ses-02_part-02_label-phase2,2020.2.10,MacIntel,60,,,,,left,1.482,4,1.596,left,2.177,0,0,0,0,1,,,,,,,,,,,,,,,,,
,,,,,,,,12,2021-05-04_15h34.29.044,premceCat2_ses-02_part-02_label-phase2,2020.2.10,MacIntel,60,,,,,,,,,,,,,,,,0,104,104,1,1,stimuli/objects/expansioncard.jpg,left,old,145,,,,,,,,
,,,,,,,,12,2021-05-04_15h34.29.044,premceCat2_ses-02_part-02_label-phase2,2020.2.10,MacIntel,60,,,,,right,1.19,3,0.116,,,,,,,,0,105,105,135,1,stimuli/objects/mortarandpestle.jpg,right,new,279,,,,,,,,
,,,,,,,,12,2021-05-04_15h34.29.044,premceCat2_ses-02_part-02_label-phase2,2020.2.10,MacIntel,60,,,,,left,0.825,4,0.098,right,0.045,0,0,0,0,1,,,,,,,,,,,,,,,,,
,,,,,,,,12,2021-05-04_15h34.29.044,premceCat2_ses-02_part-02_label-phase2,2020.2.10,MacIntel,60,,,,,,,,,,,,,,,,0,106,106,142,1,stimuli/objects/needlenosepliers01.jpg,right,new,286,,,,,,,,
,,,,,,,,12,2021-05-04_15h34.29.044,premceCat2_ses-02_part-02_label-phase2,2020.2.10,MacIntel,60,,,,,left,0.838,3,0.253,left,0.802,0,0,0,0,1,,,,,,,,,,,,,,,,,
,,,,,,,,12,2021-05-04_15h34.29.044,premceCat2_ses-02_part-02_label-phase2,2020.2.10,MacIntel,60,,,,,,,,,,,,,,,,0,107,107,130,1,stimuli/objects/scanner.jpg,left,old,274,,,,,,,,
,,,,,,,,12,2021-05-04_15h34.29.044,premceCat2_ses-02_part-02_label-phase2,2020.2.10,MacIntel,60,,,,,right,2.584,3,1.292,,,,,,,,0,108,108,136,1,stimuli/objects/exercisebike.jpg,left,old,280,,,,,,,,
,,,,,,,,12,2021-05-04_15h34.29.044,premceCat2_ses-02_part-02_label-phase2,2020.2.10,MacIntel,60,,,,,left,0.82,4,0.127,right,0.317,0,0,0,0,1,,,,,,,,,,,,,,,,,
,,,,,,,,12,2021-05-04_15h34.29.044,premceCat2_ses-02_part-02_label-phase2,2020.2.10,MacIntel,60,,,,,,,,,,,,,,,,0,109,109,93,1,stimuli/objects/axe01.jpg,left,old,237,,,,,,,,
,,,,,,,,12,2021-05-04_15h34.29.044,premceCat2_ses-02_part-02_label-phase2,2020.2.10,MacIntel,60,,,,,left,1.327,4,0.542,right,0.417,0,0,0,0,1,,,,,,,,,,,,,,,,,
,,,,,,,,12,2021-05-04_15h34.29.044,premceCat2_ses-02_part-02_label-phase2,2020.2.10,MacIntel,60,,,,,,,,,,,,,,,,0,110,110,65,1,stimuli/objects/hoe.jpg,left,old,209,,,,,,,,
,,,,,,,,12,2021-05-04_15h34.29.044,premceCat2_ses-02_part-02_label-phase2,2020.2.10,MacIntel,60,,,,,right,0.89,2,0.312,,,,,,,,0,111,111,60,1,stimuli/objects/kite.jpg,right,new,204,,,,,,,,
,,,,,,,,12,2021-05-04_15h34.29.044,premceCat2_ses-02_part-02_label-phase2,2020.2.10,MacIntel,60,,,,,left,1.832,4,0.142,left,1.24,0,0,0,0,1,,,,,,,,,,,,,,,,,
,,,,,,,,12,2021-05-04_15h34.29.044,premceCat2_ses-02_part-02_label-phase2,2020.2.10,MacIntel,60,,,,,,,,,,,,,,,,0,112,112,117,1,stimuli/objects/iceskate.jpg,left,old,261,,,,,,,,
,,,,,,,,12,2021-05-04_15h34.29.044,premceCat2_ses-02_part-02_label-phase2,2020.2.10,MacIntel,60,,,,,right,1.658,3,0.35,,,,,,,,0,113,113,6,1,stimuli/objects/solderingwire.jpg,right,new,150,,,,,,,,
,,,,,,,,12,2021-05-04_15h34.29.044,premceCat2_ses-02_part-02_label-phase2,2020.2.10,MacIntel,60,,,,,right,2.986,4,0.31,,,,,,,,0,114,114,42,1,stimuli/objects/tennisracket.jpg,right,new,186,,,,,,,,
,,,,,,,,12,2021-05-04_15h34.29.044,premceCat2_ses-02_part-02_label-phase2,2020.2.10,MacIntel,60,,,,,right,2.019,1,0.001,,,,,,,,0,115,115,118,1,stimuli/objects/pressurewasher.jpg,left,old,262,,,,,,,,
,,,,,,,,12,2021-05-04_15h34.29.044,premceCat2_ses-02_part-02_label-phase2,2020.2.10,MacIntel,60,,,,,left,0.785,4,0.075,left,0.318,0,0,0,0,1,,,,,,,,,,,,,,,,,
,,,,,,,,12,2021-05-04_15h34.29.044,premceCat2_ses-02_part-02_label-phase2,2020.2.10,MacIntel,60,,,,,,,,,,,,,,,,0,116,116,10,1,stimuli/objects/downhillski.jpg,left,old,154,,,,,,,,
,,,,,,,,12,2021-05-04_15h34.29.044,premceCat2_ses-02_part-02_label-phase2,2020.2.10,MacIntel,60,,,,,right,2.732,2,0.083,,,,,,,,0,117,117,131,1,stimuli/objects/handblender.jpg,right,new,275,,,,,,,,
,,,,,,,,12,2021-05-04_15h34.29.044,premceCat2_ses-02_part-02_label-phase2,2020.2.10,MacIntel,60,,,,,right,1.216,4,0.11,,,,,,,,0,118,118,48,1,stimuli/objects/eggslicer.jpg,right,new,192,,,,,,,,
,,,,,,,,12,2021-05-04_15h34.29.044,premceCat2_ses-02_part-02_label-phase2,2020.2.10,MacIntel,60,,,,,left,1.112,4,0.066,left,0.178,0,0,0,0,1,,,,,,,,,,,,,,,,,
,,,,,,,,12,2021-05-04_15h34.29.044,premceCat2_ses-02_part-02_label-phase2,2020.2.10,MacIntel,60,,,,,,,,,,,,,,,,0,119,119,20,1,stimuli/objects/fishinghook03.jpg,left,old,164,,,,,,,,
,,,,,,,,12,2021-05-04_15h34.29.044,premceCat2_ses-02_part-02_label-phase2,2020.2.10,MacIntel,60,,,,,right,1.083,3,0.066,,,,,,,,0,120,120,19,1,stimuli/objects/mug01.jpg,right,new,163,,,,,,,,
,,,,,,,,12,2021-05-04_15h34.29.044,premceCat2_ses-02_part-02_label-phase2,2020.2.10,MacIntel,60,,,,,left,0.809,4,0.042,right,0.061,0,0,0,0,1,,,,,,,,,,,,,,,,,
,,,,,,,,12,2021-05-04_15h34.29.044,premceCat2_ses-02_part-02_label-phase2,2020.2.10,MacIntel,60,,,,,,,,,,,,,,,,0,121,121,70,1,stimuli/objects/shovel01.jpg,right,new,214,,,,,,,,
,,,,,,,,12,2021-05-04_15h34.29.044,premceCat2_ses-02_part-02_label-phase2,2020.2.10,MacIntel,60,,,,,left,0.905,4,0.093,right,0.126,0,0,0,0,1,,,,,,,,,,,,,,,,,
,,,,,,,,12,2021-05-04_15h34.29.044,premceCat2_ses-02_part-02_label-phase2,2020.2.10,MacIntel,60,,,,,,,,,,,,,,,,0,122,122,53,1,stimuli/objects/chainsaw.jpg,left,old,197,,,,,,,,
,,,,,,,,12,2021-05-04_15h34.29.044,premceCat2_ses-02_part-02_label-phase2,2020.2.10,MacIntel,60,,,,,left,0.974,4,0.042,left,0.052,0,0,0,0,1,,,,,,,,,,,,,,,,,
,,,,,,,,12,2021-05-04_15h34.29.044,premceCat2_ses-02_part-02_label-phase2,2020.2.10,MacIntel,60,,,,,,,,,,,,,,,,0,123,123,110,1,stimuli/objects/bikewheel.jpg,left,old,254,,,,,,,,
,,,,,,,,12,2021-05-04_15h34.29.044,premceCat2_ses-02_part-02_label-phase2,2020.2.10,MacIntel,60,,,,,left,1.522,4,0.124,right,4.897,0,0,0,0,1,,,,,,,,,,,,,,,,,
,,,,,,,,12,2021-05-04_15h34.29.044,premceCat2_ses-02_part-02_label-phase2,2020.2.10,MacIntel,60,,,,,,,,,,,,,,,,0,124,124,125,1,stimuli/objects/saw02b.jpg,left,old,269,,,,,,,,
,,,,,,,,12,2021-05-04_15h34.29.044,premceCat2_ses-02_part-02_label-phase2,2020.2.10,MacIntel,60,,,,,left,0.817,4,0.022,left,0,0,0,0,0,1,,,,,,,,,,,,,,,,,
,,,,,,,,12,2021-05-04_15h34.29.044,premceCat2_ses-02_part-02_label-phase2,2020.2.10,MacIntel,60,,,,,,,,,,,,,,,,0,125,125,7,1,stimuli/objects/handmixer01d.jpg,left,old,151,,,,,,,,
,,,,,,,,12,2021-05-04_15h34.29.044,premceCat2_ses-02_part-02_label-phase2,2020.2.10,MacIntel,60,,,,,left,0.799,4,0.801,left,0.077,0,0,0,0,1,,,,,,,,,,,,,,,,,
,,,,,,,,12,2021-05-04_15h34.29.044,premceCat2_ses-02_part-02_label-phase2,2020.2.10,MacIntel,60,,,,,,,,,,,,,,,,0,126,126,84,1,stimuli/objects/sportbag.jpg,left,old,228,,,,,,,,
,,,,,,,,12,2021-05-04_15h34.29.044,premceCat2_ses-02_part-02_label-phase2,2020.2.10,MacIntel,60,,,,,left,1.068,4,0.109,left,0.153,0,0,0,0,1,,,,,,,,,,,,,,,,,
,,,,,,,,12,2021-05-04_15h34.29.044,premceCat2_ses-02_part-02_label-phase2,2020.2.10,MacIntel,60,,,,,,,,,,,,,,,,0,127,127,85,1,stimuli/objects/fan.jpg,left,old,229,,,,,,,,
,,,,,,,,12,2021-05-04_15h34.29.044,premceCat2_ses-02_part-02_label-phase2,2020.2.10,MacIntel,60,,,,,left,1.4,3,0.341,left,0.059,0,0,0,0,1,,,,,,,,,,,,,,,,,
,,,,,,,,12,2021-05-04_15h34.29.044,premceCat2_ses-02_part-02_label-phase2,2020.2.10,MacIntel,60,,,,,,,,,,,,,,,,0,128,128,4,1,stimuli/objects/cassettetape01a.jpg,right,new,148,,,,,,,,
,,,,,,,,12,2021-05-04_15h34.29.044,premceCat2_ses-02_part-02_label-phase2,2020.2.10,MacIntel,60,,,,,left,0.889,4,0.117,right,0.282,0,0,0,0,1,,,,,,,,,,,,,,,,,
,,,,,,,,12,2021-05-04_15h34.29.044,premceCat2_ses-02_part-02_label-phase2,2020.2.10,MacIntel,60,,,,,,,,,,,,,,,,0,129,129,3,1,stimuli/objects/boxingglove01.jpg,right,new,147,,,,,,,,
,,,,,,,,12,2021-05-04_15h34.29.044,premceCat2_ses-02_part-02_label-phase2,2020.2.10,MacIntel,60,,,,,left,0.962,4,0.04,left,0.562,0,0,0,0,1,,,,,,,,,,,,,,,,,
,,,,,,,,12,2021-05-04_15h34.29.044,premceCat2_ses-02_part-02_label-phase2,2020.2.10,MacIntel,60,,,,,,,,,,,,,,,,0,130,130,71,1,stimuli/objects/anchor.jpg,left,old,215,,,,,,,,
,,,,,,,,12,2021-05-04_15h34.29.044,premceCat2_ses-02_part-02_label-phase2,2020.2.10,MacIntel,60,,,,,right,1.067,4,0.015,,,,,,,,0,131,131,82,1,stimuli/objects/shopvac.jpg,right,new,226,,,,,,,,
,,,,,,,,12,2021-05-04_15h34.29.044,premceCat2_ses-02_part-02_label-phase2,2020.2.10,MacIntel,60,,,,,left,1.067,3,0.041,right,0.279,0,0,0,0,1,,,,,,,,,,,,,,,,,
,,,,,,,,12,2021-05-04_15h34.29.044,premceCat2_ses-02_part-02_label-phase2,2020.2.10,MacIntel,60,,,,,,,,,,,,,,,,0,132,132,108,1,stimuli/objects/slidetray.jpg,left,old,252,,,,,,,,
,,,,,,,,12,2021-05-04_15h34.29.044,premceCat2_ses-02_part-02_label-phase2,2020.2.10,MacIntel,60,,,,,left,0.792,3,0.069,left,0.458,0,0,0,0,1,,,,,,,,,,,,,,,,,
,,,,,,,,12,2021-05-04_15h34.29.044,premceCat2_ses-02_part-02_label-phase2,2020.2.10,MacIntel,60,,,,,,,,,,,,,,,,0,133,133,56,1,stimuli/objects/hourglass.jpg,left,old,200,,,,,,,,
,,,,,,,,12,2021-05-04_15h34.29.044,premceCat2_ses-02_part-02_label-phase2,2020.2.10,MacIntel,60,,,,,right,1.052,4,0.225,,,,,,,,0,134,134,16,1,stimuli/objects/bottleopener01.jpg,right,new,160,,,,,,,,
,,,,,,,,12,2021-05-04_15h34.29.044,premceCat2_ses-02_part-02_label-phase2,2020.2.10,MacIntel,60,,,,,left,0.86,4,0.11,left,0.052,0,0,0,0,1,,,,,,,,,,,,,,,,,
,,,,,,,,12,2021-05-04_15h34.29.044,premceCat2_ses-02_part-02_label-phase2,2020.2.10,MacIntel,60,,,,,,,,,,,,,,,,0,135,135,25,1,stimuli/objects/gravyboat.jpg,left,old,169,,,,,,,,
,,,,,,,,12,2021-05-04_15h34.29.044,premceCat2_ses-02_part-02_label-phase2,2020.2.10,MacIntel,60,,,,,left,1.581,4,0,right,0.359,0,0,0,0,1,,,,,,,,,,,,,,,,,
,,,,,,,,12,2021-05-04_15h34.29.044,premceCat2_ses-02_part-02_label-phase2,2020.2.10,MacIntel,60,,,,,,,,,,,,,,,,0,136,136,77,1,stimuli/objects/thermos.jpg,left,old,221,,,,,,,,
,,,,,,,,12,2021-05-04_15h34.29.044,premceCat2_ses-02_part-02_label-phase2,2020.2.10,MacIntel,60,,,,,left,1.646,2,0.064,right,0.426,0,0,0,0,1,,,,,,,,,,,,,,,,,
,,,,,,,,12,2021-05-04_15h34.29.044,premceCat2_ses-02_part-02_label-phase2,2020.2.10,MacIntel,60,,,,,,,,,,,,,,,,0,137,137,30,1,stimuli/objects/halogenlightbulb.jpg,right,new,174,,,,,,,,
,,,,,,,,12,2021-05-04_15h34.29.044,premceCat2_ses-02_part-02_label-phase2,2020.2.10,MacIntel,60,,,,,left,0.855,3,0.161,right,0.282,0,0,0,0,1,,,,,,,,,,,,,,,,,
,,,,,,,,12,2021-05-04_15h34.29.044,premceCat2_ses-02_part-02_label-phase2,2020.2.10,MacIntel,60,,,,,,,,,,,,,,,,0,138,138,106,1,stimuli/objects/usbcable01a.jpg,left,old,250,,,,,,,,
,,,,,,,,12,2021-05-04_15h34.29.044,premceCat2_ses-02_part-02_label-phase2,2020.2.10,MacIntel,60,,,,,right,1.081,2,0.102,,,,,,,,0,139,139,90,1,stimuli/objects/patioumbrella.jpg,left,old,234,,,,,,,,
,,,,,,,,12,2021-05-04_15h34.29.044,premceCat2_ses-02_part-02_label-phase2,2020.2.10,MacIntel,60,,,,,left,1.114,3,0.373,left,0.107,0,0,0,0,1,,,,,,,,,,,,,,,,,
,,,,,,,,12,2021-05-04_15h34.29.044,premceCat2_ses-02_part-02_label-phase2,2020.2.10,MacIntel,60,,,,,,,,,,,,,,,,0,140,140,31,1,stimuli/objects/outdoorheater.jpg,left,old,175,,,,,,,,
,,,,,,,,12,2021-05-04_15h34.29.044,premceCat2_ses-02_part-02_label-phase2,2020.2.10,MacIntel,60,,,,,left,0.767,4,0.02,right,0.098,0,0,0,0,1,,,,,,,,,,,,,,,,,
,,,,,,,,12,2021-05-04_15h34.29.044,premceCat2_ses-02_part-02_label-phase2,2020.2.10,MacIntel,60,,,,,,,,,,,,,,,,0,141,141,75,1,stimuli/objects/ladder.jpg,left,old,219,,,,,,,,
,,,,,,,,12,2021-05-04_15h34.29.044,premceCat2_ses-02_part-02_label-phase2,2020.2.10,MacIntel,60,,,,,right,1.099,2,0.111,,,,,,,,0,142,142,127,1,stimuli/objects/skigoggles01.jpg,right,new,271,,,,,,,,
,,,,,,,,12,2021-05-04_15h34.29.044,premceCat2_ses-02_part-02_label-phase2,2020.2.10,MacIntel,60,,,,,,,,,,,,,,,,,,,,,,,,,space,9.937,0,1,1,1,1,condition_files/ImagesforRecog1_2.csv
