instructions_loop.thisRepN,instructions_loop.thisTrialN,instructions_loop.thisN,instructions_loop.thisIndex,instructions_loop.ran,text1,text2,text3,participant,date,expName,psychopyVersion,OS,frameRate,key_resp_2.keys,key_resp_2.rt,key_resp_3.keys,key_resp_3.rt,recog_resp.keys,recog_resp.rt,conf_resp.keys,conf_resp.rt,resp_assoc.keys,resp_assoc.rt,assoc_loop.thisRepN,assoc_loop.thisTrialN,assoc_loop.thisN,assoc_loop.thisIndex,assoc_loop.ran,recog_loop.thisRepN,recog_loop.thisTrialN,recog_loop.thisN,recog_loop.thisIndex,recog_loop.ran,images,corr_ans,type,order,key_resp_break.keys,key_resp_break.rt,list_loop.thisRepN,list_loop.thisTrialN,list_loop.thisN,list_loop.thisIndex,list_loop.ran,recog_list
0,0,0,0,1,Welcome to the last phase of this experiment!,.,Please press the space bar to continue,13,2021-05-04_10h34.56.135,premceCat2_ses-02_part-02_label-phase2,2020.2.10,Win32,60,,,,,,,,,,,,,,,,,,,,,,,,,,,,,,,,
0,1,1,1,1,.,"In this phase, you will see some objects. 

For each object, you should indicate whether you have seen it before during the experiment.

Press LEFT ARROW for YES
Press RIGHT ARROW for NO

",Please press the space bar to continue ,13,2021-05-04_10h34.56.135,premceCat2_ses-02_part-02_label-phase2,2020.2.10,Win32,60,,,,,,,,,,,,,,,,,,,,,,,,,,,,,,,,
0,2,2,2,1,.,"After that, you will be asked how confident you are of your choice.

Please rate the confidence in your choice with the numbers from 1 to 4 of your keyboard. 

The numbers correspond to:

1 = Very unsure
2 = Unsure
3 = Sure
4 = Very Sure",Please press the space bar to continue,13,2021-05-04_10h34.56.135,premceCat2_ses-02_part-02_label-phase2,2020.2.10,Win32,60,,,,,,,,,,,,,,,,,,,,,,,,,,,,,,,,
,,,,,,,,13,2021-05-04_10h34.56.135,premceCat2_ses-02_part-02_label-phase2,2020.2.10,Win32,60,space,21.155335,space,27.22493,left,1.301315,4,4.14052,left,5.426765,0,0,0,0,1,,,,,,,,,,,,,,,,,
,,,,,,,,13,2021-05-04_10h34.56.135,premceCat2_ses-02_part-02_label-phase2,2020.2.10,Win32,60,,,,,,,,,,,,,,,,0,0,0,67,1,stimuli/objects/fishingrod.jpg,left,old,68,,,,,,,,
,,,,,,,,13,2021-05-04_10h34.56.135,premceCat2_ses-02_part-02_label-phase2,2020.2.10,Win32,60,,,,,right,7.02533,2,3.970345,,,,,,,,0,1,1,30,1,stimuli/objects/printer02.jpg,right,new,31,,,,,,,,
,,,,,,,,13,2021-05-04_10h34.56.135,premceCat2_ses-02_part-02_label-phase2,2020.2.10,Win32,60,,,,,right,2.454195,3,1.800315,,,,,,,,0,2,2,22,1,stimuli/objects/umbrella04.jpg,right,new,23,,,,,,,,
,,,,,,,,13,2021-05-04_10h34.56.135,premceCat2_ses-02_part-02_label-phase2,2020.2.10,Win32,60,,,,,left,1.26796,4,2.842175,right,2.40578,0,0,0,0,1,,,,,,,,,,,,,,,,,
,,,,,,,,13,2021-05-04_10h34.56.135,premceCat2_ses-02_part-02_label-phase2,2020.2.10,Win32,60,,,,,,,,,,,,,,,,0,3,3,48,1,stimuli/objects/bottlecap.jpg,left,old,49,,,,,,,,
,,,,,,,,13,2021-05-04_10h34.56.135,premceCat2_ses-02_part-02_label-phase2,2020.2.10,Win32,60,,,,,right,1.51988,3,4.344345,,,,,,,,0,4,4,4,1,stimuli/objects/microphone01.jpg,right,new,5,,,,,,,,
,,,,,,,,13,2021-05-04_10h34.56.135,premceCat2_ses-02_part-02_label-phase2,2020.2.10,Win32,60,,,,,left,2.17355,4,3.639835,right,1.767865,0,0,0,0,1,,,,,,,,,,,,,,,,,
,,,,,,,,13,2021-05-04_10h34.56.135,premceCat2_ses-02_part-02_label-phase2,2020.2.10,Win32,60,,,,,,,,,,,,,,,,0,5,5,36,1,stimuli/objects/slidetray.jpg,left,old,37,,,,,,,,
,,,,,,,,13,2021-05-04_10h34.56.135,premceCat2_ses-02_part-02_label-phase2,2020.2.10,Win32,60,,,,,left,2.62437,4,3.176435,left,1.352015,0,0,0,0,1,,,,,,,,,,,,,,,,,
,,,,,,,,13,2021-05-04_10h34.56.135,premceCat2_ses-02_part-02_label-phase2,2020.2.10,Win32,60,,,,,,,,,,,,,,,,0,6,6,49,1,stimuli/objects/exercisebike.jpg,left,old,50,,,,,,,,
,,,,,,,,13,2021-05-04_10h34.56.135,premceCat2_ses-02_part-02_label-phase2,2020.2.10,Win32,60,,,,,left,2.24345,2,2.120365,right,1.970275,0,0,0,0,1,,,,,,,,,,,,,,,,,
,,,,,,,,13,2021-05-04_10h34.56.135,premceCat2_ses-02_part-02_label-phase2,2020.2.10,Win32,60,,,,,,,,,,,,,,,,0,7,7,14,1,stimuli/objects/puttyknife.jpg,left,old,15,,,,,,,,
,,,,,,,,13,2021-05-04_10h34.56.135,premceCat2_ses-02_part-02_label-phase2,2020.2.10,Win32,60,,,,,left,2.751785,3,2.99399,right,2.92373,0,0,0,0,1,,,,,,,,,,,,,,,,,
,,,,,,,,13,2021-05-04_10h34.56.135,premceCat2_ses-02_part-02_label-phase2,2020.2.10,Win32,60,,,,,,,,,,,,,,,,0,8,8,66,1,stimuli/objects/nailgun.jpg,right,new,67,,,,,,,,
,,,,,,,,13,2021-05-04_10h34.56.135,premceCat2_ses-02_part-02_label-phase2,2020.2.10,Win32,60,,,,,right,5.33868,1,1.289865,,,,,,,,0,9,9,63,1,stimuli/objects/butterdish.jpg,right,new,64,,,,,,,,
,,,,,,,,13,2021-05-04_10h34.56.135,premceCat2_ses-02_part-02_label-phase2,2020.2.10,Win32,60,,,,,right,3.62971,1,2.85107,,,,,,,,0,10,10,108,1,stimuli/objects/metalscissors.jpg,right,new,109,,,,,,,,
,,,,,,,,13,2021-05-04_10h34.56.135,premceCat2_ses-02_part-02_label-phase2,2020.2.10,Win32,60,,,,,right,2.1579,2,2.72272,,,,,,,,0,11,11,9,1,stimuli/objects/measuringtape01.jpg,right,new,10,,,,,,,,
,,,,,,,,13,2021-05-04_10h34.56.135,premceCat2_ses-02_part-02_label-phase2,2020.2.10,Win32,60,,,,,left,1.27212,3,3.245775,left,6.78878,0,0,0,0,1,,,,,,,,,,,,,,,,,
,,,,,,,,13,2021-05-04_10h34.56.135,premceCat2_ses-02_part-02_label-phase2,2020.2.10,Win32,60,,,,,,,,,,,,,,,,0,12,12,0,1,stimuli/objects/electricoutlet.jpg,left,old,1,,,,,,,,
,,,,,,,,13,2021-05-04_10h34.56.135,premceCat2_ses-02_part-02_label-phase2,2020.2.10,Win32,60,,,,,left,10.07121,2,1.567835,right,4.00309,0,0,0,0,1,,,,,,,,,,,,,,,,,
,,,,,,,,13,2021-05-04_10h34.56.135,premceCat2_ses-02_part-02_label-phase2,2020.2.10,Win32,60,,,,,,,,,,,,,,,,0,13,13,65,1,stimuli/objects/drill01b.jpg,left,old,66,,,,,,,,
,,,,,,,,13,2021-05-04_10h34.56.135,premceCat2_ses-02_part-02_label-phase2,2020.2.10,Win32,60,,,,,left,2.53693,3,1.497295,right,1.136255,0,0,0,0,1,,,,,,,,,,,,,,,,,
,,,,,,,,13,2021-05-04_10h34.56.135,premceCat2_ses-02_part-02_label-phase2,2020.2.10,Win32,60,,,,,,,,,,,,,,,,0,14,14,103,1,stimuli/objects/cork02.jpg,left,old,104,,,,,,,,
,,,,,,,,13,2021-05-04_10h34.56.135,premceCat2_ses-02_part-02_label-phase2,2020.2.10,Win32,60,,,,,right,3.27179,4,2.20474,,,,,,,,0,15,15,25,1,stimuli/objects/bowlingball.jpg,right,new,26,,,,,,,,
,,,,,,,,13,2021-05-04_10h34.56.135,premceCat2_ses-02_part-02_label-phase2,2020.2.10,Win32,60,,,,,left,1.315235,4,0.92688,left,0.98964,0,0,0,0,1,,,,,,,,,,,,,,,,,
,,,,,,,,13,2021-05-04_10h34.56.135,premceCat2_ses-02_part-02_label-phase2,2020.2.10,Win32,60,,,,,,,,,,,,,,,,0,16,16,98,1,stimuli/objects/baseball01a.jpg,left,old,99,,,,,,,,
,,,,,,,,13,2021-05-04_10h34.56.135,premceCat2_ses-02_part-02_label-phase2,2020.2.10,Win32,60,,,,,right,2.675515,4,4.07149,,,,,,,,0,17,17,109,1,stimuli/objects/winerack.jpg,right,new,110,,,,,,,,
,,,,,,,,13,2021-05-04_10h34.56.135,premceCat2_ses-02_part-02_label-phase2,2020.2.10,Win32,60,,,,,right,8.44282,2,5.752865,,,,,,,,0,18,18,141,1,stimuli/objects/generator.jpg,right,new,142,,,,,,,,
,,,,,,,,13,2021-05-04_10h34.56.135,premceCat2_ses-02_part-02_label-phase2,2020.2.10,Win32,60,,,,,left,1.86679,2,1.659215,right,1.315735,0,0,0,0,1,,,,,,,,,,,,,,,,,
,,,,,,,,13,2021-05-04_10h34.56.135,premceCat2_ses-02_part-02_label-phase2,2020.2.10,Win32,60,,,,,,,,,,,,,,,,0,19,19,119,1,stimuli/objects/tongs01b.jpg,right,new,120,,,,,,,,
,,,,,,,,13,2021-05-04_10h34.56.135,premceCat2_ses-02_part-02_label-phase2,2020.2.10,Win32,60,,,,,left,6.01482,4,2.03367,left,1.12304,0,0,0,0,1,,,,,,,,,,,,,,,,,
,,,,,,,,13,2021-05-04_10h34.56.135,premceCat2_ses-02_part-02_label-phase2,2020.2.10,Win32,60,,,,,,,,,,,,,,,,0,20,20,74,1,stimuli/objects/snowboard.jpg,left,old,75,,,,,,,,
,,,,,,,,13,2021-05-04_10h34.56.135,premceCat2_ses-02_part-02_label-phase2,2020.2.10,Win32,60,,,,,right,1.65099,3,3.205535,,,,,,,,0,21,21,59,1,stimuli/objects/studiolight.jpg,right,new,60,,,,,,,,
,,,,,,,,13,2021-05-04_10h34.56.135,premceCat2_ses-02_part-02_label-phase2,2020.2.10,Win32,60,,,,,right,7.209665,1,1.639385,,,,,,,,0,22,22,123,1,stimuli/objects/thermos.jpg,left,old,124,,,,,,,,
,,,,,,,,13,2021-05-04_10h34.56.135,premceCat2_ses-02_part-02_label-phase2,2020.2.10,Win32,60,,,,,right,1.44737,2,2.889055,,,,,,,,0,23,23,12,1,stimuli/objects/garlicpress02a.jpg,right,new,13,,,,,,,,
,,,,,,,,13,2021-05-04_10h34.56.135,premceCat2_ses-02_part-02_label-phase2,2020.2.10,Win32,60,,,,,right,2.803325,3,1.542705,,,,,,,,0,24,24,93,1,stimuli/objects/icepack.jpg,right,new,94,,,,,,,,
,,,,,,,,13,2021-05-04_10h34.56.135,premceCat2_ses-02_part-02_label-phase2,2020.2.10,Win32,60,,,,,left,1.10217,4,1.036415,left,0.7481,0,0,0,0,1,,,,,,,,,,,,,,,,,
,,,,,,,,13,2021-05-04_10h34.56.135,premceCat2_ses-02_part-02_label-phase2,2020.2.10,Win32,60,,,,,,,,,,,,,,,,0,25,25,102,1,stimuli/objects/backpack01a.jpg,left,old,103,,,,,,,,
,,,,,,,,13,2021-05-04_10h34.56.135,premceCat2_ses-02_part-02_label-phase2,2020.2.10,Win32,60,,,,,right,1.685815,4,1.511925,,,,,,,,0,26,26,139,1,stimuli/objects/frisbee.jpg,right,new,140,,,,,,,,
,,,,,,,,13,2021-05-04_10h34.56.135,premceCat2_ses-02_part-02_label-phase2,2020.2.10,Win32,60,,,,,right,1.18413,4,4.68126,,,,,,,,0,27,27,43,1,stimuli/objects/punchingball.jpg,right,new,44,,,,,,,,
,,,,,,,,13,2021-05-04_10h34.56.135,premceCat2_ses-02_part-02_label-phase2,2020.2.10,Win32,60,,,,,right,1.83602,3,4.077,,,,,,,,0,28,28,117,1,stimuli/objects/videotape01b.jpg,right,new,118,,,,,,,,
,,,,,,,,13,2021-05-04_10h34.56.135,premceCat2_ses-02_part-02_label-phase2,2020.2.10,Win32,60,,,,,right,3.45664,2,1.82885,,,,,,,,0,29,29,125,1,stimuli/objects/shoulderpad.jpg,right,new,126,,,,,,,,
,,,,,,,,13,2021-05-04_10h34.56.135,premceCat2_ses-02_part-02_label-phase2,2020.2.10,Win32,60,,,,,left,1.402375,4,1.704785,right,2.78705,0,0,0,0,1,,,,,,,,,,,,,,,,,
,,,,,,,,13,2021-05-04_10h34.56.135,premceCat2_ses-02_part-02_label-phase2,2020.2.10,Win32,60,,,,,,,,,,,,,,,,0,30,30,7,1,stimuli/objects/painttray.jpg,left,old,8,,,,,,,,
,,,,,,,,13,2021-05-04_10h34.56.135,premceCat2_ses-02_part-02_label-phase2,2020.2.10,Win32,60,,,,,right,1.3649,2,1.881565,,,,,,,,0,31,31,87,1,stimuli/objects/fanblades.jpg,left,old,88,,,,,,,,
,,,,,,,,13,2021-05-04_10h34.56.135,premceCat2_ses-02_part-02_label-phase2,2020.2.10,Win32,60,,,,,left,1.271855,4,1.588355,right,1.96526,0,0,0,0,1,,,,,,,,,,,,,,,,,
,,,,,,,,13,2021-05-04_10h34.56.135,premceCat2_ses-02_part-02_label-phase2,2020.2.10,Win32,60,,,,,,,,,,,,,,,,0,32,32,2,1,stimuli/objects/ipod.jpg,left,old,3,,,,,,,,
,,,,,,,,13,2021-05-04_10h34.56.135,premceCat2_ses-02_part-02_label-phase2,2020.2.10,Win32,60,,,,,right,5.0037,1,1.08325,,,,,,,,0,33,33,140,1,stimuli/objects/canoepaddle02.jpg,left,old,141,,,,,,,,
,,,,,,,,13,2021-05-04_10h34.56.135,premceCat2_ses-02_part-02_label-phase2,2020.2.10,Win32,60,,,,,right,1.765885,2,1.508565,,,,,,,,0,34,34,110,1,stimuli/objects/lock03a.jpg,right,new,111,,,,,,,,
,,,,,,,,13,2021-05-04_10h34.56.135,premceCat2_ses-02_part-02_label-phase2,2020.2.10,Win32,60,,,,,left,1.081035,3,1.28699,right,1.39961,0,0,0,0,1,,,,,,,,,,,,,,,,,
,,,,,,,,13,2021-05-04_10h34.56.135,premceCat2_ses-02_part-02_label-phase2,2020.2.10,Win32,60,,,,,,,,,,,,,,,,0,35,35,11,1,stimuli/objects/videocamera01a.jpg,left,old,12,,,,,,,,
,,,,,,,,13,2021-05-04_10h34.56.135,premceCat2_ses-02_part-02_label-phase2,2020.2.10,Win32,60,,,,,right,5.21637,2,1.32426,,,,,,,,0,36,36,69,1,stimuli/objects/filmnegative.jpg,left,old,70,,,,,,,,
,,,,,,,,13,2021-05-04_10h34.56.135,premceCat2_ses-02_part-02_label-phase2,2020.2.10,Win32,60,,,,,left,4.19326,3,2.304405,right,3.455755,0,0,0,0,1,,,,,,,,,,,,,,,,,
,,,,,,,,13,2021-05-04_10h34.56.135,premceCat2_ses-02_part-02_label-phase2,2020.2.10,Win32,60,,,,,,,,,,,,,,,,0,37,37,105,1,stimuli/objects/lightbulb01.jpg,left,old,106,,,,,,,,
,,,,,,,,13,2021-05-04_10h34.56.135,premceCat2_ses-02_part-02_label-phase2,2020.2.10,Win32,60,,,,,left,1.39641,2,1.69148,right,1.260025,0,0,0,0,1,,,,,,,,,,,,,,,,,
,,,,,,,,13,2021-05-04_10h34.56.135,premceCat2_ses-02_part-02_label-phase2,2020.2.10,Win32,60,,,,,,,,,,,,,,,,0,38,38,21,1,stimuli/objects/paintbrush01.jpg,right,new,22,,,,,,,,
,,,,,,,,13,2021-05-04_10h34.56.135,premceCat2_ses-02_part-02_label-phase2,2020.2.10,Win32,60,,,,,right,1.75306,4,1.08911,,,,,,,,0,39,39,73,1,stimuli/objects/clock01a.jpg,right,new,74,,,,,,,,
,,,,,,,,13,2021-05-04_10h34.56.135,premceCat2_ses-02_part-02_label-phase2,2020.2.10,Win32,60,,,,,left,2.782225,4,1.322765,right,1.488025,0,0,0,0,1,,,,,,,,,,,,,,,,,
,,,,,,,,13,2021-05-04_10h34.56.135,premceCat2_ses-02_part-02_label-phase2,2020.2.10,Win32,60,,,,,,,,,,,,,,,,0,40,40,127,1,stimuli/objects/reflector.jpg,left,old,128,,,,,,,,
,,,,,,,,13,2021-05-04_10h34.56.135,premceCat2_ses-02_part-02_label-phase2,2020.2.10,Win32,60,,,,,right,2.87179,3,3.231765,,,,,,,,0,41,41,68,1,stimuli/objects/leafblower01.jpg,right,new,69,,,,,,,,
,,,,,,,,13,2021-05-04_10h34.56.135,premceCat2_ses-02_part-02_label-phase2,2020.2.10,Win32,60,,,,,right,7.9019,2,1.57131,,,,,,,,0,42,42,37,1,stimuli/objects/pressurewasher.jpg,left,old,38,,,,,,,,
,,,,,,,,13,2021-05-04_10h34.56.135,premceCat2_ses-02_part-02_label-phase2,2020.2.10,Win32,60,,,,,right,1.859205,2,3.20725,,,,,,,,0,43,43,1,1,stimuli/objects/ipad02.jpg,left,old,2,,,,,,,,
,,,,,,,,13,2021-05-04_10h34.56.135,premceCat2_ses-02_part-02_label-phase2,2020.2.10,Win32,60,,,,,right,2.228545,4,1.026035,,,,,,,,0,44,44,80,1,stimuli/objects/snowman.jpg,right,new,81,,,,,,,,
,,,,,,,,13,2021-05-04_10h34.56.135,premceCat2_ses-02_part-02_label-phase2,2020.2.10,Win32,60,,,,,right,1.49981,3,3.70446,,,,,,,,0,45,45,81,1,stimuli/objects/avcable.jpg,right,new,82,,,,,,,,
,,,,,,,,13,2021-05-04_10h34.56.135,premceCat2_ses-02_part-02_label-phase2,2020.2.10,Win32,60,,,,,left,1.31507,4,0.92507,left,3.06916,0,0,0,0,1,,,,,,,,,,,,,,,,,
,,,,,,,,13,2021-05-04_10h34.56.135,premceCat2_ses-02_part-02_label-phase2,2020.2.10,Win32,60,,,,,,,,,,,,,,,,0,46,46,104,1,stimuli/objects/lectern01.jpg,left,old,105,,,,,,,,
,,,,,,,,13,2021-05-04_10h34.56.135,premceCat2_ses-02_part-02_label-phase2,2020.2.10,Win32,60,,,,,left,2.30348,1,1.33512,right,1.92128,0,0,0,0,1,,,,,,,,,,,,,,,,,
,,,,,,,,13,2021-05-04_10h34.56.135,premceCat2_ses-02_part-02_label-phase2,2020.2.10,Win32,60,,,,,,,,,,,,,,,,0,47,47,107,1,stimuli/objects/aluminiumfoil.jpg,left,old,108,,,,,,,,
,,,,,,,,13,2021-05-04_10h34.56.135,premceCat2_ses-02_part-02_label-phase2,2020.2.10,Win32,60,,,,,left,1.482515,4,1.400365,left,0.339685,0,0,0,0,1,,,,,,,,,,,,,,,,,
,,,,,,,,13,2021-05-04_10h34.56.135,premceCat2_ses-02_part-02_label-phase2,2020.2.10,Win32,60,,,,,,,,,,,,,,,,0,48,48,137,1,stimuli/objects/surfboard.jpg,left,old,138,,,,,,,,
,,,,,,,,13,2021-05-04_10h34.56.135,premceCat2_ses-02_part-02_label-phase2,2020.2.10,Win32,60,,,,,right,1.602945,3,1.42332,,,,,,,,0,49,49,83,1,stimuli/objects/kitchenscale01a.jpg,right,new,84,,,,,,,,
,,,,,,,,13,2021-05-04_10h34.56.135,premceCat2_ses-02_part-02_label-phase2,2020.2.10,Win32,60,,,,,right,1.063865,3,0.720625,,,,,,,,0,50,50,60,1,stimuli/objects/glass02a.jpg,right,new,61,,,,,,,,
,,,,,,,,13,2021-05-04_10h34.56.135,premceCat2_ses-02_part-02_label-phase2,2020.2.10,Win32,60,,,,,right,1.024125,1,1.861835,,,,,,,,0,51,51,13,1,stimuli/objects/bastingbrush.jpg,right,new,14,,,,,,,,
,,,,,,,,13,2021-05-04_10h34.56.135,premceCat2_ses-02_part-02_label-phase2,2020.2.10,Win32,60,,,,,right,2.97814,2,1.275965,,,,,,,,0,52,52,78,1,stimuli/objects/butterknife.jpg,left,old,79,,,,,,,,
,,,,,,,,13,2021-05-04_10h34.56.135,premceCat2_ses-02_part-02_label-phase2,2020.2.10,Win32,60,,,,,right,1.136095,4,1.543645,,,,,,,,0,53,53,8,1,stimuli/objects/basketballhoop01.jpg,right,new,9,,,,,,,,
,,,,,,,,13,2021-05-04_10h34.56.135,premceCat2_ses-02_part-02_label-phase2,2020.2.10,Win32,60,,,,,right,1.281935,2,4.02048,,,,,,,,0,54,54,138,1,stimuli/objects/taperecorder.jpg,right,new,139,,,,,,,,
,,,,,,,,13,2021-05-04_10h34.56.135,premceCat2_ses-02_part-02_label-phase2,2020.2.10,Win32,60,,,,,left,1.25427,3,1.320475,right,0.369225,0,0,0,0,1,,,,,,,,,,,,,,,,,
,,,,,,,,13,2021-05-04_10h34.56.135,premceCat2_ses-02_part-02_label-phase2,2020.2.10,Win32,60,,,,,,,,,,,,,,,,0,55,55,3,1,stimuli/objects/shotglass.jpg,left,old,4,,,,,,,,
,,,,,,,,13,2021-05-04_10h34.56.135,premceCat2_ses-02_part-02_label-phase2,2020.2.10,Win32,60,,,,,right,7.002655,4,1.211945,,,,,,,,0,56,56,41,1,stimuli/objects/pylon01.jpg,right,new,42,,,,,,,,
,,,,,,,,13,2021-05-04_10h34.56.135,premceCat2_ses-02_part-02_label-phase2,2020.2.10,Win32,60,,,,,left,0.922175,4,1.84004,left,0.52519,0,0,0,0,1,,,,,,,,,,,,,,,,,
,,,,,,,,13,2021-05-04_10h34.56.135,premceCat2_ses-02_part-02_label-phase2,2020.2.10,Win32,60,,,,,,,,,,,,,,,,0,57,57,28,1,stimuli/objects/poolnet.jpg,left,old,29,,,,,,,,
,,,,,,,,13,2021-05-04_10h34.56.135,premceCat2_ses-02_part-02_label-phase2,2020.2.10,Win32,60,,,,,right,1.416005,4,1.639735,,,,,,,,0,58,58,42,1,stimuli/objects/snowshoe.jpg,right,new,43,,,,,,,,
,,,,,,,,13,2021-05-04_10h34.56.135,premceCat2_ses-02_part-02_label-phase2,2020.2.10,Win32,60,,,,,left,1.28076,4,1.12328,right,0.86554,0,0,0,0,1,,,,,,,,,,,,,,,,,
,,,,,,,,13,2021-05-04_10h34.56.135,premceCat2_ses-02_part-02_label-phase2,2020.2.10,Win32,60,,,,,,,,,,,,,,,,0,59,59,122,1,stimuli/objects/desktopcomputer.jpg,left,old,123,,,,,,,,
,,,,,,,,13,2021-05-04_10h34.56.135,premceCat2_ses-02_part-02_label-phase2,2020.2.10,Win32,60,,,,,left,1.35645,4,0.644585,right,0.75241,0,0,0,0,1,,,,,,,,,,,,,,,,,
,,,,,,,,13,2021-05-04_10h34.56.135,premceCat2_ses-02_part-02_label-phase2,2020.2.10,Win32,60,,,,,,,,,,,,,,,,0,60,60,62,1,stimuli/objects/potatomasher03b.jpg,left,old,63,,,,,,,,
,,,,,,,,13,2021-05-04_10h34.56.135,premceCat2_ses-02_part-02_label-phase2,2020.2.10,Win32,60,,,,,left,1.68676,4,0.698615,right,0.678205,0,0,0,0,1,,,,,,,,,,,,,,,,,
,,,,,,,,13,2021-05-04_10h34.56.135,premceCat2_ses-02_part-02_label-phase2,2020.2.10,Win32,60,,,,,,,,,,,,,,,,0,61,61,135,1,stimuli/objects/stubbywrench01a.jpg,left,old,136,,,,,,,,
,,,,,,,,13,2021-05-04_10h34.56.135,premceCat2_ses-02_part-02_label-phase2,2020.2.10,Win32,60,,,,,left,1.59535,4,0.735995,right,0.582965,0,0,0,0,1,,,,,,,,,,,,,,,,,
,,,,,,,,13,2021-05-04_10h34.56.135,premceCat2_ses-02_part-02_label-phase2,2020.2.10,Win32,60,,,,,,,,,,,,,,,,0,62,62,6,1,stimuli/objects/pitcher02b.jpg,left,old,7,,,,,,,,
,,,,,,,,13,2021-05-04_10h34.56.135,premceCat2_ses-02_part-02_label-phase2,2020.2.10,Win32,60,,,,,right,2.652955,1,1.85351,,,,,,,,0,63,63,64,1,stimuli/objects/drillbit03a.jpg,left,old,65,,,,,,,,
,,,,,,,,13,2021-05-04_10h34.56.135,premceCat2_ses-02_part-02_label-phase2,2020.2.10,Win32,60,,,,,right,4.94687,2,1.136015,,,,,,,,0,64,64,89,1,stimuli/objects/ducttape.jpg,right,new,90,,,,,,,,
,,,,,,,,13,2021-05-04_10h34.56.135,premceCat2_ses-02_part-02_label-phase2,2020.2.10,Win32,60,,,,,left,1.464435,2,1.673885,right,0.939605,0,0,0,0,1,,,,,,,,,,,,,,,,,
,,,,,,,,13,2021-05-04_10h34.56.135,premceCat2_ses-02_part-02_label-phase2,2020.2.10,Win32,60,,,,,,,,,,,,,,,,0,65,65,130,1,stimuli/objects/cooler01.jpg,left,old,131,,,,,,,,
,,,,,,,,13,2021-05-04_10h34.56.135,premceCat2_ses-02_part-02_label-phase2,2020.2.10,Win32,60,,,,,right,1.299625,3,1.021305,,,,,,,,0,66,66,55,1,stimuli/objects/toolbox02.jpg,right,new,56,,,,,,,,
,,,,,,,,13,2021-05-04_10h34.56.135,premceCat2_ses-02_part-02_label-phase2,2020.2.10,Win32,60,,,,,right,9.87816,3,2.476905,,,,,,,,0,67,67,10,1,stimuli/objects/dvdplayer.jpg,left,old,11,,,,,,,,
,,,,,,,,13,2021-05-04_10h34.56.135,premceCat2_ses-02_part-02_label-phase2,2020.2.10,Win32,60,,,,,right,39.79141,1,2.09141,,,,,,,,0,68,68,134,1,stimuli/objects/screwdriver04b.jpg,right,new,135,,,,,,,,
,,,,,,,,13,2021-05-04_10h34.56.135,premceCat2_ses-02_part-02_label-phase2,2020.2.10,Win32,60,,,,,left,1.223425,3,10.294225,right,1.945735,0,0,0,0,1,,,,,,,,,,,,,,,,,
,,,,,,,,13,2021-05-04_10h34.56.135,premceCat2_ses-02_part-02_label-phase2,2020.2.10,Win32,60,,,,,,,,,,,,,,,,0,69,69,142,1,stimuli/objects/martiniglass01b.jpg,left,old,143,,,,,,,,
,,,,,,,,13,2021-05-04_10h34.56.135,premceCat2_ses-02_part-02_label-phase2,2020.2.10,Win32,60,,,,,right,1.95313,3,2.703375,,,,,,,,0,70,70,38,1,stimuli/objects/soundmixer.jpg,right,new,39,,,,,,,,
,,,,,,,,13,2021-05-04_10h34.56.135,premceCat2_ses-02_part-02_label-phase2,2020.2.10,Win32,60,,,,,left,1.184945,3,2.18995,left,0.46822,0,0,0,0,1,,,,,,,,,,,,,,,,,
,,,,,,,,13,2021-05-04_10h34.56.135,premceCat2_ses-02_part-02_label-phase2,2020.2.10,Win32,60,,,,,,,,,,,,,,,,0,71,71,84,1,stimuli/objects/sportbag.jpg,left,old,85,,,,,,,,
,,,,,,,,13,2021-05-04_10h34.56.135,premceCat2_ses-02_part-02_label-phase2,2020.2.10,Win32,60,,,,,right,1.01664,3,1.477195,,,,,,,,0,72,72,85,1,stimuli/objects/golfball.jpg,right,new,86,,,,,,,,
,,,,,,,,13,2021-05-04_10h34.56.135,premceCat2_ses-02_part-02_label-phase2,2020.2.10,Win32,60,,,,,right,1.36054,3,0.906425,,,,,,,,0,73,73,90,1,stimuli/objects/carlighter02.jpg,right,new,91,,,,,,,,
,,,,,,,,13,2021-05-04_10h34.56.135,premceCat2_ses-02_part-02_label-phase2,2020.2.10,Win32,60,,,,,right,1.013175,3,1.239815,,,,,,,,0,74,74,136,1,stimuli/objects/battery02b.jpg,right,new,137,,,,,,,,
,,,,,,,,13,2021-05-04_10h34.56.135,premceCat2_ses-02_part-02_label-phase2,2020.2.10,Win32,60,,,,,right,0.95823,3,0.622495,,,,,,,,0,75,75,133,1,stimuli/objects/icebucket.jpg,right,new,134,,,,,,,,
,,,,,,,,13,2021-05-04_10h34.56.135,premceCat2_ses-02_part-02_label-phase2,2020.2.10,Win32,60,,,,,left,1.294455,4,1.02176,right,0.55538,0,0,0,0,1,,,,,,,,,,,,,,,,,
,,,,,,,,13,2021-05-04_10h34.56.135,premceCat2_ses-02_part-02_label-phase2,2020.2.10,Win32,60,,,,,,,,,,,,,,,,0,76,76,88,1,stimuli/objects/gravyboat.jpg,left,old,89,,,,,,,,
,,,,,,,,13,2021-05-04_10h34.56.135,premceCat2_ses-02_part-02_label-phase2,2020.2.10,Win32,60,,,,,right,1.18821,4,2.400885,,,,,,,,0,77,77,112,1,stimuli/objects/gymnasticring.jpg,right,new,113,,,,,,,,
,,,,,,,,13,2021-05-04_10h34.56.135,premceCat2_ses-02_part-02_label-phase2,2020.2.10,Win32,60,,,,,left,5.92025,4,1.337585,right,1.084965,0,0,0,0,1,,,,,,,,,,,,,,,,,
,,,,,,,,13,2021-05-04_10h34.56.135,premceCat2_ses-02_part-02_label-phase2,2020.2.10,Win32,60,,,,,,,,,,,,,,,,0,78,78,113,1,stimuli/objects/powercable.jpg,right,new,114,,,,,,,,
,,,,,,,,13,2021-05-04_10h34.56.135,premceCat2_ses-02_part-02_label-phase2,2020.2.10,Win32,60,,,,,right,1.187205,2,1.900525,,,,,,,,0,79,79,100,1,stimuli/objects/remotecontrol04.jpg,right,new,101,,,,,,,,
,,,,,,,,13,2021-05-04_10h34.56.135,premceCat2_ses-02_part-02_label-phase2,2020.2.10,Win32,60,,,,,right,1.214765,4,1.245635,,,,,,,,0,80,80,131,1,stimuli/objects/spotlight.jpg,right,new,132,,,,,,,,
,,,,,,,,13,2021-05-04_10h34.56.135,premceCat2_ses-02_part-02_label-phase2,2020.2.10,Win32,60,,,,,right,1.01652,4,0.65429,,,,,,,,0,81,81,94,1,stimuli/objects/electricmixer.jpg,right,new,95,,,,,,,,
,,,,,,,,13,2021-05-04_10h34.56.135,premceCat2_ses-02_part-02_label-phase2,2020.2.10,Win32,60,,,,,right,0.963555,4,0.7377,,,,,,,,0,82,82,116,1,stimuli/objects/radio01.jpg,right,new,117,,,,,,,,
,,,,,,,,13,2021-05-04_10h34.56.135,premceCat2_ses-02_part-02_label-phase2,2020.2.10,Win32,60,,,,,left,1.06839,4,1.260045,right,0.91885,0,0,0,0,1,,,,,,,,,,,,,,,,,
,,,,,,,,13,2021-05-04_10h34.56.135,premceCat2_ses-02_part-02_label-phase2,2020.2.10,Win32,60,,,,,,,,,,,,,,,,0,83,83,16,1,stimuli/objects/knifesharpener.jpg,left,old,17,,,,,,,,
,,,,,,,,13,2021-05-04_10h34.56.135,premceCat2_ses-02_part-02_label-phase2,2020.2.10,Win32,60,,,,,right,1.8835,3,1.77388,,,,,,,,0,84,84,111,1,stimuli/objects/speaker04.jpg,right,new,112,,,,,,,,
,,,,,,,,13,2021-05-04_10h34.56.135,premceCat2_ses-02_part-02_label-phase2,2020.2.10,Win32,60,,,,,right,1.170745,1,2.707445,,,,,,,,0,85,85,61,1,stimuli/objects/squeegee01b.jpg,left,old,62,,,,,,,,
,,,,,,,,13,2021-05-04_10h34.56.135,premceCat2_ses-02_part-02_label-phase2,2020.2.10,Win32,60,,,,,left,5.983385,3,1.48189,right,0.79101,0,0,0,0,1,,,,,,,,,,,,,,,,,
,,,,,,,,13,2021-05-04_10h34.56.135,premceCat2_ses-02_part-02_label-phase2,2020.2.10,Win32,60,,,,,,,,,,,,,,,,0,86,86,56,1,stimuli/objects/funnel.jpg,left,old,57,,,,,,,,
,,,,,,,,13,2021-05-04_10h34.56.135,premceCat2_ses-02_part-02_label-phase2,2020.2.10,Win32,60,,,,,right,43.07574,3,0.815575,,,,,,,,0,87,87,34,1,stimuli/objects/lifesaver.jpg,left,old,35,,,,,,,,
,,,,,,,,13,2021-05-04_10h34.56.135,premceCat2_ses-02_part-02_label-phase2,2020.2.10,Win32,60,,,,,left,1.823575,4,3.237675,right,1.519075,0,0,0,0,1,,,,,,,,,,,,,,,,,
,,,,,,,,13,2021-05-04_10h34.56.135,premceCat2_ses-02_part-02_label-phase2,2020.2.10,Win32,60,,,,,,,,,,,,,,,,0,88,88,5,1,stimuli/objects/expansioncard.jpg,left,old,6,,,,,,,,
,,,,,,,,13,2021-05-04_10h34.56.135,premceCat2_ses-02_part-02_label-phase2,2020.2.10,Win32,60,,,,,right,2.173745,2,1.347555,,,,,,,,0,89,89,72,1,stimuli/objects/cclamp.jpg,right,new,73,,,,,,,,
,,,,,,,,13,2021-05-04_10h34.56.135,premceCat2_ses-02_part-02_label-phase2,2020.2.10,Win32,60,,,,,right,1.336785,3,1.63624,,,,,,,,0,90,90,18,1,stimuli/objects/cashregister01.jpg,right,new,19,,,,,,,,
,,,,,,,,13,2021-05-04_10h34.56.135,premceCat2_ses-02_part-02_label-phase2,2020.2.10,Win32,60,,,,,right,2.029555,2,3.006525,,,,,,,,0,91,91,96,1,stimuli/objects/golfbag.jpg,right,new,97,,,,,,,,
,,,,,,,,13,2021-05-04_10h34.56.135,premceCat2_ses-02_part-02_label-phase2,2020.2.10,Win32,60,,,,,left,1.119625,3,1.26284,right,1.953915,0,0,0,0,1,,,,,,,,,,,,,,,,,
,,,,,,,,13,2021-05-04_10h34.56.135,premceCat2_ses-02_part-02_label-phase2,2020.2.10,Win32,60,,,,,,,,,,,,,,,,0,92,92,118,1,stimuli/objects/adjustablewrench01b.jpg,left,old,119,,,,,,,,
,,,,,,,,13,2021-05-04_10h34.56.135,premceCat2_ses-02_part-02_label-phase2,2020.2.10,Win32,60,,,,,right,4.25583,3,2.435265,,,,,,,,0,93,93,53,1,stimuli/objects/binoculars01b.jpg,right,new,54,,,,,,,,
,,,,,,,,13,2021-05-04_10h34.56.135,premceCat2_ses-02_part-02_label-phase2,2020.2.10,Win32,60,,,,,right,1.016725,3,1.122525,,,,,,,,0,94,94,76,1,stimuli/objects/megaphone.jpg,right,new,77,,,,,,,,
,,,,,,,,13,2021-05-04_10h34.56.135,premceCat2_ses-02_part-02_label-phase2,2020.2.10,Win32,60,,,,,right,0.931095,3,0.557215,,,,,,,,0,95,95,32,1,stimuli/objects/mitresaw.jpg,right,new,33,,,,,,,,
,,,,,,,,13,2021-05-04_10h34.56.135,premceCat2_ses-02_part-02_label-phase2,2020.2.10,Win32,60,,,,,right,5.65467,2,1.03865,,,,,,,,0,96,96,33,1,stimuli/objects/microwave.jpg,right,new,34,,,,,,,,
,,,,,,,,13,2021-05-04_10h34.56.135,premceCat2_ses-02_part-02_label-phase2,2020.2.10,Win32,60,,,,,right,1.28375,2,0.766525,,,,,,,,0,97,97,24,1,stimuli/objects/skateboard.jpg,right,new,25,,,,,,,,
,,,,,,,,13,2021-05-04_10h34.56.135,premceCat2_ses-02_part-02_label-phase2,2020.2.10,Win32,60,,,,,left,1.080155,4,1.16893,left,2.34197,0,0,0,0,1,,,,,,,,,,,,,,,,,
,,,,,,,,13,2021-05-04_10h34.56.135,premceCat2_ses-02_part-02_label-phase2,2020.2.10,Win32,60,,,,,,,,,,,,,,,,0,98,98,27,1,stimuli/objects/anchor.jpg,left,old,28,,,,,,,,
,,,,,,,,13,2021-05-04_10h34.56.135,premceCat2_ses-02_part-02_label-phase2,2020.2.10,Win32,60,,,,,left,2.27212,4,0.75842,left,4.703345,0,0,0,0,1,,,,,,,,,,,,,,,,,
,,,,,,,,13,2021-05-04_10h34.56.135,premceCat2_ses-02_part-02_label-phase2,2020.2.10,Win32,60,,,,,,,,,,,,,,,,0,99,99,47,1,stimuli/objects/caulking.jpg,left,old,48,,,,,,,,
,,,,,,,,13,2021-05-04_10h34.56.135,premceCat2_ses-02_part-02_label-phase2,2020.2.10,Win32,60,,,,,right,1.50467,4,0.952195,,,,,,,,0,100,100,46,1,stimuli/objects/walkman.jpg,right,new,47,,,,,,,,
,,,,,,,,13,2021-05-04_10h34.56.135,premceCat2_ses-02_part-02_label-phase2,2020.2.10,Win32,60,,,,,left,1.13016,2,1.44156,right,1.288935,0,0,0,0,1,,,,,,,,,,,,,,,,,
,,,,,,,,13,2021-05-04_10h34.56.135,premceCat2_ses-02_part-02_label-phase2,2020.2.10,Win32,60,,,,,,,,,,,,,,,,0,101,101,132,1,stimuli/objects/payphone.jpg,left,old,133,,,,,,,,
,,,,,,,,13,2021-05-04_10h34.56.135,premceCat2_ses-02_part-02_label-phase2,2020.2.10,Win32,60,,,,,right,1.17155,3,1.23423,,,,,,,,0,102,102,23,1,stimuli/objects/football.jpg,right,new,24,,,,,,,,
,,,,,,,,13,2021-05-04_10h34.56.135,premceCat2_ses-02_part-02_label-phase2,2020.2.10,Win32,60,,,,,right,4.774945,2,2.168825,,,,,,,,0,103,103,92,1,stimuli/objects/carjack.jpg,right,new,93,,,,,,,,
,,,,,,,,13,2021-05-04_10h34.56.135,premceCat2_ses-02_part-02_label-phase2,2020.2.10,Win32,60,,,,,left,8.13065,2,1.088895,left,2.47243,0,0,0,0,1,,,,,,,,,,,,,,,,,
,,,,,,,,13,2021-05-04_10h34.56.135,premceCat2_ses-02_part-02_label-phase2,2020.2.10,Win32,60,,,,,,,,,,,,,,,,0,104,104,40,1,stimuli/objects/level03a.jpg,left,old,41,,,,,,,,
,,,,,,,,13,2021-05-04_10h34.56.135,premceCat2_ses-02_part-02_label-phase2,2020.2.10,Win32,60,,,,,right,9.40312,3,1.2208,,,,,,,,0,105,105,54,1,stimuli/objects/pda.jpg,right,new,55,,,,,,,,
,,,,,,,,13,2021-05-04_10h34.56.135,premceCat2_ses-02_part-02_label-phase2,2020.2.10,Win32,60,,,,,right,6.50194,3,2.01002,,,,,,,,0,106,106,50,1,stimuli/objects/chisel02b.jpg,right,new,51,,,,,,,,
,,,,,,,,13,2021-05-04_10h34.56.135,premceCat2_ses-02_part-02_label-phase2,2020.2.10,Win32,60,,,,,right,1.20742,3,1.21743,,,,,,,,0,107,107,17,1,stimuli/objects/exercisebench.jpg,right,new,18,,,,,,,,
,,,,,,,,13,2021-05-04_10h34.56.135,premceCat2_ses-02_part-02_label-phase2,2020.2.10,Win32,60,,,,,left,1.88345,3,1.168735,left,1.482545,0,0,0,0,1,,,,,,,,,,,,,,,,,
,,,,,,,,13,2021-05-04_10h34.56.135,premceCat2_ses-02_part-02_label-phase2,2020.2.10,Win32,60,,,,,,,,,,,,,,,,0,108,108,58,1,stimuli/objects/weedwacker.jpg,left,old,59,,,,,,,,
,,,,,,,,13,2021-05-04_10h34.56.135,premceCat2_ses-02_part-02_label-phase2,2020.2.10,Win32,60,,,,,right,1.118005,4,0.78612,,,,,,,,0,109,109,121,1,stimuli/objects/ceilingspeaker.jpg,right,new,122,,,,,,,,
,,,,,,,,13,2021-05-04_10h34.56.135,premceCat2_ses-02_part-02_label-phase2,2020.2.10,Win32,60,,,,,left,54.63452,2,1.25341,right,2.307155,0,0,0,0,1,,,,,,,,,,,,,,,,,
,,,,,,,,13,2021-05-04_10h34.56.135,premceCat2_ses-02_part-02_label-phase2,2020.2.10,Win32,60,,,,,,,,,,,,,,,,0,110,110,77,1,stimuli/objects/satellitedish01.jpg,left,old,78,,,,,,,,
,,,,,,,,13,2021-05-04_10h34.56.135,premceCat2_ses-02_part-02_label-phase2,2020.2.10,Win32,60,,,,,right,19.166695,3,1.721665,,,,,,,,0,111,111,106,1,stimuli/objects/minifridge.jpg,right,new,107,,,,,,,,
,,,,,,,,13,2021-05-04_10h34.56.135,premceCat2_ses-02_part-02_label-phase2,2020.2.10,Win32,60,,,,,left,1.26555,4,11.81528,right,13.21298,0,0,0,0,1,,,,,,,,,,,,,,,,,
,,,,,,,,13,2021-05-04_10h34.56.135,premceCat2_ses-02_part-02_label-phase2,2020.2.10,Win32,60,,,,,,,,,,,,,,,,0,112,112,124,1,stimuli/objects/fishinghook03.jpg,left,old,125,,,,,,,,
,,,,,,,,13,2021-05-04_10h34.56.135,premceCat2_ses-02_part-02_label-phase2,2020.2.10,Win32,60,,,,,right,1.449695,4,0.819175,,,,,,,,0,113,113,79,1,stimuli/objects/fluorescentlightbulb.jpg,left,old,80,,,,,,,,
,,,,,,,,13,2021-05-04_10h34.56.135,premceCat2_ses-02_part-02_label-phase2,2020.2.10,Win32,60,,,,,left,1.396785,4,0.95207,right,0.38455,0,0,0,0,1,,,,,,,,,,,,,,,,,
,,,,,,,,13,2021-05-04_10h34.56.135,premceCat2_ses-02_part-02_label-phase2,2020.2.10,Win32,60,,,,,,,,,,,,,,,,0,114,114,120,1,stimuli/objects/oven.jpg,left,old,121,,,,,,,,
,,,,,,,,13,2021-05-04_10h34.56.135,premceCat2_ses-02_part-02_label-phase2,2020.2.10,Win32,60,,,,,left,1.111645,3,1.142335,right,1.83915,0,0,0,0,1,,,,,,,,,,,,,,,,,
,,,,,,,,13,2021-05-04_10h34.56.135,premceCat2_ses-02_part-02_label-phase2,2020.2.10,Win32,60,,,,,,,,,,,,,,,,0,115,115,99,1,stimuli/objects/paintroller01.jpg,left,old,100,,,,,,,,
,,,,,,,,13,2021-05-04_10h34.56.135,premceCat2_ses-02_part-02_label-phase2,2020.2.10,Win32,60,,,,,left,1.560805,4,2.185985,right,1.30227,0,0,0,0,1,,,,,,,,,,,,,,,,,
,,,,,,,,13,2021-05-04_10h34.56.135,premceCat2_ses-02_part-02_label-phase2,2020.2.10,Win32,60,,,,,,,,,,,,,,,,0,116,116,95,1,stimuli/objects/floppydisk02a.jpg,left,old,96,,,,,,,,
,,,,,,,,13,2021-05-04_10h34.56.135,premceCat2_ses-02_part-02_label-phase2,2020.2.10,Win32,60,,,,,left,3.147835,4,1.11445,right,0.26426,0,0,0,0,1,,,,,,,,,,,,,,,,,
,,,,,,,,13,2021-05-04_10h34.56.135,premceCat2_ses-02_part-02_label-phase2,2020.2.10,Win32,60,,,,,,,,,,,,,,,,0,117,117,15,1,stimuli/objects/watercooler.jpg,left,old,16,,,,,,,,
,,,,,,,,13,2021-05-04_10h34.56.135,premceCat2_ses-02_part-02_label-phase2,2020.2.10,Win32,60,,,,,right,1.01248,4,1.01029,,,,,,,,0,118,118,20,1,stimuli/objects/laptop01a.jpg,right,new,21,,,,,,,,
,,,,,,,,13,2021-05-04_10h34.56.135,premceCat2_ses-02_part-02_label-phase2,2020.2.10,Win32,60,,,,,left,1.256755,3,1.47564,right,2.2876,0,0,0,0,1,,,,,,,,,,,,,,,,,
,,,,,,,,13,2021-05-04_10h34.56.135,premceCat2_ses-02_part-02_label-phase2,2020.2.10,Win32,60,,,,,,,,,,,,,,,,0,119,119,31,1,stimuli/objects/gastank.jpg,left,old,32,,,,,,,,
,,,,,,,,13,2021-05-04_10h34.56.135,premceCat2_ses-02_part-02_label-phase2,2020.2.10,Win32,60,,,,,right,1.33542,2,1.61167,,,,,,,,0,120,120,29,1,stimuli/objects/outletadapter.jpg,left,old,30,,,,,,,,
,,,,,,,,13,2021-05-04_10h34.56.135,premceCat2_ses-02_part-02_label-phase2,2020.2.10,Win32,60,,,,,right,3.36198,3,5.00631,,,,,,,,0,121,121,39,1,stimuli/objects/sippycup.jpg,right,new,40,,,,,,,,
,,,,,,,,13,2021-05-04_10h34.56.135,premceCat2_ses-02_part-02_label-phase2,2020.2.10,Win32,60,,,,,left,1.374165,4,0.74136,left,1.5036,0,0,0,0,1,,,,,,,,,,,,,,,,,
,,,,,,,,13,2021-05-04_10h34.56.135,premceCat2_ses-02_part-02_label-phase2,2020.2.10,Win32,60,,,,,,,,,,,,,,,,0,122,122,97,1,stimuli/objects/securitycamera.jpg,left,old,98,,,,,,,,
,,,,,,,,13,2021-05-04_10h34.56.135,premceCat2_ses-02_part-02_label-phase2,2020.2.10,Win32,60,,,,,left,1.87604,3,0.867545,left,0.333125,0,0,0,0,1,,,,,,,,,,,,,,,,,
,,,,,,,,13,2021-05-04_10h34.56.135,premceCat2_ses-02_part-02_label-phase2,2020.2.10,Win32,60,,,,,,,,,,,,,,,,0,123,123,115,1,stimuli/objects/saw02b.jpg,left,old,116,,,,,,,,
,,,,,,,,13,2021-05-04_10h34.56.135,premceCat2_ses-02_part-02_label-phase2,2020.2.10,Win32,60,,,,,right,6.619695,2,1.19256,,,,,,,,0,124,124,71,1,stimuli/objects/faxmachine.jpg,right,new,72,,,,,,,,
,,,,,,,,13,2021-05-04_10h34.56.135,premceCat2_ses-02_part-02_label-phase2,2020.2.10,Win32,60,,,,,right,1.06549,4,1.14133,,,,,,,,0,125,125,128,1,stimuli/objects/tripod01.jpg,right,new,129,,,,,,,,
,,,,,,,,13,2021-05-04_10h34.56.135,premceCat2_ses-02_part-02_label-phase2,2020.2.10,Win32,60,,,,,right,1.46554,4,1.44044,,,,,,,,0,126,126,51,1,stimuli/objects/webcam.jpg,right,new,52,,,,,,,,
,,,,,,,,13,2021-05-04_10h34.56.135,premceCat2_ses-02_part-02_label-phase2,2020.2.10,Win32,60,,,,,left,4.172805,3,1.304175,left,1.633635,0,0,0,0,1,,,,,,,,,,,,,,,,,
,,,,,,,,13,2021-05-04_10h34.56.135,premceCat2_ses-02_part-02_label-phase2,2020.2.10,Win32,60,,,,,,,,,,,,,,,,0,127,127,75,1,stimuli/objects/stepladder.jpg,right,new,76,,,,,,,,
,,,,,,,,13,2021-05-04_10h34.56.135,premceCat2_ses-02_part-02_label-phase2,2020.2.10,Win32,60,,,,,left,1.47701,2,0.86985,right,0.94238,0,0,0,0,1,,,,,,,,,,,,,,,,,
,,,,,,,,13,2021-05-04_10h34.56.135,premceCat2_ses-02_part-02_label-phase2,2020.2.10,Win32,60,,,,,,,,,,,,,,,,0,128,128,114,1,stimuli/objects/tray.jpg,left,old,115,,,,,,,,
,,,,,,,,13,2021-05-04_10h34.56.135,premceCat2_ses-02_part-02_label-phase2,2020.2.10,Win32,60,,,,,left,1.000205,3,1.95402,left,1.31792,0,0,0,0,1,,,,,,,,,,,,,,,,,
,,,,,,,,13,2021-05-04_10h34.56.135,premceCat2_ses-02_part-02_label-phase2,2020.2.10,Win32,60,,,,,,,,,,,,,,,,0,129,129,44,1,stimuli/objects/lawnmower.jpg,left,old,45,,,,,,,,
,,,,,,,,13,2021-05-04_10h34.56.135,premceCat2_ses-02_part-02_label-phase2,2020.2.10,Win32,60,,,,,left,1.443885,3,0.483015,right,0.41814,0,0,0,0,1,,,,,,,,,,,,,,,,,
,,,,,,,,13,2021-05-04_10h34.56.135,premceCat2_ses-02_part-02_label-phase2,2020.2.10,Win32,60,,,,,,,,,,,,,,,,0,130,130,70,1,stimuli/objects/bowl02a.jpg,left,old,71,,,,,,,,
,,,,,,,,13,2021-05-04_10h34.56.135,premceCat2_ses-02_part-02_label-phase2,2020.2.10,Win32,60,,,,,right,1.688075,1,1.26717,,,,,,,,0,131,131,57,1,stimuli/objects/audiocablesplitter.jpg,right,new,58,,,,,,,,
,,,,,,,,13,2021-05-04_10h34.56.135,premceCat2_ses-02_part-02_label-phase2,2020.2.10,Win32,60,,,,,right,1.789425,1,0.27673,,,,,,,,0,132,132,82,1,stimuli/objects/snowbrush.jpg,right,new,83,,,,,,,,
,,,,,,,,13,2021-05-04_10h34.56.135,premceCat2_ses-02_part-02_label-phase2,2020.2.10,Win32,60,,,,,right,1.28635,3,0.752325,,,,,,,,0,133,133,19,1,stimuli/objects/peppermill02b.jpg,right,new,20,,,,,,,,
,,,,,,,,13,2021-05-04_10h34.56.135,premceCat2_ses-02_part-02_label-phase2,2020.2.10,Win32,60,,,,,left,2.317605,3,0.62055,right,1.327265,0,0,0,0,1,,,,,,,,,,,,,,,,,
,,,,,,,,13,2021-05-04_10h34.56.135,premceCat2_ses-02_part-02_label-phase2,2020.2.10,Win32,60,,,,,,,,,,,,,,,,0,134,134,45,1,stimuli/objects/cookingpot.jpg,left,old,46,,,,,,,,
,,,,,,,,13,2021-05-04_10h34.56.135,premceCat2_ses-02_part-02_label-phase2,2020.2.10,Win32,60,,,,,right,0.932195,4,0.785685,,,,,,,,0,135,135,86,1,stimuli/objects/toasteroven.jpg,right,new,87,,,,,,,,
,,,,,,,,13,2021-05-04_10h34.56.135,premceCat2_ses-02_part-02_label-phase2,2020.2.10,Win32,60,,,,,left,1.229685,4,0.27083,left,2.521895,0,0,0,0,1,,,,,,,,,,,,,,,,,
,,,,,,,,13,2021-05-04_10h34.56.135,premceCat2_ses-02_part-02_label-phase2,2020.2.10,Win32,60,,,,,,,,,,,,,,,,0,136,136,91,1,stimuli/objects/metalbrush.jpg,left,old,92,,,,,,,,
,,,,,,,,13,2021-05-04_10h34.56.135,premceCat2_ses-02_part-02_label-phase2,2020.2.10,Win32,60,,,,,left,1.35038,4,0.25273,right,0.75186,0,0,0,0,1,,,,,,,,,,,,,,,,,
,,,,,,,,13,2021-05-04_10h34.56.135,premceCat2_ses-02_part-02_label-phase2,2020.2.10,Win32,60,,,,,,,,,,,,,,,,0,137,137,129,1,stimuli/objects/peeler01.jpg,left,old,130,,,,,,,,
,,,,,,,,13,2021-05-04_10h34.56.135,premceCat2_ses-02_part-02_label-phase2,2020.2.10,Win32,60,,,,,right,1.35238,4,0.257615,,,,,,,,0,138,138,35,1,stimuli/objects/alarmclock01.jpg,left,old,36,,,,,,,,
,,,,,,,,13,2021-05-04_10h34.56.135,premceCat2_ses-02_part-02_label-phase2,2020.2.10,Win32,60,,,,,right,11.85442,4,0.125605,,,,,,,,0,139,139,26,1,stimuli/objects/boogieboard.jpg,right,new,27,,,,,,,,
,,,,,,,,13,2021-05-04_10h34.56.135,premceCat2_ses-02_part-02_label-phase2,2020.2.10,Win32,60,,,,,right,1.01706,3,0.413375,,,,,,,,0,140,140,126,1,stimuli/objects/tableknife02.jpg,right,new,127,,,,,,,,
,,,,,,,,13,2021-05-04_10h34.56.135,premceCat2_ses-02_part-02_label-phase2,2020.2.10,Win32,60,,,,,left,1.644585,3,0.902065,right,3.192685,0,0,0,0,1,,,,,,,,,,,,,,,,,
,,,,,,,,13,2021-05-04_10h34.56.135,premceCat2_ses-02_part-02_label-phase2,2020.2.10,Win32,60,,,,,,,,,,,,,,,,0,141,141,101,1,stimuli/objects/vhstape.jpg,left,old,102,,,,,,,,
,,,,,,,,13,2021-05-04_10h34.56.135,premceCat2_ses-02_part-02_label-phase2,2020.2.10,Win32,60,,,,,right,11.330585,2,0.6867,,,,,,,,0,142,142,52,1,stimuli/objects/handmixer01d.jpg,left,old,53,,,,,,,,
,,,,,,,,13,2021-05-04_10h34.56.135,premceCat2_ses-02_part-02_label-phase2,2020.2.10,Win32,60,,,,,,,,,,,,,,,,,,,,,,,,,space,264.6949,0,0,0,0,1,condition_files/ImagesforRecog2_1.csv
,,,,,,,,13,2021-05-04_10h34.56.135,premceCat2_ses-02_part-02_label-phase2,2020.2.10,Win32,60,,,,,left,5.30127,3,1.46074,left,2.18565,0,0,0,0,1,,,,,,,,,,,,,,,,,
,,,,,,,,13,2021-05-04_10h34.56.135,premceCat2_ses-02_part-02_label-phase2,2020.2.10,Win32,60,,,,,,,,,,,,,,,,0,0,0,126,1,stimuli/objects/badmintonracket.jpg,left,old,270,,,,,,,,
,,,,,,,,13,2021-05-04_10h34.56.135,premceCat2_ses-02_part-02_label-phase2,2020.2.10,Win32,60,,,,,left,5.303085,4,0.769745,right,0.49628,0,0,0,0,1,,,,,,,,,,,,,,,,,
,,,,,,,,13,2021-05-04_10h34.56.135,premceCat2_ses-02_part-02_label-phase2,2020.2.10,Win32,60,,,,,,,,,,,,,,,,0,1,1,141,1,stimuli/objects/spatula04.jpg,left,old,285,,,,,,,,
,,,,,,,,13,2021-05-04_10h34.56.135,premceCat2_ses-02_part-02_label-phase2,2020.2.10,Win32,60,,,,,right,43.024155,2,0.78476,,,,,,,,0,2,2,19,1,stimuli/objects/mug01.jpg,right,new,163,,,,,,,,
,,,,,,,,13,2021-05-04_10h34.56.135,premceCat2_ses-02_part-02_label-phase2,2020.2.10,Win32,60,,,,,left,2.122065,3,1.25588,left,1.64047,0,0,0,0,1,,,,,,,,,,,,,,,,,
,,,,,,,,13,2021-05-04_10h34.56.135,premceCat2_ses-02_part-02_label-phase2,2020.2.10,Win32,60,,,,,,,,,,,,,,,,0,3,3,37,1,stimuli/objects/carantenna.jpg,left,old,181,,,,,,,,
,,,,,,,,13,2021-05-04_10h34.56.135,premceCat2_ses-02_part-02_label-phase2,2020.2.10,Win32,60,,,,,left,1.85103,3,0.90518,right,0.925715,0,0,0,0,1,,,,,,,,,,,,,,,,,
,,,,,,,,13,2021-05-04_10h34.56.135,premceCat2_ses-02_part-02_label-phase2,2020.2.10,Win32,60,,,,,,,,,,,,,,,,0,4,4,4,1,stimuli/objects/cassettetape01a.jpg,right,new,148,,,,,,,,
,,,,,,,,13,2021-05-04_10h34.56.135,premceCat2_ses-02_part-02_label-phase2,2020.2.10,Win32,60,,,,,right,1.2247,3,0.645995,,,,,,,,0,5,5,95,1,stimuli/objects/tennisball01b.jpg,right,new,239,,,,,,,,
,,,,,,,,13,2021-05-04_10h34.56.135,premceCat2_ses-02_part-02_label-phase2,2020.2.10,Win32,60,,,,,left,2.103005,2,0.642185,right,1.200925,0,0,0,0,1,,,,,,,,,,,,,,,,,
,,,,,,,,13,2021-05-04_10h34.56.135,premceCat2_ses-02_part-02_label-phase2,2020.2.10,Win32,60,,,,,,,,,,,,,,,,0,6,6,30,1,stimuli/objects/halogenlightbulb.jpg,right,new,174,,,,,,,,
,,,,,,,,13,2021-05-04_10h34.56.135,premceCat2_ses-02_part-02_label-phase2,2020.2.10,Win32,60,,,,,right,1.422745,4,1.07597,,,,,,,,0,7,7,137,1,stimuli/objects/nutcracker01.jpg,right,new,281,,,,,,,,
,,,,,,,,13,2021-05-04_10h34.56.135,premceCat2_ses-02_part-02_label-phase2,2020.2.10,Win32,60,,,,,left,1.29865,4,0.35193,right,0.95742,0,0,0,0,1,,,,,,,,,,,,,,,,,
,,,,,,,,13,2021-05-04_10h34.56.135,premceCat2_ses-02_part-02_label-phase2,2020.2.10,Win32,60,,,,,,,,,,,,,,,,0,8,8,106,1,stimuli/objects/nintendods.jpg,left,old,250,,,,,,,,
,,,,,,,,13,2021-05-04_10h34.56.135,premceCat2_ses-02_part-02_label-phase2,2020.2.10,Win32,60,,,,,right,1.155505,1,0.442585,,,,,,,,0,9,9,84,1,stimuli/objects/patioumbrella.jpg,left,old,228,,,,,,,,
,,,,,,,,13,2021-05-04_10h34.56.135,premceCat2_ses-02_part-02_label-phase2,2020.2.10,Win32,60,,,,,left,1.186,4,0.59041,right,1.325525,0,0,0,0,1,,,,,,,,,,,,,,,,,
,,,,,,,,13,2021-05-04_10h34.56.135,premceCat2_ses-02_part-02_label-phase2,2020.2.10,Win32,60,,,,,,,,,,,,,,,,0,10,10,112,1,stimuli/objects/telephone01b.jpg,left,old,256,,,,,,,,
,,,,,,,,13,2021-05-04_10h34.56.135,premceCat2_ses-02_part-02_label-phase2,2020.2.10,Win32,60,,,,,right,1.511315,4,1.642705,,,,,,,,0,11,11,69,1,stimuli/objects/straw.jpg,right,new,213,,,,,,,,
,,,,,,,,13,2021-05-04_10h34.56.135,premceCat2_ses-02_part-02_label-phase2,2020.2.10,Win32,60,,,,,right,29.488805,2,0.476635,,,,,,,,0,12,12,9,1,stimuli/objects/alarmsystem.jpg,right,new,153,,,,,,,,
,,,,,,,,13,2021-05-04_10h34.56.135,premceCat2_ses-02_part-02_label-phase2,2020.2.10,Win32,60,,,,,right,1.146505,2,0.469765,,,,,,,,0,13,13,26,1,stimuli/objects/flashlight02b.jpg,right,new,170,,,,,,,,
,,,,,,,,13,2021-05-04_10h34.56.135,premceCat2_ses-02_part-02_label-phase2,2020.2.10,Win32,60,,,,,right,35.359355,2,0.440895,,,,,,,,0,14,14,54,1,stimuli/objects/toyhardhat.jpg,left,old,198,,,,,,,,
,,,,,,,,13,2021-05-04_10h34.56.135,premceCat2_ses-02_part-02_label-phase2,2020.2.10,Win32,60,,,,,right,0.96624,2,0.64213,,,,,,,,0,15,15,5,1,stimuli/objects/pickaxe02.jpg,right,new,149,,,,,,,,
,,,,,,,,13,2021-05-04_10h34.56.135,premceCat2_ses-02_part-02_label-phase2,2020.2.10,Win32,60,,,,,right,2.98117,2,0.37438,,,,,,,,0,16,16,131,1,stimuli/objects/handblender.jpg,right,new,275,,,,,,,,
,,,,,,,,13,2021-05-04_10h34.56.135,premceCat2_ses-02_part-02_label-phase2,2020.2.10,Win32,60,,,,,left,2.58418,1,0.254875,left,5.06864,0,0,0,0,1,,,,,,,,,,,,,,,,,
,,,,,,,,13,2021-05-04_10h34.56.135,premceCat2_ses-02_part-02_label-phase2,2020.2.10,Win32,60,,,,,,,,,,,,,,,,0,17,17,23,1,stimuli/objects/hockeypuck.jpg,left,old,167,,,,,,,,
,,,,,,,,13,2021-05-04_10h34.56.135,premceCat2_ses-02_part-02_label-phase2,2020.2.10,Win32,60,,,,,right,1.82932,2,0.389195,,,,,,,,0,18,18,41,1,stimuli/objects/flask.jpg,right,new,185,,,,,,,,
,,,,,,,,13,2021-05-04_10h34.56.135,premceCat2_ses-02_part-02_label-phase2,2020.2.10,Win32,60,,,,,right,1.25099,2,1.547105,,,,,,,,0,19,19,44,1,stimuli/objects/toaster01.jpg,right,new,188,,,,,,,,
,,,,,,,,13,2021-05-04_10h34.56.135,premceCat2_ses-02_part-02_label-phase2,2020.2.10,Win32,60,,,,,left,1.737235,4,1.186595,right,1.401765,0,0,0,0,1,,,,,,,,,,,,,,,,,
,,,,,,,,13,2021-05-04_10h34.56.135,premceCat2_ses-02_part-02_label-phase2,2020.2.10,Win32,60,,,,,,,,,,,,,,,,0,20,20,81,1,stimuli/objects/grill.jpg,right,new,225,,,,,,,,
,,,,,,,,13,2021-05-04_10h34.56.135,premceCat2_ses-02_part-02_label-phase2,2020.2.10,Win32,60,,,,,right,1.105385,2,0.661825,,,,,,,,0,21,21,55,1,stimuli/objects/fonduefork01.jpg,right,new,199,,,,,,,,
,,,,,,,,13,2021-05-04_10h34.56.135,premceCat2_ses-02_part-02_label-phase2,2020.2.10,Win32,60,,,,,left,1.43139,3,0.455395,left,1.823765,0,0,0,0,1,,,,,,,,,,,,,,,,,
,,,,,,,,13,2021-05-04_10h34.56.135,premceCat2_ses-02_part-02_label-phase2,2020.2.10,Win32,60,,,,,,,,,,,,,,,,0,22,22,11,1,stimuli/objects/fuse.jpg,left,old,155,,,,,,,,
,,,,,,,,13,2021-05-04_10h34.56.135,premceCat2_ses-02_part-02_label-phase2,2020.2.10,Win32,60,,,,,left,3.917615,3,0.60338,left,1.38479,0,0,0,0,1,,,,,,,,,,,,,,,,,
,,,,,,,,13,2021-05-04_10h34.56.135,premceCat2_ses-02_part-02_label-phase2,2020.2.10,Win32,60,,,,,,,,,,,,,,,,0,23,23,96,1,stimuli/objects/mallet01b.jpg,left,old,240,,,,,,,,
,,,,,,,,13,2021-05-04_10h34.56.135,premceCat2_ses-02_part-02_label-phase2,2020.2.10,Win32,60,,,,,right,1.032955,4,0.73584,,,,,,,,0,24,24,101,1,stimuli/objects/lifejacket.jpg,right,new,245,,,,,,,,
,,,,,,,,13,2021-05-04_10h34.56.135,premceCat2_ses-02_part-02_label-phase2,2020.2.10,Win32,60,,,,,right,1.315055,3,0.55534,,,,,,,,0,25,25,123,1,stimuli/objects/jackhammer.jpg,right,new,267,,,,,,,,
,,,,,,,,13,2021-05-04_10h34.56.135,premceCat2_ses-02_part-02_label-phase2,2020.2.10,Win32,60,,,,,right,2.736975,2,0.43562,,,,,,,,0,26,26,36,1,stimuli/objects/loppingshears.jpg,right,new,180,,,,,,,,
,,,,,,,,13,2021-05-04_10h34.56.135,premceCat2_ses-02_part-02_label-phase2,2020.2.10,Win32,60,,,,,right,1.34603,2,0.62105,,,,,,,,0,27,27,128,1,stimuli/objects/pot01.jpg,left,old,272,,,,,,,,
,,,,,,,,13,2021-05-04_10h34.56.135,premceCat2_ses-02_part-02_label-phase2,2020.2.10,Win32,60,,,,,right,0.847705,4,0.636565,,,,,,,,0,28,28,135,1,stimuli/objects/mortarandpestle.jpg,right,new,279,,,,,,,,
,,,,,,,,13,2021-05-04_10h34.56.135,premceCat2_ses-02_part-02_label-phase2,2020.2.10,Win32,60,,,,,right,1.020645,4,0.466115,,,,,,,,0,29,29,35,1,stimuli/objects/stroller.jpg,right,new,179,,,,,,,,
,,,,,,,,13,2021-05-04_10h34.56.135,premceCat2_ses-02_part-02_label-phase2,2020.2.10,Win32,60,,,,,right,1.56522,2,0.25294,,,,,,,,0,30,30,21,1,stimuli/objects/boltcutter.jpg,left,old,165,,,,,,,,
,,,,,,,,13,2021-05-04_10h34.56.135,premceCat2_ses-02_part-02_label-phase2,2020.2.10,Win32,60,,,,,left,1.070165,3,0.32576,right,0.60763,0,0,0,0,1,,,,,,,,,,,,,,,,,
,,,,,,,,13,2021-05-04_10h34.56.135,premceCat2_ses-02_part-02_label-phase2,2020.2.10,Win32,60,,,,,,,,,,,,,,,,0,31,31,77,1,stimuli/objects/corkscrew03a.jpg,left,old,221,,,,,,,,
,,,,,,,,13,2021-05-04_10h34.56.135,premceCat2_ses-02_part-02_label-phase2,2020.2.10,Win32,60,,,,,right,1.3847,4,0.65449,,,,,,,,0,32,32,129,1,stimuli/objects/snowblower.jpg,left,old,273,,,,,,,,
,,,,,,,,13,2021-05-04_10h34.56.135,premceCat2_ses-02_part-02_label-phase2,2020.2.10,Win32,60,,,,,right,2.164085,2,0.52037,,,,,,,,0,33,33,91,1,stimuli/objects/cuttingpliers02.jpg,right,new,235,,,,,,,,
,,,,,,,,13,2021-05-04_10h34.56.135,premceCat2_ses-02_part-02_label-phase2,2020.2.10,Win32,60,,,,,left,1.695975,4,0.870375,right,0.285735,0,0,0,0,1,,,,,,,,,,,,,,,,,
,,,,,,,,13,2021-05-04_10h34.56.135,premceCat2_ses-02_part-02_label-phase2,2020.2.10,Win32,60,,,,,,,,,,,,,,,,0,34,34,25,1,stimuli/objects/jar02.jpg,left,old,169,,,,,,,,
,,,,,,,,13,2021-05-04_10h34.56.135,premceCat2_ses-02_part-02_label-phase2,2020.2.10,Win32,60,,,,,right,1.398245,2,0.456305,,,,,,,,0,35,35,82,1,stimuli/objects/shopvac.jpg,right,new,226,,,,,,,,
,,,,,,,,13,2021-05-04_10h34.56.135,premceCat2_ses-02_part-02_label-phase2,2020.2.10,Win32,60,,,,,left,2.5023,1,0.223015,left,1.519095,0,0,0,0,1,,,,,,,,,,,,,,,,,
,,,,,,,,13,2021-05-04_10h34.56.135,premceCat2_ses-02_part-02_label-phase2,2020.2.10,Win32,60,,,,,,,,,,,,,,,,0,36,36,70,1,stimuli/objects/shovel01.jpg,right,new,214,,,,,,,,
,,,,,,,,13,2021-05-04_10h34.56.135,premceCat2_ses-02_part-02_label-phase2,2020.2.10,Win32,60,,,,,right,1.0175,3,0.24134,,,,,,,,0,37,37,102,1,stimuli/objects/beachumbrella01.jpg,right,new,246,,,,,,,,
,,,,,,,,13,2021-05-04_10h34.56.135,premceCat2_ses-02_part-02_label-phase2,2020.2.10,Win32,60,,,,,right,1.082395,4,0.235085,,,,,,,,0,38,38,59,1,stimuli/objects/speedball.jpg,right,new,203,,,,,,,,
,,,,,,,,13,2021-05-04_10h34.56.135,premceCat2_ses-02_part-02_label-phase2,2020.2.10,Win32,60,,,,,right,0.96169,4,0.456445,,,,,,,,0,39,39,111,1,stimuli/objects/diaperbag.jpg,right,new,255,,,,,,,,
,,,,,,,,13,2021-05-04_10h34.56.135,premceCat2_ses-02_part-02_label-phase2,2020.2.10,Win32,60,,,,,right,0.78401,4,0.27739,,,,,,,,0,40,40,24,1,stimuli/objects/monitor.jpg,right,new,168,,,,,,,,
,,,,,,,,13,2021-05-04_10h34.56.135,premceCat2_ses-02_part-02_label-phase2,2020.2.10,Win32,60,,,,,right,0.84014,2,1.30708,,,,,,,,0,41,41,136,1,stimuli/objects/bikepump01.jpg,left,old,280,,,,,,,,
,,,,,,,,13,2021-05-04_10h34.56.135,premceCat2_ses-02_part-02_label-phase2,2020.2.10,Win32,60,,,,,right,1.1639,2,0.97545,,,,,,,,0,42,42,49,1,stimuli/objects/cakeplatter.jpg,right,new,193,,,,,,,,
,,,,,,,,13,2021-05-04_10h34.56.135,premceCat2_ses-02_part-02_label-phase2,2020.2.10,Win32,60,,,,,left,1.436135,1,0.58626,left,1.518455,0,0,0,0,1,,,,,,,,,,,,,,,,,
,,,,,,,,13,2021-05-04_10h34.56.135,premceCat2_ses-02_part-02_label-phase2,2020.2.10,Win32,60,,,,,,,,,,,,,,,,0,43,43,27,1,stimuli/objects/hedgeshears.jpg,left,old,171,,,,,,,,
,,,,,,,,13,2021-05-04_10h34.56.135,premceCat2_ses-02_part-02_label-phase2,2020.2.10,Win32,60,,,,,left,1.083795,3,0.817435,left,0.38625,0,0,0,0,1,,,,,,,,,,,,,,,,,
,,,,,,,,13,2021-05-04_10h34.56.135,premceCat2_ses-02_part-02_label-phase2,2020.2.10,Win32,60,,,,,,,,,,,,,,,,0,44,44,50,1,stimuli/objects/iceskate.jpg,left,old,194,,,,,,,,
,,,,,,,,13,2021-05-04_10h34.56.135,premceCat2_ses-02_part-02_label-phase2,2020.2.10,Win32,60,,,,,left,1.82593,1,0.604,left,1.28743,0,0,0,0,1,,,,,,,,,,,,,,,,,
,,,,,,,,13,2021-05-04_10h34.56.135,premceCat2_ses-02_part-02_label-phase2,2020.2.10,Win32,60,,,,,,,,,,,,,,,,0,45,45,132,1,stimuli/objects/wirestripper.jpg,right,new,276,,,,,,,,
,,,,,,,,13,2021-05-04_10h34.56.135,premceCat2_ses-02_part-02_label-phase2,2020.2.10,Win32,60,,,,,right,1.618215,2,0.64041,,,,,,,,0,46,46,114,1,stimuli/objects/drinkshaker.jpg,right,new,258,,,,,,,,
,,,,,,,,13,2021-05-04_10h34.56.135,premceCat2_ses-02_part-02_label-phase2,2020.2.10,Win32,60,,,,,right,1.049525,4,1.63758,,,,,,,,0,47,47,65,1,stimuli/objects/jigsaw.jpg,left,old,209,,,,,,,,
,,,,,,,,13,2021-05-04_10h34.56.135,premceCat2_ses-02_part-02_label-phase2,2020.2.10,Win32,60,,,,,left,1.804325,2,0.344985,left,1.23396,0,0,0,0,1,,,,,,,,,,,,,,,,,
,,,,,,,,13,2021-05-04_10h34.56.135,premceCat2_ses-02_part-02_label-phase2,2020.2.10,Win32,60,,,,,,,,,,,,,,,,0,48,48,22,1,stimuli/objects/hoe.jpg,left,old,166,,,,,,,,
,,,,,,,,13,2021-05-04_10h34.56.135,premceCat2_ses-02_part-02_label-phase2,2020.2.10,Win32,60,,,,,right,1.21635,2,0.67228,,,,,,,,0,49,49,18,1,stimuli/objects/cellphone.jpg,left,old,162,,,,,,,,
,,,,,,,,13,2021-05-04_10h34.56.135,premceCat2_ses-02_part-02_label-phase2,2020.2.10,Win32,60,,,,,right,2.152975,3,0.37766,,,,,,,,0,50,50,66,1,stimuli/objects/heatpump.jpg,right,new,210,,,,,,,,
,,,,,,,,13,2021-05-04_10h34.56.135,premceCat2_ses-02_part-02_label-phase2,2020.2.10,Win32,60,,,,,right,1.716915,2,0.386145,,,,,,,,0,51,51,142,1,stimuli/objects/needlenosepliers01.jpg,right,new,286,,,,,,,,
,,,,,,,,13,2021-05-04_10h34.56.135,premceCat2_ses-02_part-02_label-phase2,2020.2.10,Win32,60,,,,,left,0.979405,4,0.78492,left,1.13584,0,0,0,0,1,,,,,,,,,,,,,,,,,
,,,,,,,,13,2021-05-04_10h34.56.135,premceCat2_ses-02_part-02_label-phase2,2020.2.10,Win32,60,,,,,,,,,,,,,,,,0,52,52,43,1,stimuli/objects/bowrake.jpg,right,new,187,,,,,,,,
,,,,,,,,13,2021-05-04_10h34.56.135,premceCat2_ses-02_part-02_label-phase2,2020.2.10,Win32,60,,,,,right,1.0034,4,0.45584,,,,,,,,0,53,53,6,1,stimuli/objects/solderingwire.jpg,right,new,150,,,,,,,,
,,,,,,,,13,2021-05-04_10h34.56.135,premceCat2_ses-02_part-02_label-phase2,2020.2.10,Win32,60,,,,,right,1.01113,4,0.26976,,,,,,,,0,54,54,133,1,stimuli/objects/birdie.jpg,right,new,277,,,,,,,,
,,,,,,,,13,2021-05-04_10h34.56.135,premceCat2_ses-02_part-02_label-phase2,2020.2.10,Win32,60,,,,,right,1.71379,2,0.51897,,,,,,,,0,55,55,13,1,stimuli/objects/jumpercables.jpg,left,old,157,,,,,,,,
,,,,,,,,13,2021-05-04_10h34.56.135,premceCat2_ses-02_part-02_label-phase2,2020.2.10,Win32,60,,,,,right,1.288025,2,0.43957,,,,,,,,0,56,56,88,1,stimuli/objects/kiddiepool.jpg,left,old,232,,,,,,,,
,,,,,,,,13,2021-05-04_10h34.56.135,premceCat2_ses-02_part-02_label-phase2,2020.2.10,Win32,60,,,,,left,1.11832,4,0.8724,right,1.433425,0,0,0,0,1,,,,,,,,,,,,,,,,,
,,,,,,,,13,2021-05-04_10h34.56.135,premceCat2_ses-02_part-02_label-phase2,2020.2.10,Win32,60,,,,,,,,,,,,,,,,0,57,57,105,1,stimuli/objects/gasburner.jpg,left,old,249,,,,,,,,
,,,,,,,,13,2021-05-04_10h34.56.135,premceCat2_ses-02_part-02_label-phase2,2020.2.10,Win32,60,,,,,left,1.63365,2,0.30313,right,1.19102,0,0,0,0,1,,,,,,,,,,,,,,,,,
,,,,,,,,13,2021-05-04_10h34.56.135,premceCat2_ses-02_part-02_label-phase2,2020.2.10,Win32,60,,,,,,,,,,,,,,,,0,58,58,47,1,stimuli/objects/plate01b.jpg,right,new,191,,,,,,,,
,,,,,,,,13,2021-05-04_10h34.56.135,premceCat2_ses-02_part-02_label-phase2,2020.2.10,Win32,60,,,,,left,1.214215,3,0.9679,left,3.03685,0,0,0,0,1,,,,,,,,,,,,,,,,,
,,,,,,,,13,2021-05-04_10h34.56.135,premceCat2_ses-02_part-02_label-phase2,2020.2.10,Win32,60,,,,,,,,,,,,,,,,0,59,59,8,1,stimuli/objects/wheel01.jpg,left,old,152,,,,,,,,
,,,,,,,,13,2021-05-04_10h34.56.135,premceCat2_ses-02_part-02_label-phase2,2020.2.10,Win32,60,,,,,left,2.29851,3,0.368145,right,0.883585,0,0,0,0,1,,,,,,,,,,,,,,,,,
,,,,,,,,13,2021-05-04_10h34.56.135,premceCat2_ses-02_part-02_label-phase2,2020.2.10,Win32,60,,,,,,,,,,,,,,,,0,60,60,76,1,stimuli/objects/extensioncord.jpg,left,old,220,,,,,,,,
,,,,,,,,13,2021-05-04_10h34.56.135,premceCat2_ses-02_part-02_label-phase2,2020.2.10,Win32,60,,,,,left,1.6026,3,1.004835,left,0.26009,0,0,0,0,1,,,,,,,,,,,,,,,,,
,,,,,,,,13,2021-05-04_10h34.56.135,premceCat2_ses-02_part-02_label-phase2,2020.2.10,Win32,60,,,,,,,,,,,,,,,,0,61,61,20,1,stimuli/objects/bikehelmet.jpg,left,old,164,,,,,,,,
,,,,,,,,13,2021-05-04_10h34.56.135,premceCat2_ses-02_part-02_label-phase2,2020.2.10,Win32,60,,,,,left,0.96291,4,0.80919,left,0.272855,0,0,0,0,1,,,,,,,,,,,,,,,,,
,,,,,,,,13,2021-05-04_10h34.56.135,premceCat2_ses-02_part-02_label-phase2,2020.2.10,Win32,60,,,,,,,,,,,,,,,,0,62,62,90,1,stimuli/objects/toyhockeystick01.jpg,left,old,234,,,,,,,,
,,,,,,,,13,2021-05-04_10h34.56.135,premceCat2_ses-02_part-02_label-phase2,2020.2.10,Win32,60,,,,,right,1.33495,2,0.574995,,,,,,,,0,63,63,51,1,stimuli/objects/cheeseknife01.jpg,right,new,195,,,,,,,,
,,,,,,,,13,2021-05-04_10h34.56.135,premceCat2_ses-02_part-02_label-phase2,2020.2.10,Win32,60,,,,,left,1.028635,4,0.88904,left,0.236755,0,0,0,0,1,,,,,,,,,,,,,,,,,
,,,,,,,,13,2021-05-04_10h34.56.135,premceCat2_ses-02_part-02_label-phase2,2020.2.10,Win32,60,,,,,,,,,,,,,,,,0,64,64,74,1,stimuli/objects/shinpad.jpg,left,old,218,,,,,,,,
,,,,,,,,13,2021-05-04_10h34.56.135,premceCat2_ses-02_part-02_label-phase2,2020.2.10,Win32,60,,,,,left,1.045385,4,0.826635,right,0.30062,0,0,0,0,1,,,,,,,,,,,,,,,,,
,,,,,,,,13,2021-05-04_10h34.56.135,premceCat2_ses-02_part-02_label-phase2,2020.2.10,Win32,60,,,,,,,,,,,,,,,,0,65,65,29,1,stimuli/objects/coffeemachine.jpg,left,old,173,,,,,,,,
,,,,,,,,13,2021-05-04_10h34.56.135,premceCat2_ses-02_part-02_label-phase2,2020.2.10,Win32,60,,,,,right,1.578865,2,1.135995,,,,,,,,0,66,66,78,1,stimuli/objects/lightswitch01.jpg,right,new,222,,,,,,,,
,,,,,,,,13,2021-05-04_10h34.56.135,premceCat2_ses-02_part-02_label-phase2,2020.2.10,Win32,60,,,,,right,1.583335,2,0.338255,,,,,,,,0,67,67,16,1,stimuli/objects/bottleopener01.jpg,right,new,160,,,,,,,,
,,,,,,,,13,2021-05-04_10h34.56.135,premceCat2_ses-02_part-02_label-phase2,2020.2.10,Win32,60,,,,,left,1.15258,3,0.32138,left,0.23454,0,0,0,0,1,,,,,,,,,,,,,,,,,
,,,,,,,,13,2021-05-04_10h34.56.135,premceCat2_ses-02_part-02_label-phase2,2020.2.10,Win32,60,,,,,,,,,,,,,,,,0,68,68,34,1,stimuli/objects/kneepad01c.jpg,right,new,178,,,,,,,,
,,,,,,,,13,2021-05-04_10h34.56.135,premceCat2_ses-02_part-02_label-phase2,2020.2.10,Win32,60,,,,,left,0.91301,4,0.288975,left,1.48803,0,0,0,0,1,,,,,,,,,,,,,,,,,
,,,,,,,,13,2021-05-04_10h34.56.135,premceCat2_ses-02_part-02_label-phase2,2020.2.10,Win32,60,,,,,,,,,,,,,,,,0,69,69,113,1,stimuli/objects/gluetube.jpg,left,old,257,,,,,,,,
,,,,,,,,13,2021-05-04_10h34.56.135,premceCat2_ses-02_part-02_label-phase2,2020.2.10,Win32,60,,,,,right,1.19717,2,1.46849,,,,,,,,0,70,70,107,1,stimuli/objects/dolly01.jpg,right,new,251,,,,,,,,
,,,,,,,,13,2021-05-04_10h34.56.135,premceCat2_ses-02_part-02_label-phase2,2020.2.10,Win32,60,,,,,right,1.4475,2,0.3957,,,,,,,,0,71,71,46,1,stimuli/objects/waterbottleholder.jpg,right,new,190,,,,,,,,
,,,,,,,,13,2021-05-04_10h34.56.135,premceCat2_ses-02_part-02_label-phase2,2020.2.10,Win32,60,,,,,left,0.894085,4,1.103035,left,4.25819,0,0,0,0,1,,,,,,,,,,,,,,,,,
,,,,,,,,13,2021-05-04_10h34.56.135,premceCat2_ses-02_part-02_label-phase2,2020.2.10,Win32,60,,,,,,,,,,,,,,,,0,72,72,45,1,stimuli/objects/ellipticalmachine.jpg,left,old,189,,,,,,,,
,,,,,,,,13,2021-05-04_10h34.56.135,premceCat2_ses-02_part-02_label-phase2,2020.2.10,Win32,60,,,,,left,5.858095,2,0.64321,right,0.80468,0,0,0,0,1,,,,,,,,,,,,,,,,,
,,,,,,,,13,2021-05-04_10h34.56.135,premceCat2_ses-02_part-02_label-phase2,2020.2.10,Win32,60,,,,,,,,,,,,,,,,0,73,73,140,1,stimuli/objects/wineglass01.jpg,right,new,284,,,,,,,,
,,,,,,,,13,2021-05-04_10h34.56.135,premceCat2_ses-02_part-02_label-phase2,2020.2.10,Win32,60,,,,,right,9.7902,2,1.08741,,,,,,,,0,74,74,94,1,stimuli/objects/file.jpg,right,new,238,,,,,,,,
,,,,,,,,13,2021-05-04_10h34.56.135,premceCat2_ses-02_part-02_label-phase2,2020.2.10,Win32,60,,,,,right,0.82482,2,0.68663,,,,,,,,0,75,75,125,1,stimuli/objects/pliers02b.jpg,left,old,269,,,,,,,,
,,,,,,,,13,2021-05-04_10h34.56.135,premceCat2_ses-02_part-02_label-phase2,2020.2.10,Win32,60,,,,,left,2.52563,4,0.535425,left,0.53649,0,0,0,0,1,,,,,,,,,,,,,,,,,
,,,,,,,,13,2021-05-04_10h34.56.135,premceCat2_ses-02_part-02_label-phase2,2020.2.10,Win32,60,,,,,,,,,,,,,,,,0,76,76,31,1,stimuli/objects/hockeygoaliemask.jpg,left,old,175,,,,,,,,
,,,,,,,,13,2021-05-04_10h34.56.135,premceCat2_ses-02_part-02_label-phase2,2020.2.10,Win32,60,,,,,right,1.00292,2,0.50734,,,,,,,,0,77,77,3,1,stimuli/objects/boxingglove01.jpg,right,new,147,,,,,,,,
,,,,,,,,13,2021-05-04_10h34.56.135,premceCat2_ses-02_part-02_label-phase2,2020.2.10,Win32,60,,,,,left,1.783905,2,0.555105,left,1.4042,0,0,0,0,1,,,,,,,,,,,,,,,,,
,,,,,,,,13,2021-05-04_10h34.56.135,premceCat2_ses-02_part-02_label-phase2,2020.2.10,Win32,60,,,,,,,,,,,,,,,,0,78,78,109,1,stimuli/objects/waterbottle03.jpg,left,old,253,,,,,,,,
,,,,,,,,13,2021-05-04_10h34.56.135,premceCat2_ses-02_part-02_label-phase2,2020.2.10,Win32,60,,,,,right,0.940045,3,0.786715,,,,,,,,0,79,79,10,1,stimuli/objects/skihelmet01.jpg,left,old,154,,,,,,,,
,,,,,,,,13,2021-05-04_10h34.56.135,premceCat2_ses-02_part-02_label-phase2,2020.2.10,Win32,60,,,,,right,1.018675,4,0.65672,,,,,,,,0,80,80,60,1,stimuli/objects/kite.jpg,right,new,204,,,,,,,,
,,,,,,,,13,2021-05-04_10h34.56.135,premceCat2_ses-02_part-02_label-phase2,2020.2.10,Win32,60,,,,,left,1.13867,3,0.75364,right,1.505875,0,0,0,0,1,,,,,,,,,,,,,,,,,
,,,,,,,,13,2021-05-04_10h34.56.135,premceCat2_ses-02_part-02_label-phase2,2020.2.10,Win32,60,,,,,,,,,,,,,,,,0,81,81,1,1,stimuli/objects/photocopier.jpg,left,old,145,,,,,,,,
,,,,,,,,13,2021-05-04_10h34.56.135,premceCat2_ses-02_part-02_label-phase2,2020.2.10,Win32,60,,,,,right,0.862365,4,0.411445,,,,,,,,0,82,82,127,1,stimuli/objects/skigoggles01.jpg,right,new,271,,,,,,,,
,,,,,,,,13,2021-05-04_10h34.56.135,premceCat2_ses-02_part-02_label-phase2,2020.2.10,Win32,60,,,,,right,0.95021,2,0.49951,,,,,,,,0,83,83,39,1,stimuli/objects/wafflemaker.jpg,right,new,183,,,,,,,,
,,,,,,,,13,2021-05-04_10h34.56.135,premceCat2_ses-02_part-02_label-phase2,2020.2.10,Win32,60,,,,,right,1.11341,4,0.235145,,,,,,,,0,84,84,0,1,stimuli/objects/smokedetector02.jpg,right,new,144,,,,,,,,
,,,,,,,,13,2021-05-04_10h34.56.135,premceCat2_ses-02_part-02_label-phase2,2020.2.10,Win32,60,,,,,left,1.23612,4,0.27128,left,1.96222,0,0,0,0,1,,,,,,,,,,,,,,,,,
,,,,,,,,13,2021-05-04_10h34.56.135,premceCat2_ses-02_part-02_label-phase2,2020.2.10,Win32,60,,,,,,,,,,,,,,,,0,85,85,33,1,stimuli/objects/gps.jpg,left,old,177,,,,,,,,
,,,,,,,,13,2021-05-04_10h34.56.135,premceCat2_ses-02_part-02_label-phase2,2020.2.10,Win32,60,,,,,left,1.45104,4,0.322275,right,0.39948,0,0,0,0,1,,,,,,,,,,,,,,,,,
,,,,,,,,13,2021-05-04_10h34.56.135,premceCat2_ses-02_part-02_label-phase2,2020.2.10,Win32,60,,,,,,,,,,,,,,,,0,86,86,38,1,stimuli/objects/espressomachine.jpg,left,old,182,,,,,,,,
,,,,,,,,13,2021-05-04_10h34.56.135,premceCat2_ses-02_part-02_label-phase2,2020.2.10,Win32,60,,,,,right,2.529405,2,0.321105,,,,,,,,0,87,87,119,1,stimuli/objects/cleaver01.jpg,left,old,263,,,,,,,,
,,,,,,,,13,2021-05-04_10h34.56.135,premceCat2_ses-02_part-02_label-phase2,2020.2.10,Win32,60,,,,,left,1.07831,4,0.104675,left,0.332595,0,0,0,0,1,,,,,,,,,,,,,,,,,
,,,,,,,,13,2021-05-04_10h34.56.135,premceCat2_ses-02_part-02_label-phase2,2020.2.10,Win32,60,,,,,,,,,,,,,,,,0,88,88,71,1,stimuli/objects/handgripper.jpg,left,old,215,,,,,,,,
,,,,,,,,13,2021-05-04_10h34.56.135,premceCat2_ses-02_part-02_label-phase2,2020.2.10,Win32,60,,,,,right,1.550185,3,1.245025,,,,,,,,0,89,89,98,1,stimuli/objects/cameracase01a.jpg,right,new,242,,,,,,,,
,,,,,,,,13,2021-05-04_10h34.56.135,premceCat2_ses-02_part-02_label-phase2,2020.2.10,Win32,60,,,,,right,5.38477,2,0.653495,,,,,,,,0,90,90,15,1,stimuli/objects/computermouse06.jpg,right,new,159,,,,,,,,
,,,,,,,,13,2021-05-04_10h34.56.135,premceCat2_ses-02_part-02_label-phase2,2020.2.10,Win32,60,,,,,left,1.185875,4,1.37529,left,0.28682,0,0,0,0,1,,,,,,,,,,,,,,,,,
,,,,,,,,13,2021-05-04_10h34.56.135,premceCat2_ses-02_part-02_label-phase2,2020.2.10,Win32,60,,,,,,,,,,,,,,,,0,91,91,73,1,stimuli/objects/propanetank01.jpg,left,old,217,,,,,,,,
,,,,,,,,13,2021-05-04_10h34.56.135,premceCat2_ses-02_part-02_label-phase2,2020.2.10,Win32,60,,,,,right,1.15369,1,1.169845,,,,,,,,0,92,92,124,1,stimuli/objects/basketball01.jpg,right,new,268,,,,,,,,
,,,,,,,,13,2021-05-04_10h34.56.135,premceCat2_ses-02_part-02_label-phase2,2020.2.10,Win32,60,,,,,right,3.368495,4,0.52081,,,,,,,,0,93,93,99,1,stimuli/objects/floodlight.jpg,right,new,243,,,,,,,,
,,,,,,,,13,2021-05-04_10h34.56.135,premceCat2_ses-02_part-02_label-phase2,2020.2.10,Win32,60,,,,,left,1.664805,3,1.54125,left,0.788395,0,0,0,0,1,,,,,,,,,,,,,,,,,
,,,,,,,,13,2021-05-04_10h34.56.135,premceCat2_ses-02_part-02_label-phase2,2020.2.10,Win32,60,,,,,,,,,,,,,,,,0,94,94,79,1,stimuli/objects/bikewheel.jpg,left,old,223,,,,,,,,
,,,,,,,,13,2021-05-04_10h34.56.135,premceCat2_ses-02_part-02_label-phase2,2020.2.10,Win32,60,,,,,right,1.818895,3,0.47472,,,,,,,,0,95,95,28,1,stimuli/objects/spoon01.jpg,left,old,172,,,,,,,,
,,,,,,,,13,2021-05-04_10h34.56.135,premceCat2_ses-02_part-02_label-phase2,2020.2.10,Win32,60,,,,,left,0.93426,3,2.336805,left,0.58114,0,0,0,0,1,,,,,,,,,,,,,,,,,
,,,,,,,,13,2021-05-04_10h34.56.135,premceCat2_ses-02_part-02_label-phase2,2020.2.10,Win32,60,,,,,,,,,,,,,,,,0,96,96,57,1,stimuli/objects/soccerball.jpg,left,old,201,,,,,,,,
,,,,,,,,13,2021-05-04_10h34.56.135,premceCat2_ses-02_part-02_label-phase2,2020.2.10,Win32,60,,,,,right,1.14889,2,0.419205,,,,,,,,0,97,97,63,1,stimuli/objects/woodenspoon.jpg,left,old,207,,,,,,,,
,,,,,,,,13,2021-05-04_10h34.56.135,premceCat2_ses-02_part-02_label-phase2,2020.2.10,Win32,60,,,,,right,1.01582,2,0.244415,,,,,,,,0,98,98,110,1,stimuli/objects/hockeygoaliepad.jpg,left,old,254,,,,,,,,
,,,,,,,,13,2021-05-04_10h34.56.135,premceCat2_ses-02_part-02_label-phase2,2020.2.10,Win32,60,,,,,right,1.04754,3,0.30461,,,,,,,,0,99,99,68,1,stimuli/objects/ladle02a.jpg,right,new,212,,,,,,,,
,,,,,,,,13,2021-05-04_10h34.56.135,premceCat2_ses-02_part-02_label-phase2,2020.2.10,Win32,60,,,,,right,0.92174,4,0.739915,,,,,,,,0,100,100,2,1,stimuli/objects/wetfloorsign.jpg,right,new,146,,,,,,,,
,,,,,,,,13,2021-05-04_10h34.56.135,premceCat2_ses-02_part-02_label-phase2,2020.2.10,Win32,60,,,,,left,1.02738,3,0.904675,right,1.28287,0,0,0,0,1,,,,,,,,,,,,,,,,,
,,,,,,,,13,2021-05-04_10h34.56.135,premceCat2_ses-02_part-02_label-phase2,2020.2.10,Win32,60,,,,,,,,,,,,,,,,0,101,101,80,1,stimuli/objects/barbecue03.jpg,right,new,224,,,,,,,,
,,,,,,,,13,2021-05-04_10h34.56.135,premceCat2_ses-02_part-02_label-phase2,2020.2.10,Win32,60,,,,,right,1.06969,2,0.477605,,,,,,,,0,102,102,97,1,stimuli/objects/coffeepot03a.jpg,left,old,241,,,,,,,,
,,,,,,,,13,2021-05-04_10h34.56.135,premceCat2_ses-02_part-02_label-phase2,2020.2.10,Win32,60,,,,,left,1.960065,2,0.34488,right,0.96197,0,0,0,0,1,,,,,,,,,,,,,,,,,
,,,,,,,,13,2021-05-04_10h34.56.135,premceCat2_ses-02_part-02_label-phase2,2020.2.10,Win32,60,,,,,,,,,,,,,,,,0,103,103,32,1,stimuli/objects/pastaspoon.jpg,left,old,176,,,,,,,,
,,,,,,,,13,2021-05-04_10h34.56.135,premceCat2_ses-02_part-02_label-phase2,2020.2.10,Win32,60,,,,,left,3.56574,2,0.28157,right,0.77122,0,0,0,0,1,,,,,,,,,,,,,,,,,
,,,,,,,,13,2021-05-04_10h34.56.135,premceCat2_ses-02_part-02_label-phase2,2020.2.10,Win32,60,,,,,,,,,,,,,,,,0,104,104,53,1,stimuli/objects/tape02a.jpg,left,old,197,,,,,,,,
,,,,,,,,13,2021-05-04_10h34.56.135,premceCat2_ses-02_part-02_label-phase2,2020.2.10,Win32,60,,,,,left,1.74787,3,0.52578,left,0.25509,0,0,0,0,1,,,,,,,,,,,,,,,,,
,,,,,,,,13,2021-05-04_10h34.56.135,premceCat2_ses-02_part-02_label-phase2,2020.2.10,Win32,60,,,,,,,,,,,,,,,,0,105,105,89,1,stimuli/objects/saladspinner.jpg,left,old,233,,,,,,,,
,,,,,,,,13,2021-05-04_10h34.56.135,premceCat2_ses-02_part-02_label-phase2,2020.2.10,Win32,60,,,,,right,1.24081,4,1.29974,,,,,,,,0,106,106,48,1,stimuli/objects/eggslicer.jpg,right,new,192,,,,,,,,
,,,,,,,,13,2021-05-04_10h34.56.135,premceCat2_ses-02_part-02_label-phase2,2020.2.10,Win32,60,,,,,right,0.846205,4,0.218105,,,,,,,,0,107,107,52,1,stimuli/objects/antenna.jpg,left,old,196,,,,,,,,
,,,,,,,,13,2021-05-04_10h34.56.135,premceCat2_ses-02_part-02_label-phase2,2020.2.10,Win32,60,,,,,right,1.02687,4,0.25667,,,,,,,,0,108,108,40,1,stimuli/objects/tablesaw.jpg,right,new,184,,,,,,,,
,,,,,,,,13,2021-05-04_10h34.56.135,premceCat2_ses-02_part-02_label-phase2,2020.2.10,Win32,60,,,,,left,1.332425,2,0.851965,left,4.77168,0,0,0,0,1,,,,,,,,,,,,,,,,,
,,,,,,,,13,2021-05-04_10h34.56.135,premceCat2_ses-02_part-02_label-phase2,2020.2.10,Win32,60,,,,,,,,,,,,,,,,0,109,109,118,1,stimuli/objects/gardenshears01a.jpg,left,old,262,,,,,,,,
,,,,,,,,13,2021-05-04_10h34.56.135,premceCat2_ses-02_part-02_label-phase2,2020.2.10,Win32,60,,,,,right,1.0841,3,0.518575,,,,,,,,0,110,110,87,1,stimuli/objects/wiicontroller.jpg,right,new,231,,,,,,,,
,,,,,,,,13,2021-05-04_10h34.56.135,premceCat2_ses-02_part-02_label-phase2,2020.2.10,Win32,60,,,,,left,1.12593,4,0.471115,left,3.484975,0,0,0,0,1,,,,,,,,,,,,,,,,,
,,,,,,,,13,2021-05-04_10h34.56.135,premceCat2_ses-02_part-02_label-phase2,2020.2.10,Win32,60,,,,,,,,,,,,,,,,0,111,111,62,1,stimuli/objects/hourglass.jpg,left,old,206,,,,,,,,
,,,,,,,,13,2021-05-04_10h34.56.135,premceCat2_ses-02_part-02_label-phase2,2020.2.10,Win32,60,,,,,right,1.274075,3,0.289275,,,,,,,,0,112,112,138,1,stimuli/objects/beermug01a.jpg,right,new,282,,,,,,,,
,,,,,,,,13,2021-05-04_10h34.56.135,premceCat2_ses-02_part-02_label-phase2,2020.2.10,Win32,60,,,,,right,0.87538,3,0.336555,,,,,,,,0,113,113,116,1,stimuli/objects/lockingplier.jpg,right,new,260,,,,,,,,
,,,,,,,,13,2021-05-04_10h34.56.135,premceCat2_ses-02_part-02_label-phase2,2020.2.10,Win32,60,,,,,left,0.810315,4,0.269375,left,0.27541,0,0,0,0,1,,,,,,,,,,,,,,,,,
,,,,,,,,13,2021-05-04_10h34.56.135,premceCat2_ses-02_part-02_label-phase2,2020.2.10,Win32,60,,,,,,,,,,,,,,,,0,114,114,92,1,stimuli/objects/leafrake.jpg,left,old,236,,,,,,,,
,,,,,,,,13,2021-05-04_10h34.56.135,premceCat2_ses-02_part-02_label-phase2,2020.2.10,Win32,60,,,,,left,1.19519,3,0.33632,left,0.29758,0,0,0,0,1,,,,,,,,,,,,,,,,,
,,,,,,,,13,2021-05-04_10h34.56.135,premceCat2_ses-02_part-02_label-phase2,2020.2.10,Win32,60,,,,,,,,,,,,,,,,0,115,115,58,1,stimuli/objects/swimgoggles.jpg,left,old,202,,,,,,,,
,,,,,,,,13,2021-05-04_10h34.56.135,premceCat2_ses-02_part-02_label-phase2,2020.2.10,Win32,60,,,,,left,0.971565,3,0.934775,left,0.18433,0,0,0,0,1,,,,,,,,,,,,,,,,,
,,,,,,,,13,2021-05-04_10h34.56.135,premceCat2_ses-02_part-02_label-phase2,2020.2.10,Win32,60,,,,,,,,,,,,,,,,0,116,116,103,1,stimuli/objects/swissarmyknife01a.jpg,right,new,247,,,,,,,,
,,,,,,,,13,2021-05-04_10h34.56.135,premceCat2_ses-02_part-02_label-phase2,2020.2.10,Win32,60,,,,,right,0.827955,4,0.251135,,,,,,,,0,117,117,120,1,stimuli/objects/tent.jpg,right,new,264,,,,,,,,
,,,,,,,,13,2021-05-04_10h34.56.135,premceCat2_ses-02_part-02_label-phase2,2020.2.10,Win32,60,,,,,right,2.378025,2,0.403425,,,,,,,,0,118,118,17,1,stimuli/objects/bikelock.jpg,left,old,161,,,,,,,,
,,,,,,,,13,2021-05-04_10h34.56.135,premceCat2_ses-02_part-02_label-phase2,2020.2.10,Win32,60,,,,,left,1.504295,3,1.80386,right,1.286005,0,0,0,0,1,,,,,,,,,,,,,,,,,
,,,,,,,,13,2021-05-04_10h34.56.135,premceCat2_ses-02_part-02_label-phase2,2020.2.10,Win32,60,,,,,,,,,,,,,,,,0,119,119,139,1,stimuli/objects/toothpick02.jpg,left,old,283,,,,,,,,
,,,,,,,,13,2021-05-04_10h34.56.135,premceCat2_ses-02_part-02_label-phase2,2020.2.10,Win32,60,,,,,left,1.722835,2,4.60965,left,2.329905,0,0,0,0,1,,,,,,,,,,,,,,,,,
,,,,,,,,13,2021-05-04_10h34.56.135,premceCat2_ses-02_part-02_label-phase2,2020.2.10,Win32,60,,,,,,,,,,,,,,,,0,120,120,100,1,stimuli/objects/wheelbarrow01.jpg,left,old,244,,,,,,,,
,,,,,,,,13,2021-05-04_10h34.56.135,premceCat2_ses-02_part-02_label-phase2,2020.2.10,Win32,60,,,,,right,6.036515,2,0.24189,,,,,,,,0,121,121,108,1,stimuli/objects/crocodileclips.jpg,left,old,252,,,,,,,,
,,,,,,,,13,2021-05-04_10h34.56.135,premceCat2_ses-02_part-02_label-phase2,2020.2.10,Win32,60,,,,,right,4.884305,2,0.33399,,,,,,,,0,122,122,83,1,stimuli/objects/icecubetray01a.jpg,right,new,227,,,,,,,,
,,,,,,,,13,2021-05-04_10h34.56.135,premceCat2_ses-02_part-02_label-phase2,2020.2.10,Win32,60,,,,,right,1.921395,2,1.619195,,,,,,,,0,123,123,67,1,stimuli/objects/filmroll.jpg,left,old,211,,,,,,,,
,,,,,,,,13,2021-05-04_10h34.56.135,premceCat2_ses-02_part-02_label-phase2,2020.2.10,Win32,60,,,,,right,1.18186,3,0.284865,,,,,,,,0,124,124,130,1,stimuli/objects/fan.jpg,left,old,274,,,,,,,,
,,,,,,,,13,2021-05-04_10h34.56.135,premceCat2_ses-02_part-02_label-phase2,2020.2.10,Win32,60,,,,,left,1.46742,3,0.535775,left,0.836215,0,0,0,0,1,,,,,,,,,,,,,,,,,
,,,,,,,,13,2021-05-04_10h34.56.135,premceCat2_ses-02_part-02_label-phase2,2020.2.10,Win32,60,,,,,,,,,,,,,,,,0,125,125,122,1,stimuli/objects/hockeystick.jpg,right,new,266,,,,,,,,
,,,,,,,,13,2021-05-04_10h34.56.135,premceCat2_ses-02_part-02_label-phase2,2020.2.10,Win32,60,,,,,left,0.932805,4,0.60489,left,0.400705,0,0,0,0,1,,,,,,,,,,,,,,,,,
,,,,,,,,13,2021-05-04_10h34.56.135,premceCat2_ses-02_part-02_label-phase2,2020.2.10,Win32,60,,,,,,,,,,,,,,,,0,126,126,93,1,stimuli/objects/rope03.jpg,left,old,237,,,,,,,,
,,,,,,,,13,2021-05-04_10h34.56.135,premceCat2_ses-02_part-02_label-phase2,2020.2.10,Win32,60,,,,,left,1.017555,4,0.291895,left,2.243135,0,0,0,0,1,,,,,,,,,,,,,,,,,
,,,,,,,,13,2021-05-04_10h34.56.135,premceCat2_ses-02_part-02_label-phase2,2020.2.10,Win32,60,,,,,,,,,,,,,,,,0,127,127,134,1,stimuli/objects/chandelier.jpg,left,old,278,,,,,,,,
,,,,,,,,13,2021-05-04_10h34.56.135,premceCat2_ses-02_part-02_label-phase2,2020.2.10,Win32,60,,,,,left,1.349435,2,0.749475,left,1.69428,0,0,0,0,1,,,,,,,,,,,,,,,,,
,,,,,,,,13,2021-05-04_10h34.56.135,premceCat2_ses-02_part-02_label-phase2,2020.2.10,Win32,60,,,,,,,,,,,,,,,,0,128,128,75,1,stimuli/objects/hammer01.jpg,left,old,219,,,,,,,,
,,,,,,,,13,2021-05-04_10h34.56.135,premceCat2_ses-02_part-02_label-phase2,2020.2.10,Win32,60,,,,,left,2.390315,2,0.47334,left,0.243455,0,0,0,0,1,,,,,,,,,,,,,,,,,
,,,,,,,,13,2021-05-04_10h34.56.135,premceCat2_ses-02_part-02_label-phase2,2020.2.10,Win32,60,,,,,,,,,,,,,,,,0,129,129,64,1,stimuli/objects/volleyball.jpg,left,old,208,,,,,,,,
,,,,,,,,13,2021-05-04_10h34.56.135,premceCat2_ses-02_part-02_label-phase2,2020.2.10,Win32,60,,,,,left,1.162515,4,0.74455,right,0.224825,0,0,0,0,1,,,,,,,,,,,,,,,,,
,,,,,,,,13,2021-05-04_10h34.56.135,premceCat2_ses-02_part-02_label-phase2,2020.2.10,Win32,60,,,,,,,,,,,,,,,,0,130,130,115,1,stimuli/objects/towel01.jpg,left,old,259,,,,,,,,
,,,,,,,,13,2021-05-04_10h34.56.135,premceCat2_ses-02_part-02_label-phase2,2020.2.10,Win32,60,,,,,right,2.09861,1,0.36716,,,,,,,,0,131,131,12,1,stimuli/objects/fanheater.jpg,right,new,156,,,,,,,,
,,,,,,,,13,2021-05-04_10h34.56.135,premceCat2_ses-02_part-02_label-phase2,2020.2.10,Win32,60,,,,,right,0.870025,4,0.476345,,,,,,,,0,132,132,121,1,stimuli/objects/parachute.jpg,right,new,265,,,,,,,,
,,,,,,,,13,2021-05-04_10h34.56.135,premceCat2_ses-02_part-02_label-phase2,2020.2.10,Win32,60,,,,,left,0.95993,4,1.21956,left,4.30997,0,0,0,0,1,,,,,,,,,,,,,,,,,
,,,,,,,,13,2021-05-04_10h34.56.135,premceCat2_ses-02_part-02_label-phase2,2020.2.10,Win32,60,,,,,,,,,,,,,,,,0,133,133,117,1,stimuli/objects/podium.jpg,left,old,261,,,,,,,,
,,,,,,,,13,2021-05-04_10h34.56.135,premceCat2_ses-02_part-02_label-phase2,2020.2.10,Win32,60,,,,,left,4.112465,2,0.80204,left,2.566795,0,0,0,0,1,,,,,,,,,,,,,,,,,
,,,,,,,,13,2021-05-04_10h34.56.135,premceCat2_ses-02_part-02_label-phase2,2020.2.10,Win32,60,,,,,,,,,,,,,,,,0,134,134,61,1,stimuli/objects/wateringcan.jpg,left,old,205,,,,,,,,
,,,,,,,,13,2021-05-04_10h34.56.135,premceCat2_ses-02_part-02_label-phase2,2020.2.10,Win32,60,,,,,left,1.315635,3,0.45693,left,0.28254,0,0,0,0,1,,,,,,,,,,,,,,,,,
,,,,,,,,13,2021-05-04_10h34.56.135,premceCat2_ses-02_part-02_label-phase2,2020.2.10,Win32,60,,,,,,,,,,,,,,,,0,135,135,14,1,stimuli/objects/boatmotor.jpg,left,old,158,,,,,,,,
,,,,,,,,13,2021-05-04_10h34.56.135,premceCat2_ses-02_part-02_label-phase2,2020.2.10,Win32,60,,,,,right,0.984315,2,0.42076,,,,,,,,0,136,136,56,1,stimuli/objects/tupperware03a.jpg,left,old,200,,,,,,,,
,,,,,,,,13,2021-05-04_10h34.56.135,premceCat2_ses-02_part-02_label-phase2,2020.2.10,Win32,60,,,,,right,1.035045,3,0.222235,,,,,,,,0,137,137,42,1,stimuli/objects/tennisracket.jpg,right,new,186,,,,,,,,
,,,,,,,,13,2021-05-04_10h34.56.135,premceCat2_ses-02_part-02_label-phase2,2020.2.10,Win32,60,,,,,right,0.829965,2,0.9851,,,,,,,,0,138,138,85,1,stimuli/objects/usbcable01a.jpg,left,old,229,,,,,,,,
,,,,,,,,13,2021-05-04_10h34.56.135,premceCat2_ses-02_part-02_label-phase2,2020.2.10,Win32,60,,,,,right,2.948405,1,0.422775,,,,,,,,0,139,139,86,1,stimuli/objects/trampoline.jpg,right,new,230,,,,,,,,
,,,,,,,,13,2021-05-04_10h34.56.135,premceCat2_ses-02_part-02_label-phase2,2020.2.10,Win32,60,,,,,left,1.165955,4,0.66075,right,0.224445,0,0,0,0,1,,,,,,,,,,,,,,,,,
,,,,,,,,13,2021-05-04_10h34.56.135,premceCat2_ses-02_part-02_label-phase2,2020.2.10,Win32,60,,,,,,,,,,,,,,,,0,140,140,7,1,stimuli/objects/dishrack.jpg,left,old,151,,,,,,,,
,,,,,,,,13,2021-05-04_10h34.56.135,premceCat2_ses-02_part-02_label-phase2,2020.2.10,Win32,60,,,,,left,1.14463,2,0.27908,left,2.586715,0,0,0,0,1,,,,,,,,,,,,,,,,,
,,,,,,,,13,2021-05-04_10h34.56.135,premceCat2_ses-02_part-02_label-phase2,2020.2.10,Win32,60,,,,,,,,,,,,,,,,0,141,141,72,1,stimuli/objects/axe01.jpg,left,old,216,,,,,,,,
,,,,,,,,13,2021-05-04_10h34.56.135,premceCat2_ses-02_part-02_label-phase2,2020.2.10,Win32,60,,,,,left,1.819355,3,0.72136,right,3.037085,0,0,0,0,1,,,,,,,,,,,,,,,,,
,,,,,,,,13,2021-05-04_10h34.56.135,premceCat2_ses-02_part-02_label-phase2,2020.2.10,Win32,60,,,,,,,,,,,,,,,,0,142,142,104,1,stimuli/objects/lamp04a.jpg,left,old,248,,,,,,,,
,,,,,,,,13,2021-05-04_10h34.56.135,premceCat2_ses-02_part-02_label-phase2,2020.2.10,Win32,60,,,,,,,,,,,,,,,,,,,,,,,,,space,3.84403,0,1,1,1,1,condition_files/ImagesforRecog2_2.csv
