myownaccuracy,respcorrs,minNrPractice,considerNrTrials,Instr_resp.keys,Instr_resp.rt,key_resp_2.keys,key_resp_2.rt,Instruction_loop.thisRepN,Instruction_loop.thisTrialN,Instruction_loop.thisN,Instruction_loop.thisIndex,Instruction_loop.ran,slides,participant,date,expName,psychopyVersion,OS,frameRate,key_resp_3.keys,key_resp_3.rt,taskGoresp.keys,taskGoresp.rt,pract_resp.keys,pract_resp.corr,myownaccuracyCORR,pract_loop.thisRepN,pract_loop.thisTrialN,pract_loop.thisN,pract_loop.thisIndex,pract_loop.ran,first_character,second_character,Cue,left_categ,centleft_categ,centright_categ,right_categ,corr_ans,trial_cond,switch_cond,cuedCharacter,corrCat,image,pract_resp.rt,rep_resp.keys,rep_resp.rt,repeat_pract.thisRepN,repeat_pract.thisTrialN,repeat_pract.thisN,repeat_pract.thisIndex,repeat_pract.ran,task_resp.keys,task_resp.corr,task_resp.rt,task_loop.thisRepN,task_loop.thisTrialN,task_loop.thisN,task_loop.thisIndex,task_loop.ran,obj_category
[],[],10,10,space,34.535525,space,15.79376,0,0,0,0,1,stimuli/slide1.png,13,2021-05-03_10h04.13.306,premceCat2_ses-01_part-01_label-phase1,2020.2.9,Win32,60,,,,,,,,,,,,,,,,,,,,,,,,,,,,,,,,,,,,,,,,,,
,,,,,,space,27.638675,0,1,1,1,1,stimuli/slide2.png,13,2021-05-03_10h04.13.306,premceCat2_ses-01_part-01_label-phase1,2020.2.9,Win32,60,,,,,,,,,,,,,,,,,,,,,,,,,,,,,,,,,,,,,,,,,,
,,,,,,space,11.006585,0,2,2,2,1,stimuli/slide3.png,13,2021-05-03_10h04.13.306,premceCat2_ses-01_part-01_label-phase1,2020.2.9,Win32,60,,,,,,,,,,,,,,,,,,,,,,,,,,,,,,,,,,,,,,,,,,
,,,,,,space,12.00559,0,3,3,3,1,stimuli/slide4.png,13,2021-05-03_10h04.13.306,premceCat2_ses-01_part-01_label-phase1,2020.2.9,Win32,60,,,,,,,,,,,,,,,,,,,,,,,,,,,,,,,,,,,,,,,,,,
,,,,,,space,12.207305,0,4,4,4,1,stimuli/slide5.png,13,2021-05-03_10h04.13.306,premceCat2_ses-01_part-01_label-phase1,2020.2.9,Win32,60,,,,,,,,,,,,,,,,,,,,,,,,,,,,,,,,,,,,,,,,,,
,,,,,,space,8.131335,0,5,5,5,1,stimuli/slide6.png,13,2021-05-03_10h04.13.306,premceCat2_ses-01_part-01_label-phase1,2020.2.9,Win32,60,,,,,,,,,,,,,,,,,,,,,,,,,,,,,,,,,,,,,,,,,,
0,[],,,,,,,,,,,,,13,2021-05-03_10h04.13.306,premceCat2_ses-01_part-01_label-phase1,2020.2.9,Win32,60,space,231.19701,space,49.87594,,0,0,0,0,0,0,1,stimuli/m1.jpg,stimuli/m4.jpg,2,stimuli/Stationary & school supply.png,stimuli/Vehicle.png,stimuli/Gamestoy & entertainment.png,stimuli/Clothing.png,4,1,0,stimuli/m4.jpg,Clothing,stimuli/objects/sneaker03b.jpg,,,,,,,,,,,,,,,,,
1,[0],,,,,,,,,,,,,13,2021-05-03_10h04.13.306,premceCat2_ses-01_part-01_label-phase1,2020.2.9,Win32,60,,,,,1,1,0,0,1,1,1,1,stimuli/m1.jpg,stimuli/m4.jpg,2,stimuli/Stationary & school supply.png,stimuli/Clothing.png,stimuli/Vehicle.png,stimuli/Gamestoy & entertainment.png,1,0,0,stimuli/m4.jpg,Stationary & school supply,stimuli/objects/paperclip01b.jpg,0.842555,,,,,,,,,,,,,,,,
0,[0],,,,,,,,,,,,,13,2021-05-03_10h04.13.306,premceCat2_ses-01_part-01_label-phase1,2020.2.9,Win32,60,,,,,4,0,0,0,2,2,2,1,stimuli/m1.jpg,stimuli/m4.jpg,1,stimuli/Vehicle.png,stimuli/Stationary & school supply.png,stimuli/Clothing.png,stimuli/Gamestoy & entertainment.png,2,1,0,stimuli/m1.jpg,Stationary & school supply,stimuli/objects/protractor.jpg,2.43863,,,,,,,,,,,,,,,,
0,"[0,0]",,,,,,,,,,,,,13,2021-05-03_10h04.13.306,premceCat2_ses-01_part-01_label-phase1,2020.2.9,Win32,60,,,,,3,0,0,0,3,3,3,1,stimuli/m4.jpg,stimuli/m1.jpg,1,stimuli/Stationary & school supply.png,stimuli/Vehicle.png,stimuli/Gamestoy & entertainment.png,stimuli/Clothing.png,4,1,0,stimuli/m4.jpg,Clothing,stimuli/objects/hikingshoe01.jpg,1.86234,,,,,,,,,,,,,,,,
0,"[0,0,0]",,,,,,,,,,,,,13,2021-05-03_10h04.13.306,premceCat2_ses-01_part-01_label-phase1,2020.2.9,Win32,60,,,,,1,0,0,0,4,4,4,1,stimuli/m1.jpg,stimuli/m4.jpg,1,stimuli/Clothing.png,stimuli/Stationary & school supply.png,stimuli/Vehicle.png,stimuli/Gamestoy & entertainment.png,2,1,0,stimuli/m1.jpg,Stationary & school supply,stimuli/objects/book01b.jpg,1.70716,,,,,,,,,,,,,,,,
0,"[0,0,0,0]",,,,,,,,,,,,,13,2021-05-03_10h04.13.306,premceCat2_ses-01_part-01_label-phase1,2020.2.9,Win32,60,,,,,3,0,0,0,5,5,5,1,stimuli/m4.jpg,stimuli/m1.jpg,1,stimuli/Stationary & school supply.png,stimuli/Gamestoy & entertainment.png,stimuli/Vehicle.png,stimuli/Clothing.png,4,1,0,stimuli/m4.jpg,Clothing,stimuli/objects/shoelace.jpg,2.27792,,,,,,,,,,,,,,,,
0,"[0,0,0,0,0]",,,,,,,,,,,,,13,2021-05-03_10h04.13.306,premceCat2_ses-01_part-01_label-phase1,2020.2.9,Win32,60,,,,,3,0,0,0,6,6,6,1,stimuli/m1.jpg,stimuli/m4.jpg,2,stimuli/Clothing.png,stimuli/Stationary & school supply.png,stimuli/Vehicle.png,stimuli/Gamestoy & entertainment.png,1,1,0,stimuli/m4.jpg,Clothing,stimuli/objects/moccasin.jpg,2.833215,,,,,,,,,,,,,,,,
1,"[0,0,0,0,0,0]",,,,,,,,,,,,,13,2021-05-03_10h04.13.306,premceCat2_ses-01_part-01_label-phase1,2020.2.9,Win32,60,,,,,2,1,1,0,7,7,7,1,stimuli/m1.jpg,stimuli/m4.jpg,2,stimuli/Gamestoy & entertainment.png,stimuli/Clothing.png,stimuli/Stationary & school supply.png,stimuli/Vehicle.png,2,1,0,stimuli/m4.jpg,Clothing,stimuli/objects/waders.jpg,1.159185,,,,,,,,,,,,,,,,
0,"[0,0,0,0,0,0,1]",,,,,,,,,,,,,13,2021-05-03_10h04.13.306,premceCat2_ses-01_part-01_label-phase1,2020.2.9,Win32,60,,,,,4,0,0,0,8,8,8,1,stimuli/m4.jpg,stimuli/m1.jpg,2,stimuli/Vehicle.png,stimuli/Gamestoy & entertainment.png,stimuli/Stationary & school supply.png,stimuli/Clothing.png,3,1,0,stimuli/m1.jpg,Stationary & school supply,stimuli/objects/eraser.jpg,1.717055,,,,,,,,,,,,,,,,
1,"[0,0,0,0,0,0,1,0]",,,,,,,,,,,,,13,2021-05-03_10h04.13.306,premceCat2_ses-01_part-01_label-phase1,2020.2.9,Win32,60,,,,,1,1,1,0,9,9,9,1,stimuli/m4.jpg,stimuli/m1.jpg,2,stimuli/Stationary & school supply.png,stimuli/Vehicle.png,stimuli/Clothing.png,stimuli/Gamestoy & entertainment.png,1,1,0,stimuli/m1.jpg,Stationary & school supply,stimuli/objects/fountainpen.jpg,2.09038,,,,,,,,,,,,,,,,
1,"[0,0,0,0,0,0,1,0,1]",,,,,,,,,,,,,13,2021-05-03_10h04.13.306,premceCat2_ses-01_part-01_label-phase1,2020.2.9,Win32,60,,,,,2,1,1,0,10,10,10,1,stimuli/m4.jpg,stimuli/m1.jpg,1,stimuli/Vehicle.png,stimuli/Clothing.png,stimuli/Stationary & school supply.png,stimuli/Gamestoy & entertainment.png,2,1,0,stimuli/m4.jpg,Clothing,stimuli/objects/visor.jpg,1.284325,,,,,,,,,,,,,,,,
1,"[0,0,0,0,0,0,1,0,1,1]",,,,,,,,,,,,,13,2021-05-03_10h04.13.306,premceCat2_ses-01_part-01_label-phase1,2020.2.9,Win32,60,,,,,2,1,1,0,11,11,11,1,stimuli/m4.jpg,stimuli/m1.jpg,1,stimuli/Stationary & school supply.png,stimuli/Clothing.png,stimuli/Vehicle.png,stimuli/Gamestoy & entertainment.png,2,1,0,stimuli/m4.jpg,Clothing,stimuli/objects/mitten04.jpg,0.96289,,,,,,,,,,,,,,,,
1,"[0,0,0,0,0,0,1,0,1,1,1]",,,,,,,,,,,,,13,2021-05-03_10h04.13.306,premceCat2_ses-01_part-01_label-phase1,2020.2.9,Win32,60,,,,,2,1,1,0,12,12,12,1,stimuli/m4.jpg,stimuli/m1.jpg,2,stimuli/Clothing.png,stimuli/Stationary & school supply.png,stimuli/Vehicle.png,stimuli/Gamestoy & entertainment.png,2,1,0,stimuli/m1.jpg,Stationary & school supply,stimuli/objects/notebook03a.jpg,1.13361,,,,,,,,,,,,,,,,
0,"[0,0,0,0,0,0,1,0,1,1,1,1]",,,,,,,,,,,,,13,2021-05-03_10h04.13.306,premceCat2_ses-01_part-01_label-phase1,2020.2.9,Win32,60,,,,,2,0,1,0,13,13,13,1,stimuli/m4.jpg,stimuli/m1.jpg,1,stimuli/Vehicle.png,stimuli/Clothing.png,stimuli/Gamestoy & entertainment.png,stimuli/Stationary & school supply.png,1,0,0,stimuli/m4.jpg,Vehicle,stimuli/objects/locomotive.jpg,0.831825,,,,,,,,,,,,,,,,
1,"[0,0,0,0,0,0,1,0,1,1,1,1]",,,,,,,,,,,,,13,2021-05-03_10h04.13.306,premceCat2_ses-01_part-01_label-phase1,2020.2.9,Win32,60,,,,,2,1,1,0,14,14,14,1,stimuli/m4.jpg,stimuli/m1.jpg,2,stimuli/Gamestoy & entertainment.png,stimuli/Stationary & school supply.png,stimuli/Vehicle.png,stimuli/Clothing.png,2,1,0,stimuli/m1.jpg,Stationary & school supply,stimuli/objects/mechanicalpencil02.jpg,0.969445,,,,,,,,,,,,,,,,
0,"[0,0,0,0,0,0,1,0,1,1,1,1,1]",,,,,,,,,,,,,13,2021-05-03_10h04.13.306,premceCat2_ses-01_part-01_label-phase1,2020.2.9,Win32,60,,,,,4,0,1,0,15,15,15,1,stimuli/m4.jpg,stimuli/m1.jpg,1,stimuli/Gamestoy & entertainment.png,stimuli/Clothing.png,stimuli/Stationary & school supply.png,stimuli/Vehicle.png,1,0,0,stimuli/m4.jpg,Gamestoy & entertainment,stimuli/objects/rattle.jpg,2.006035,,,,,,,,,,,,,,,,
1,"[0,0,0,0,0,0,1,0,1,1,1,1,1]",,,,,,,,,,,,,13,2021-05-03_10h04.13.306,premceCat2_ses-01_part-01_label-phase1,2020.2.9,Win32,60,,,,,4,1,1,0,16,16,16,1,stimuli/m4.jpg,stimuli/m1.jpg,1,stimuli/Gamestoy & entertainment.png,stimuli/Vehicle.png,stimuli/Stationary & school supply.png,stimuli/Clothing.png,4,1,0,stimuli/m4.jpg,Clothing,stimuli/objects/sheriffhat.jpg,2.98669,,,,,,,,,,,,,,,,
1,"[0,0,0,0,0,0,1,0,1,1,1,1,1,1]",,,,,,,,,,,,,13,2021-05-03_10h04.13.306,premceCat2_ses-01_part-01_label-phase1,2020.2.9,Win32,60,,,,,2,1,1,0,17,17,17,1,stimuli/m4.jpg,stimuli/m1.jpg,1,stimuli/Gamestoy & entertainment.png,stimuli/Clothing.png,stimuli/Vehicle.png,stimuli/Stationary & school supply.png,2,1,0,stimuli/m4.jpg,Clothing,stimuli/objects/jeans01.jpg,3.319295,,,,,,,,,,,,,,,,
,,,,,,,,,,,,,,13,2021-05-03_10h04.13.306,premceCat2_ses-01_part-01_label-phase1,2020.2.9,Win32,60,,,,,,,,,,,,,,,,,,,,,,,,,,,n,64.67486,0,0,0,0,1,,,,,,,,,
0,"[0,0,0,0,0,0,1,0,1,1,1,1,1,1,1]",,,,,,,,,,,,,13,2021-05-03_10h04.13.306,premceCat2_ses-01_part-01_label-phase1,2020.2.9,Win32,60,,,,,,,0,,,,,,stimuli/m2.jpg,stimuli/m5.jpg,2,stimuli/Outdoor activity & sport item.png,stimuli/Hand labour tool & accessory.png,stimuli/Electronic device & accessory.png,stimuli/Kitchen & utensil.png,2,1,1,stimuli/m5.jpg,,stimuli/objects/jumpingjack.jpg,,,,,,,,,1,0,1.704285,0,0,0,0,1,Hand labour tool & accessory
0,"[0,0,0,0,0,0,1,0,1,1,1,1,1,1,1,0]",,,,,,,,,,,,,13,2021-05-03_10h04.13.306,premceCat2_ses-01_part-01_label-phase1,2020.2.9,Win32,60,,,,,,,0,,,,,,stimuli/m2.jpg,stimuli/m5.jpg,2,stimuli/Hand labour tool & accessory.png,stimuli/Outdoor activity & sport item.png,stimuli/Electronic device & accessory.png,stimuli/Kitchen & utensil.png,1,1,1,stimuli/m5.jpg,,stimuli/objects/boxcutter03a.jpg,,,,,,,,,4,0,2.21108,0,1,1,1,1,Hand labour tool & accessory
0,"[0,0,0,0,0,0,1,0,1,1,1,1,1,1,1,0,0]",,,,,,,,,,,,,13,2021-05-03_10h04.13.306,premceCat2_ses-01_part-01_label-phase1,2020.2.9,Win32,60,,,,,,,0,,,,,,stimuli/m2.jpg,stimuli/m5.jpg,1,stimuli/Hand labour tool & accessory.png,stimuli/Kitchen & utensil.png,stimuli/Electronic device & accessory.png,stimuli/Outdoor activity & sport item.png,2,0,1,stimuli/m2.jpg,,stimuli/objects/huntingknife.jpg,,,,,,,,,4,0,2.64515,0,2,2,2,1,Kitchen & utensil
0,"[0,0,0,0,0,0,1,0,1,1,1,1,1,1,1,0,0]",,,,,,,,,,,,,13,2021-05-03_10h04.13.306,premceCat2_ses-01_part-01_label-phase1,2020.2.9,Win32,60,,,,,,,0,,,,,,stimuli/m5.jpg,stimuli/m2.jpg,2,stimuli/Kitchen & utensil.png,stimuli/Electronic device & accessory.png,stimuli/Hand labour tool & accessory.png,stimuli/Outdoor activity & sport item.png,4,1,1,stimuli/m2.jpg,,stimuli/objects/footballhelmet.jpg,,,,,,,,,2,0,3.173345,0,3,3,3,1,Outdoor activity & sport item
0,"[0,0,0,0,0,0,1,0,1,1,1,1,1,1,1,0,0,0]",,,,,,,,,,,,,13,2021-05-03_10h04.13.306,premceCat2_ses-01_part-01_label-phase1,2020.2.9,Win32,60,,,,,,,0,,,,,,stimuli/m5.jpg,stimuli/m2.jpg,1,stimuli/Outdoor activity & sport item.png,stimuli/Hand labour tool & accessory.png,stimuli/Kitchen & utensil.png,stimuli/Electronic device & accessory.png,2,1,1,stimuli/m5.jpg,,stimuli/objects/handrake01a.jpg,,,,,,,,,3,0,1.96597,0,4,4,4,1,Hand labour tool & accessory
0,"[0,0,0,0,0,0,1,0,1,1,1,1,1,1,1,0,0,0,0]",,,,,,,,,,,,,13,2021-05-03_10h04.13.306,premceCat2_ses-01_part-01_label-phase1,2020.2.9,Win32,60,,,,,,,0,,,,,,stimuli/m2.jpg,stimuli/m5.jpg,1,stimuli/Outdoor activity & sport item.png,stimuli/Electronic device & accessory.png,stimuli/Hand labour tool & accessory.png,stimuli/Kitchen & utensil.png,1,1,1,stimuli/m2.jpg,,stimuli/objects/crosscountryski.jpg,,,,,,,,,,0,,0,5,5,5,1,Outdoor activity & sport item
0,"[0,0,0,0,0,0,1,0,1,1,1,1,1,1,1,0,0,0,0,0]",,,,,,,,,,,,,13,2021-05-03_10h04.13.306,premceCat2_ses-01_part-01_label-phase1,2020.2.9,Win32,60,,,,,,,0,,,,,,stimuli/m5.jpg,stimuli/m2.jpg,2,stimuli/Hand labour tool & accessory.png,stimuli/Electronic device & accessory.png,stimuli/Outdoor activity & sport item.png,stimuli/Kitchen & utensil.png,2,0,1,stimuli/m2.jpg,,stimuli/objects/television.jpg,,,,,,,,,1,0,3.756005,0,6,6,6,1,Electronic device & accessory
1,"[0,0,0,0,0,0,1,0,1,1,1,1,1,1,1,0,0,0,0,0]",,,,,,,,,,,,,13,2021-05-03_10h04.13.306,premceCat2_ses-01_part-01_label-phase1,2020.2.9,Win32,60,,,,,,,1,,,,,,stimuli/m5.jpg,stimuli/m2.jpg,2,stimuli/Kitchen & utensil.png,stimuli/Outdoor activity & sport item.png,stimuli/Hand labour tool & accessory.png,stimuli/Electronic device & accessory.png,2,1,1,stimuli/m2.jpg,,stimuli/objects/hose.jpg,,,,,,,,,2,1,2.693175,0,7,7,7,1,Outdoor activity & sport item
1,"[0,0,0,0,0,0,1,0,1,1,1,1,1,1,1,0,0,0,0,0,1]",,,,,,,,,,,,,13,2021-05-03_10h04.13.306,premceCat2_ses-01_part-01_label-phase1,2020.2.9,Win32,60,,,,,,,1,,,,,,stimuli/m2.jpg,stimuli/m5.jpg,2,stimuli/Hand labour tool & accessory.png,stimuli/Electronic device & accessory.png,stimuli/Kitchen & utensil.png,stimuli/Outdoor activity & sport item.png,1,1,1,stimuli/m5.jpg,,stimuli/objects/solderingiron.jpg,,,,,,,,,1,1,2.789835,0,8,8,8,1,Hand labour tool & accessory
0,"[0,0,0,0,0,0,1,0,1,1,1,1,1,1,1,0,0,0,0,0,1,1]",,,,,,,,,,,,,13,2021-05-03_10h04.13.306,premceCat2_ses-01_part-01_label-phase1,2020.2.9,Win32,60,,,,,,,0,,,,,,stimuli/m2.jpg,stimuli/m5.jpg,2,stimuli/Electronic device & accessory.png,stimuli/Kitchen & utensil.png,stimuli/Hand labour tool & accessory.png,stimuli/Outdoor activity & sport item.png,3,1,1,stimuli/m5.jpg,,stimuli/objects/gavel.jpg,,,,,,,,,1,0,3.55458,0,9,9,9,1,Hand labour tool & accessory
1,"[0,0,0,0,0,0,1,0,1,1,1,1,1,1,1,0,0,0,0,0,1,1,0]",,,,,,,,,,,,,13,2021-05-03_10h04.13.306,premceCat2_ses-01_part-01_label-phase1,2020.2.9,Win32,60,,,,,,,1,,,,,,stimuli/m5.jpg,stimuli/m2.jpg,1,stimuli/Kitchen & utensil.png,stimuli/Electronic device & accessory.png,stimuli/Outdoor activity & sport item.png,stimuli/Hand labour tool & accessory.png,4,1,1,stimuli/m5.jpg,,stimuli/objects/boxcutter03a.jpg,,,,,,,,,4,1,3.58791,0,10,10,10,1,Hand labour tool & accessory
1,"[0,0,0,0,0,0,1,0,1,1,1,1,1,1,1,0,0,0,0,0,1,1,0,1]",,,,,,,,,,,,,13,2021-05-03_10h04.13.306,premceCat2_ses-01_part-01_label-phase1,2020.2.9,Win32,60,,,,,,,1,,,,,,stimuli/m2.jpg,stimuli/m5.jpg,2,stimuli/Electronic device & accessory.png,stimuli/Hand labour tool & accessory.png,stimuli/Outdoor activity & sport item.png,stimuli/Kitchen & utensil.png,1,0,1,stimuli/m5.jpg,,stimuli/objects/walkietalkie.jpg,,,,,,,,,1,1,1.634275,0,11,11,11,1,Electronic device & accessory
0,"[0,0,0,0,0,0,1,0,1,1,1,1,1,1,1,0,0,0,0,0,1,1,0,1]",,,,,,,,,,,,,13,2021-05-03_10h04.13.306,premceCat2_ses-01_part-01_label-phase1,2020.2.9,Win32,60,,,,,,,1,,,,,,stimuli/m2.jpg,stimuli/m5.jpg,1,stimuli/Kitchen & utensil.png,stimuli/Electronic device & accessory.png,stimuli/Hand labour tool & accessory.png,stimuli/Outdoor activity & sport item.png,1,0,1,stimuli/m2.jpg,,stimuli/objects/coffeemaker.jpg,,,,,,,,,2,0,2.949165,0,12,12,12,1,Kitchen & utensil
0,"[0,0,0,0,0,0,1,0,1,1,1,1,1,1,1,0,0,0,0,0,1,1,0,1]",,,,,,,,,,,,,13,2021-05-03_10h04.13.306,premceCat2_ses-01_part-01_label-phase1,2020.2.9,Win32,60,,,,,,,0,,,,,,stimuli/m5.jpg,stimuli/m2.jpg,2,stimuli/Outdoor activity & sport item.png,stimuli/Electronic device & accessory.png,stimuli/Kitchen & utensil.png,stimuli/Hand labour tool & accessory.png,1,1,1,stimuli/m2.jpg,,stimuli/objects/bicycle.jpg,,,,,,,,,3,0,1.34083,0,13,13,13,1,Outdoor activity & sport item
0,"[0,0,0,0,0,0,1,0,1,1,1,1,1,1,1,0,0,0,0,0,1,1,0,1,0]",,,,,,,,,,,,,13,2021-05-03_10h04.13.306,premceCat2_ses-01_part-01_label-phase1,2020.2.9,Win32,60,,,,,,,0,,,,,,stimuli/m2.jpg,stimuli/m5.jpg,1,stimuli/Kitchen & utensil.png,stimuli/Outdoor activity & sport item.png,stimuli/Electronic device & accessory.png,stimuli/Hand labour tool & accessory.png,2,1,1,stimuli/m2.jpg,,stimuli/objects/punchingbag.jpg,,,,,,,,,4,0,3.15719,0,14,14,14,1,Outdoor activity & sport item
0,"[0,0,0,0,0,0,1,0,1,1,1,1,1,1,1,0,0,0,0,0,1,1,0,1,0,0]",,,,,,,,,,,,,13,2021-05-03_10h04.13.306,premceCat2_ses-01_part-01_label-phase1,2020.2.9,Win32,60,,,,,,,0,,,,,,stimuli/m5.jpg,stimuli/m2.jpg,1,stimuli/Electronic device & accessory.png,stimuli/Outdoor activity & sport item.png,stimuli/Hand labour tool & accessory.png,stimuli/Kitchen & utensil.png,2,0,1,stimuli/m5.jpg,,stimuli/objects/footballhelmet.jpg,,,,,,,,,1,0,2.391185,0,15,15,15,1,Outdoor activity & sport item
0,"[0,0,0,0,0,0,1,0,1,1,1,1,1,1,1,0,0,0,0,0,1,1,0,1,0,0]",,,,,,,,,,,,,13,2021-05-03_10h04.13.306,premceCat2_ses-01_part-01_label-phase1,2020.2.9,Win32,60,,,,,,,0,,,,,,stimuli/m5.jpg,stimuli/m2.jpg,1,stimuli/Kitchen & utensil.png,stimuli/Hand labour tool & accessory.png,stimuli/Electronic device & accessory.png,stimuli/Outdoor activity & sport item.png,4,0,1,stimuli/m5.jpg,,stimuli/objects/swing.jpg,,,,,,,,,2,0,2.72877,0,16,16,16,1,Outdoor activity & sport item
0,"[0,0,0,0,0,0,1,0,1,1,1,1,1,1,1,0,0,0,0,0,1,1,0,1,0,0]",,,,,,,,,,,,,13,2021-05-03_10h04.13.306,premceCat2_ses-01_part-01_label-phase1,2020.2.9,Win32,60,,,,,,,0,,,,,,stimuli/m2.jpg,stimuli/m5.jpg,2,stimuli/Hand labour tool & accessory.png,stimuli/Electronic device & accessory.png,stimuli/Outdoor activity & sport item.png,stimuli/Kitchen & utensil.png,1,1,1,stimuli/m5.jpg,,stimuli/objects/pitchfork.jpg,,,,,,,,,3,0,1.14119,0,17,17,17,1,Hand labour tool & accessory
1,"[0,0,0,0,0,0,1,0,1,1,1,1,1,1,1,0,0,0,0,0,1,1,0,1,0,0,0]",,,,,,,,,,,,,13,2021-05-03_10h04.13.306,premceCat2_ses-01_part-01_label-phase1,2020.2.9,Win32,60,,,,,,,1,,,,,,stimuli/m5.jpg,stimuli/m2.jpg,2,stimuli/Hand labour tool & accessory.png,stimuli/Outdoor activity & sport item.png,stimuli/Electronic device & accessory.png,stimuli/Kitchen & utensil.png,2,1,1,stimuli/m2.jpg,,stimuli/objects/bicycle.jpg,,,,,,,,,2,1,1.16485,0,18,18,18,1,Outdoor activity & sport item
0,"[0,0,0,0,0,0,1,0,1,1,1,1,1,1,1,0,0,0,0,0,1,1,0,1,0,0,0,1]",,,,,,,,,,,,,13,2021-05-03_10h04.13.306,premceCat2_ses-01_part-01_label-phase1,2020.2.9,Win32,60,,,,,,,1,,,,,,stimuli/m5.jpg,stimuli/m2.jpg,1,stimuli/Hand labour tool & accessory.png,stimuli/Outdoor activity & sport item.png,stimuli/Kitchen & utensil.png,stimuli/Electronic device & accessory.png,3,0,1,stimuli/m5.jpg,,stimuli/objects/freezer02.jpg,,,,,,,,,1,0,2.18912,0,19,19,19,1,Kitchen & utensil
0,"[0,0,0,0,0,0,1,0,1,1,1,1,1,1,1,0,0,0,0,0,1,1,0,1,0,0,0,1]",,,,,,,,,,,,,13,2021-05-03_10h04.13.306,premceCat2_ses-01_part-01_label-phase1,2020.2.9,Win32,60,,,,,,,1,,,,,,stimuli/m2.jpg,stimuli/m5.jpg,1,stimuli/Kitchen & utensil.png,stimuli/Hand labour tool & accessory.png,stimuli/Electronic device & accessory.png,stimuli/Outdoor activity & sport item.png,2,0,1,stimuli/m2.jpg,,stimuli/objects/handrake01a.jpg,,,,,,,,,4,0,1.983935,0,20,20,20,1,Hand labour tool & accessory
1,"[0,0,0,0,0,0,1,0,1,1,1,1,1,1,1,0,0,0,0,0,1,1,0,1,0,0,0,1]",,,,,,,,,,,,,13,2021-05-03_10h04.13.306,premceCat2_ses-01_part-01_label-phase1,2020.2.9,Win32,60,,,,,,,1,,,,,,stimuli/m5.jpg,stimuli/m2.jpg,1,stimuli/Outdoor activity & sport item.png,stimuli/Electronic device & accessory.png,stimuli/Hand labour tool & accessory.png,stimuli/Kitchen & utensil.png,3,1,1,stimuli/m5.jpg,,stimuli/objects/jumpingjack.jpg,,,,,,,,,3,1,2.760525,0,21,21,21,1,Hand labour tool & accessory
0,"[0,0,0,0,0,0,1,0,1,1,1,1,1,1,1,0,0,0,0,0,1,1,0,1,0,0,0,1,1]",,,,,,,,,,,,,13,2021-05-03_10h04.13.306,premceCat2_ses-01_part-01_label-phase1,2020.2.9,Win32,60,,,,,,,0,,,,,,stimuli/m5.jpg,stimuli/m2.jpg,2,stimuli/Electronic device & accessory.png,stimuli/Kitchen & utensil.png,stimuli/Hand labour tool & accessory.png,stimuli/Outdoor activity & sport item.png,4,1,1,stimuli/m2.jpg,,stimuli/objects/bicycle.jpg,,,,,,,,,2,0,2.23323,0,22,22,22,1,Outdoor activity & sport item
0,"[0,0,0,0,0,0,1,0,1,1,1,1,1,1,1,0,0,0,0,0,1,1,0,1,0,0,0,1,1,0]",,,,,,,,,,,,,13,2021-05-03_10h04.13.306,premceCat2_ses-01_part-01_label-phase1,2020.2.9,Win32,60,,,,,,,0,,,,,,stimuli/m5.jpg,stimuli/m2.jpg,1,stimuli/Hand labour tool & accessory.png,stimuli/Outdoor activity & sport item.png,stimuli/Electronic device & accessory.png,stimuli/Kitchen & utensil.png,1,1,1,stimuli/m5.jpg,,stimuli/objects/jumpingjack.jpg,,,,,,,,,,0,,0,23,23,23,1,Hand labour tool & accessory
1,"[0,0,0,0,0,0,1,0,1,1,1,1,1,1,1,0,0,0,0,0,1,1,0,1,0,0,0,1,1,0,0]",,,,,,,,,,,,,13,2021-05-03_10h04.13.306,premceCat2_ses-01_part-01_label-phase1,2020.2.9,Win32,60,,,,,,,0,,,,,,stimuli/m2.jpg,stimuli/m5.jpg,2,stimuli/Outdoor activity & sport item.png,stimuli/Electronic device & accessory.png,stimuli/Hand labour tool & accessory.png,stimuli/Kitchen & utensil.png,4,0,1,stimuli/m5.jpg,,stimuli/objects/jug.jpg,,,,,,,,,4,1,3.08363,0,24,24,24,1,Kitchen & utensil
0,"[0,0,0,0,0,0,1,0,1,1,1,1,1,1,1,0,0,0,0,0,1,1,0,1,0,0,0,1,1,0,0]",,,,,,,,,,,,,13,2021-05-03_10h04.13.306,premceCat2_ses-01_part-01_label-phase1,2020.2.9,Win32,60,,,,,,,0,,,,,,stimuli/m2.jpg,stimuli/m5.jpg,1,stimuli/Electronic device & accessory.png,stimuli/Hand labour tool & accessory.png,stimuli/Kitchen & utensil.png,stimuli/Outdoor activity & sport item.png,4,1,1,stimuli/m2.jpg,,stimuli/objects/racquetballracket.jpg,,,,,,,,,2,0,2.549585,0,25,25,25,1,Outdoor activity & sport item
0,"[0,0,0,0,0,0,1,0,1,1,1,1,1,1,1,0,0,0,0,0,1,1,0,1,0,0,0,1,1,0,0,0]",,,,,,,,,,,,,13,2021-05-03_10h04.13.306,premceCat2_ses-01_part-01_label-phase1,2020.2.9,Win32,60,,,,,,,0,,,,,,stimuli/m2.jpg,stimuli/m5.jpg,2,stimuli/Kitchen & utensil.png,stimuli/Outdoor activity & sport item.png,stimuli/Electronic device & accessory.png,stimuli/Hand labour tool & accessory.png,4,1,1,stimuli/m5.jpg,,stimuli/objects/jumpingjack.jpg,,,,,,,,,1,0,3.554835,0,26,26,26,1,Hand labour tool & accessory
0,"[0,0,0,0,0,0,1,0,1,1,1,1,1,1,1,0,0,0,0,0,1,1,0,1,0,0,0,1,1,0,0,0,0]",,,,,,,,,,,,,13,2021-05-03_10h04.13.306,premceCat2_ses-01_part-01_label-phase1,2020.2.9,Win32,60,,,,,,,0,,,,,,stimuli/m2.jpg,stimuli/m5.jpg,2,stimuli/Hand labour tool & accessory.png,stimuli/Kitchen & utensil.png,stimuli/Electronic device & accessory.png,stimuli/Outdoor activity & sport item.png,1,1,1,stimuli/m5.jpg,,stimuli/objects/hedgetrimmer.jpg,,,,,,,,,4,0,1.81981,0,27,27,27,1,Hand labour tool & accessory
0,"[0,0,0,0,0,0,1,0,1,1,1,1,1,1,1,0,0,0,0,0,1,1,0,1,0,0,0,1,1,0,0,0,0,0]",,,,,,,,,,,,,13,2021-05-03_10h04.13.306,premceCat2_ses-01_part-01_label-phase1,2020.2.9,Win32,60,,,,,,,0,,,,,,stimuli/m5.jpg,stimuli/m2.jpg,1,stimuli/Kitchen & utensil.png,stimuli/Outdoor activity & sport item.png,stimuli/Electronic device & accessory.png,stimuli/Hand labour tool & accessory.png,4,1,1,stimuli/m5.jpg,,stimuli/objects/gavel.jpg,,,,,,,,,2,0,1.46571,0,28,28,28,1,Hand labour tool & accessory
0,"[0,0,0,0,0,0,1,0,1,1,1,1,1,1,1,0,0,0,0,0,1,1,0,1,0,0,0,1,1,0,0,0,0,0,0]",,,,,,,,,,,,,13,2021-05-03_10h04.13.306,premceCat2_ses-01_part-01_label-phase1,2020.2.9,Win32,60,,,,,,,0,,,,,,stimuli/m2.jpg,stimuli/m5.jpg,2,stimuli/Electronic device & accessory.png,stimuli/Hand labour tool & accessory.png,stimuli/Kitchen & utensil.png,stimuli/Outdoor activity & sport item.png,2,1,1,stimuli/m5.jpg,,stimuli/objects/gavel.jpg,,,,,,,,,,0,,0,29,29,29,1,Hand labour tool & accessory
0,"[0,0,0,0,0,0,1,0,1,1,1,1,1,1,1,0,0,0,0,0,1,1,0,1,0,0,0,1,1,0,0,0,0,0,0,0]",,,,,,,,,,,,,13,2021-05-03_10h04.13.306,premceCat2_ses-01_part-01_label-phase1,2020.2.9,Win32,60,,,,,,,0,,,,,,stimuli/m2.jpg,stimuli/m5.jpg,1,stimuli/Kitchen & utensil.png,stimuli/Hand labour tool & accessory.png,stimuli/Outdoor activity & sport item.png,stimuli/Electronic device & accessory.png,3,1,1,stimuli/m2.jpg,,stimuli/objects/racquetballracket.jpg,,,,,,,,,2,0,2.292605,0,30,30,30,1,Outdoor activity & sport item
0,"[0,0,0,0,0,0,1,0,1,1,1,1,1,1,1,0,0,0,0,0,1,1,0,1,0,0,0,1,1,0,0,0,0,0,0,0,0]",,,,,,,,,,,,,13,2021-05-03_10h04.13.306,premceCat2_ses-01_part-01_label-phase1,2020.2.9,Win32,60,,,,,,,0,,,,,,stimuli/m5.jpg,stimuli/m2.jpg,2,stimuli/Kitchen & utensil.png,stimuli/Electronic device & accessory.png,stimuli/Outdoor activity & sport item.png,stimuli/Hand labour tool & accessory.png,3,1,1,stimuli/m2.jpg,,stimuli/objects/punchingbag.jpg,,,,,,,,,1,0,3.21551,0,31,31,31,1,Outdoor activity & sport item
0,"[0,0,0,0,0,0,1,0,1,1,1,1,1,1,1,0,0,0,0,0,1,1,0,1,0,0,0,1,1,0,0,0,0,0,0,0,0,0]",,,,,,,,,,,,,13,2021-05-03_10h04.13.306,premceCat2_ses-01_part-01_label-phase1,2020.2.9,Win32,60,,,,,,,0,,,,,,stimuli/m2.jpg,stimuli/m5.jpg,2,stimuli/Outdoor activity & sport item.png,stimuli/Hand labour tool & accessory.png,stimuli/Kitchen & utensil.png,stimuli/Electronic device & accessory.png,4,0,1,stimuli/m5.jpg,,stimuli/objects/camera01a.jpg,,,,,,,,,,0,,0,32,32,32,1,Electronic device & accessory
0,"[0,0,0,0,0,0,1,0,1,1,1,1,1,1,1,0,0,0,0,0,1,1,0,1,0,0,0,1,1,0,0,0,0,0,0,0,0,0]",,,,,,,,,,,,,13,2021-05-03_10h04.13.306,premceCat2_ses-01_part-01_label-phase1,2020.2.9,Win32,60,,,,,,,0,,,,,,stimuli/m2.jpg,stimuli/m5.jpg,2,stimuli/Outdoor activity & sport item.png,stimuli/Electronic device & accessory.png,stimuli/Kitchen & utensil.png,stimuli/Hand labour tool & accessory.png,4,1,1,stimuli/m5.jpg,,stimuli/objects/jumpingjack.jpg,,,,,,,,,1,0,2.05639,0,33,33,33,1,Hand labour tool & accessory
1,"[0,0,0,0,0,0,1,0,1,1,1,1,1,1,1,0,0,0,0,0,1,1,0,1,0,0,0,1,1,0,0,0,0,0,0,0,0,0,0]",,,,,,,,,,,,,13,2021-05-03_10h04.13.306,premceCat2_ses-01_part-01_label-phase1,2020.2.9,Win32,60,,,,,,,1,,,,,,stimuli/m2.jpg,stimuli/m5.jpg,1,stimuli/Electronic device & accessory.png,stimuli/Kitchen & utensil.png,stimuli/Outdoor activity & sport item.png,stimuli/Hand labour tool & accessory.png,3,1,1,stimuli/m2.jpg,,stimuli/objects/swing.jpg,,,,,,,,,3,1,3.189205,0,34,34,34,1,Outdoor activity & sport item
0,"[0,0,0,0,0,0,1,0,1,1,1,1,1,1,1,0,0,0,0,0,1,1,0,1,0,0,0,1,1,0,0,0,0,0,0,0,0,0,0,1]",,,,,,,,,,,,,13,2021-05-03_10h04.13.306,premceCat2_ses-01_part-01_label-phase1,2020.2.9,Win32,60,,,,,,,0,,,,,,stimuli/m5.jpg,stimuli/m2.jpg,1,stimuli/Hand labour tool & accessory.png,stimuli/Kitchen & utensil.png,stimuli/Outdoor activity & sport item.png,stimuli/Electronic device & accessory.png,1,1,1,stimuli/m5.jpg,,stimuli/objects/pitchfork.jpg,,,,,,,,,4,0,2.343095,0,35,35,35,1,Hand labour tool & accessory
0,"[0,0,0,0,0,0,1,0,1,1,1,1,1,1,1,0,0,0,0,0,1,1,0,1,0,0,0,1,1,0,0,0,0,0,0,0,0,0,0,1,0]",,,,,,,,,,,,,13,2021-05-03_10h04.13.306,premceCat2_ses-01_part-01_label-phase1,2020.2.9,Win32,60,,,,,,,0,,,,,,stimuli/m2.jpg,stimuli/m5.jpg,1,stimuli/Electronic device & accessory.png,stimuli/Outdoor activity & sport item.png,stimuli/Hand labour tool & accessory.png,stimuli/Kitchen & utensil.png,2,1,1,stimuli/m2.jpg,,stimuli/objects/racquetballracket.jpg,,,,,,,,,4,0,3.296045,0,36,36,36,1,Outdoor activity & sport item
1,"[0,0,0,0,0,0,1,0,1,1,1,1,1,1,1,0,0,0,0,0,1,1,0,1,0,0,0,1,1,0,0,0,0,0,0,0,0,0,0,1,0,0]",,,,,,,,,,,,,13,2021-05-03_10h04.13.306,premceCat2_ses-01_part-01_label-phase1,2020.2.9,Win32,60,,,,,,,1,,,,,,stimuli/m2.jpg,stimuli/m5.jpg,1,stimuli/Outdoor activity & sport item.png,stimuli/Hand labour tool & accessory.png,stimuli/Electronic device & accessory.png,stimuli/Kitchen & utensil.png,1,1,1,stimuli/m2.jpg,,stimuli/objects/telescope.jpg,,,,,,,,,1,1,1.540325,0,37,37,37,1,Outdoor activity & sport item
0,"[0,0,0,0,0,0,1,0,1,1,1,1,1,1,1,0,0,0,0,0,1,1,0,1,0,0,0,1,1,0,0,0,0,0,0,0,0,0,0,1,0,0,1]",,,,,,,,,,,,,13,2021-05-03_10h04.13.306,premceCat2_ses-01_part-01_label-phase1,2020.2.9,Win32,60,,,,,,,0,,,,,,stimuli/m5.jpg,stimuli/m2.jpg,2,stimuli/Hand labour tool & accessory.png,stimuli/Kitchen & utensil.png,stimuli/Electronic device & accessory.png,stimuli/Outdoor activity & sport item.png,4,1,1,stimuli/m2.jpg,,stimuli/objects/footballhelmet.jpg,,,,,,,,,3,0,3.393125,0,38,38,38,1,Outdoor activity & sport item
0,"[0,0,0,0,0,0,1,0,1,1,1,1,1,1,1,0,0,0,0,0,1,1,0,1,0,0,0,1,1,0,0,0,0,0,0,0,0,0,0,1,0,0,1,0]",,,,,,,,,,,,,13,2021-05-03_10h04.13.306,premceCat2_ses-01_part-01_label-phase1,2020.2.9,Win32,60,,,,,,,0,,,,,,stimuli/m5.jpg,stimuli/m2.jpg,2,stimuli/Kitchen & utensil.png,stimuli/Hand labour tool & accessory.png,stimuli/Outdoor activity & sport item.png,stimuli/Electronic device & accessory.png,3,1,1,stimuli/m2.jpg,,stimuli/objects/swing.jpg,,,,,,,,,1,0,2.457375,0,39,39,39,1,Outdoor activity & sport item
0,"[0,0,0,0,0,0,1,0,1,1,1,1,1,1,1,0,0,0,0,0,1,1,0,1,0,0,0,1,1,0,0,0,0,0,0,0,0,0,0,1,0,0,1,0,0]",,,,,,,,,,,,,13,2021-05-03_10h04.13.306,premceCat2_ses-01_part-01_label-phase1,2020.2.9,Win32,60,,,,,,,0,,,,,,stimuli/m5.jpg,stimuli/m2.jpg,1,stimuli/Outdoor activity & sport item.png,stimuli/Hand labour tool & accessory.png,stimuli/Electronic device & accessory.png,stimuli/Kitchen & utensil.png,2,1,1,stimuli/m5.jpg,,stimuli/objects/pitchfork.jpg,,,,,,,,,1,0,2.133635,0,40,40,40,1,Hand labour tool & accessory
0,"[0,0,0,0,0,0,1,0,1,1,1,1,1,1,1,0,0,0,0,0,1,1,0,1,0,0,0,1,1,0,0,0,0,0,0,0,0,0,0,1,0,0,1,0,0,0]",,,,,,,,,,,,,13,2021-05-03_10h04.13.306,premceCat2_ses-01_part-01_label-phase1,2020.2.9,Win32,60,,,,,,,0,,,,,,stimuli/m2.jpg,stimuli/m5.jpg,1,stimuli/Hand labour tool & accessory.png,stimuli/Outdoor activity & sport item.png,stimuli/Electronic device & accessory.png,stimuli/Kitchen & utensil.png,2,1,1,stimuli/m2.jpg,,stimuli/objects/footballhelmet.jpg,,,,,,,,,4,0,1.953295,0,41,41,41,1,Outdoor activity & sport item
1,"[0,0,0,0,0,0,1,0,1,1,1,1,1,1,1,0,0,0,0,0,1,1,0,1,0,0,0,1,1,0,0,0,0,0,0,0,0,0,0,1,0,0,1,0,0,0,0]",,,,,,,,,,,,,13,2021-05-03_10h04.13.306,premceCat2_ses-01_part-01_label-phase1,2020.2.9,Win32,60,,,,,,,1,,,,,,stimuli/m5.jpg,stimuli/m2.jpg,2,stimuli/Hand labour tool & accessory.png,stimuli/Outdoor activity & sport item.png,stimuli/Kitchen & utensil.png,stimuli/Electronic device & accessory.png,2,1,1,stimuli/m2.jpg,,stimuli/objects/rollerblade.jpg,,,,,,,,,2,1,0.950685,0,42,42,42,1,Outdoor activity & sport item
1,"[0,0,0,0,0,0,1,0,1,1,1,1,1,1,1,0,0,0,0,0,1,1,0,1,0,0,0,1,1,0,0,0,0,0,0,0,0,0,0,1,0,0,1,0,0,0,0,1]",,,,,,,,,,,,,13,2021-05-03_10h04.13.306,premceCat2_ses-01_part-01_label-phase1,2020.2.9,Win32,60,,,,,,,1,,,,,,stimuli/m2.jpg,stimuli/m5.jpg,1,stimuli/Outdoor activity & sport item.png,stimuli/Kitchen & utensil.png,stimuli/Hand labour tool & accessory.png,stimuli/Electronic device & accessory.png,1,1,1,stimuli/m2.jpg,,stimuli/objects/crosscountryski.jpg,,,,,,,,,1,1,1.55009,0,43,43,43,1,Outdoor activity & sport item
1,"[0,0,0,0,0,0,1,0,1,1,1,1,1,1,1,0,0,0,0,0,1,1,0,1,0,0,0,1,1,0,0,0,0,0,0,0,0,0,0,1,0,0,1,0,0,0,0,1,1]",,,,,,,,,,,,,13,2021-05-03_10h04.13.306,premceCat2_ses-01_part-01_label-phase1,2020.2.9,Win32,60,,,,,,,1,,,,,,stimuli/m5.jpg,stimuli/m2.jpg,1,stimuli/Kitchen & utensil.png,stimuli/Outdoor activity & sport item.png,stimuli/Hand labour tool & accessory.png,stimuli/Electronic device & accessory.png,3,1,1,stimuli/m5.jpg,,stimuli/objects/solderingiron.jpg,,,,,,,,,3,1,1.864105,0,44,44,44,1,Hand labour tool & accessory
0,"[0,0,0,0,0,0,1,0,1,1,1,1,1,1,1,0,0,0,0,0,1,1,0,1,0,0,0,1,1,0,0,0,0,0,0,0,0,0,0,1,0,0,1,0,0,0,0,1,1,1]",,,,,,,,,,,,,13,2021-05-03_10h04.13.306,premceCat2_ses-01_part-01_label-phase1,2020.2.9,Win32,60,,,,,,,1,,,,,,stimuli/m5.jpg,stimuli/m2.jpg,2,stimuli/Kitchen & utensil.png,stimuli/Hand labour tool & accessory.png,stimuli/Electronic device & accessory.png,stimuli/Outdoor activity & sport item.png,2,0,1,stimuli/m2.jpg,,stimuli/objects/boxcutter03a.jpg,,,,,,,,,4,0,2.0329,0,45,45,45,1,Hand labour tool & accessory
0,"[0,0,0,0,0,0,1,0,1,1,1,1,1,1,1,0,0,0,0,0,1,1,0,1,0,0,0,1,1,0,0,0,0,0,0,0,0,0,0,1,0,0,1,0,0,0,0,1,1,1]",,,,,,,,,,,,,13,2021-05-03_10h04.13.306,premceCat2_ses-01_part-01_label-phase1,2020.2.9,Win32,60,,,,,,,0,,,,,,stimuli/m2.jpg,stimuli/m5.jpg,2,stimuli/Kitchen & utensil.png,stimuli/Electronic device & accessory.png,stimuli/Hand labour tool & accessory.png,stimuli/Outdoor activity & sport item.png,3,1,1,stimuli/m5.jpg,,stimuli/objects/gavel.jpg,,,,,,,,,1,0,3.30208,0,46,46,46,1,Hand labour tool & accessory
0,"[0,0,0,0,0,0,1,0,1,1,1,1,1,1,1,0,0,0,0,0,1,1,0,1,0,0,0,1,1,0,0,0,0,0,0,0,0,0,0,1,0,0,1,0,0,0,0,1,1,1,0]",,,,,,,,,,,,,13,2021-05-03_10h04.13.306,premceCat2_ses-01_part-01_label-phase1,2020.2.9,Win32,60,,,,,,,0,,,,,,stimuli/m5.jpg,stimuli/m2.jpg,2,stimuli/Outdoor activity & sport item.png,stimuli/Hand labour tool & accessory.png,stimuli/Kitchen & utensil.png,stimuli/Electronic device & accessory.png,4,0,1,stimuli/m2.jpg,,stimuli/objects/jack.jpg,,,,,,,,,1,0,1.34236,0,47,47,47,1,Electronic device & accessory
