myownaccuracy,respcorrs,minNrPractice,considerNrTrials,Instr_resp.keys,Instr_resp.rt,taskGoresp.keys,taskGoresp.rt,warmup_resp.keys,warmup_resp.corr,warmup_resp.rt,myownaccuracyCORR,trials.thisRepN,trials.thisTrialN,trials.thisN,trials.thisIndex,trials.ran,first_character,second_character,Cue,left_categ,centleft_categ,centright_categ,right_categ,corr_ans,trial_cond,switch_cond,cuedCharacter,obj_category,image,participant,date,expName,psychopyVersion,OS,frameRate,task_resp.keys,task_resp.corr,task_resp.rt,task_loop.thisRepN,task_loop.thisTrialN,task_loop.thisN,task_loop.thisIndex,task_loop.ran,list_loop.thisRepN,list_loop.thisTrialN,list_loop.thisN,list_loop.thisIndex,list_loop.ran,conditions
0,[],10,10,space,9.16586,space,7.078,1,0,1.030555,0,0,0,0,0,1,stimuli/m5.jpg,stimuli/m2.jpg,1,stimuli/Outdoor activity & sport item.png,stimuli/Hand labour tool & accessory.png,stimuli/Kitchen & utensil.png,stimuli/Electronic device & accessory.png,2,1,1,stimuli/m5.jpg,Hand labour tool & accessory,stimuli/objects/handrake01a.jpg,14,2021-05-15_13h01.57.572,premceCat2_ses-02_part-01_label-phase1,2020.2.9,Win32,60,,,,,,,,,,,,,,
0,[],,,,,,,1,0,0.777935,0,0,1,1,1,1,stimuli/m2.jpg,stimuli/m5.jpg,2,stimuli/Outdoor activity & sport item.png,stimuli/Electronic device & accessory.png,stimuli/Kitchen & utensil.png,stimuli/Hand labour tool & accessory.png,4,1,1,stimuli/m5.jpg,Hand labour tool & accessory,stimuli/objects/jumpingjack.jpg,14,2021-05-15_13h01.57.572,premceCat2_ses-02_part-01_label-phase1,2020.2.9,Win32,60,,,,,,,,,,,,,,
0,[],,,,,,,4,0,1.46398,0,0,2,2,2,1,stimuli/m2.jpg,stimuli/m5.jpg,1,stimuli/Kitchen & utensil.png,stimuli/Hand labour tool & accessory.png,stimuli/Outdoor activity & sport item.png,stimuli/Electronic device & accessory.png,3,1,1,stimuli/m2.jpg,Outdoor activity & sport item,stimuli/objects/racquetballracket.jpg,14,2021-05-15_13h01.57.572,premceCat2_ses-02_part-01_label-phase1,2020.2.9,Win32,60,,,,,,,,,,,,,,
1,[],,,,,,,4,1,0.96298,1,0,3,3,3,1,stimuli/m2.jpg,stimuli/m5.jpg,1,stimuli/Electronic device & accessory.png,stimuli/Hand labour tool & accessory.png,stimuli/Kitchen & utensil.png,stimuli/Outdoor activity & sport item.png,4,1,1,stimuli/m2.jpg,Outdoor activity & sport item,stimuli/objects/racquetballracket.jpg,14,2021-05-15_13h01.57.572,premceCat2_ses-02_part-01_label-phase1,2020.2.9,Win32,60,,,,,,,,,,,,,,
1,[],,,,,,,1,1,0.80314,1,0,4,4,4,1,stimuli/m2.jpg,stimuli/m5.jpg,1,stimuli/Outdoor activity & sport item.png,stimuli/Kitchen & utensil.png,stimuli/Hand labour tool & accessory.png,stimuli/Electronic device & accessory.png,1,1,1,stimuli/m2.jpg,Outdoor activity & sport item,stimuli/objects/crosscountryski.jpg,14,2021-05-15_13h01.57.572,premceCat2_ses-02_part-01_label-phase1,2020.2.9,Win32,60,,,,,,,,,,,,,,
1,[],,,,,,,1,1,0.751685,1,0,5,5,5,1,stimuli/m2.jpg,stimuli/m5.jpg,1,stimuli/Outdoor activity & sport item.png,stimuli/Electronic device & accessory.png,stimuli/Hand labour tool & accessory.png,stimuli/Kitchen & utensil.png,1,1,1,stimuli/m2.jpg,Outdoor activity & sport item,stimuli/objects/crosscountryski.jpg,14,2021-05-15_13h01.57.572,premceCat2_ses-02_part-01_label-phase1,2020.2.9,Win32,60,,,,,,,,,,,,,,
0,[],,,,,,,1,0,1.935135,0,0,6,6,6,1,stimuli/m5.jpg,stimuli/m2.jpg,1,stimuli/Outdoor activity & sport item.png,stimuli/Electronic device & accessory.png,stimuli/Hand labour tool & accessory.png,stimuli/Kitchen & utensil.png,3,1,1,stimuli/m5.jpg,Hand labour tool & accessory,stimuli/objects/jumpingjack.jpg,14,2021-05-15_13h01.57.572,premceCat2_ses-02_part-01_label-phase1,2020.2.9,Win32,60,,,,,,,,,,,,,,
0,[],,,,,,,2,0,0.62887,0,0,7,7,7,1,stimuli/m2.jpg,stimuli/m5.jpg,2,stimuli/Outdoor activity & sport item.png,stimuli/Electronic device & accessory.png,stimuli/Hand labour tool & accessory.png,stimuli/Kitchen & utensil.png,4,0,1,stimuli/m5.jpg,Kitchen & utensil,stimuli/objects/jug.jpg,14,2021-05-15_13h01.57.572,premceCat2_ses-02_part-01_label-phase1,2020.2.9,Win32,60,,,,,,,,,,,,,,
0,[],,,,,,,3,0,1.582815,0,0,8,8,8,1,stimuli/m5.jpg,stimuli/m2.jpg,1,stimuli/Outdoor activity & sport item.png,stimuli/Hand labour tool & accessory.png,stimuli/Electronic device & accessory.png,stimuli/Kitchen & utensil.png,2,1,1,stimuli/m5.jpg,Hand labour tool & accessory,stimuli/objects/pitchfork.jpg,14,2021-05-15_13h01.57.572,premceCat2_ses-02_part-01_label-phase1,2020.2.9,Win32,60,,,,,,,,,,,,,,
0,[],,,,,,,4,0,1.20105,0,0,9,9,9,1,stimuli/m5.jpg,stimuli/m2.jpg,2,stimuli/Kitchen & utensil.png,stimuli/Hand labour tool & accessory.png,stimuli/Electronic device & accessory.png,stimuli/Outdoor activity & sport item.png,2,0,1,stimuli/m2.jpg,Hand labour tool & accessory,stimuli/objects/boxcutter03a.jpg,14,2021-05-15_13h01.57.572,premceCat2_ses-02_part-01_label-phase1,2020.2.9,Win32,60,,,,,,,,,,,,,,
0,[],,,,,,,2,0,1.220665,0,0,10,10,10,1,stimuli/m5.jpg,stimuli/m2.jpg,1,stimuli/Kitchen & utensil.png,stimuli/Outdoor activity & sport item.png,stimuli/Electronic device & accessory.png,stimuli/Hand labour tool & accessory.png,4,1,1,stimuli/m5.jpg,Hand labour tool & accessory,stimuli/objects/gavel.jpg,14,2021-05-15_13h01.57.572,premceCat2_ses-02_part-01_label-phase1,2020.2.9,Win32,60,,,,,,,,,,,,,,
0,[],,,,,,,2,0,1.245505,0,0,11,11,11,1,stimuli/m5.jpg,stimuli/m2.jpg,1,stimuli/Kitchen & utensil.png,stimuli/Hand labour tool & accessory.png,stimuli/Electronic device & accessory.png,stimuli/Outdoor activity & sport item.png,4,0,1,stimuli/m5.jpg,Outdoor activity & sport item,stimuli/objects/swing.jpg,14,2021-05-15_13h01.57.572,premceCat2_ses-02_part-01_label-phase1,2020.2.9,Win32,60,,,,,,,,,,,,,,
0,[],,,,,,,4,0,2.070985,0,0,12,12,12,1,stimuli/m5.jpg,stimuli/m2.jpg,2,stimuli/Outdoor activity & sport item.png,stimuli/Electronic device & accessory.png,stimuli/Kitchen & utensil.png,stimuli/Hand labour tool & accessory.png,1,1,1,stimuli/m2.jpg,Outdoor activity & sport item,stimuli/objects/bicycle.jpg,14,2021-05-15_13h01.57.572,premceCat2_ses-02_part-01_label-phase1,2020.2.9,Win32,60,,,,,,,,,,,,,,
1,[],,,,,,,2,1,0.803175,1,0,13,13,13,1,stimuli/m2.jpg,stimuli/m5.jpg,1,stimuli/Electronic device & accessory.png,stimuli/Outdoor activity & sport item.png,stimuli/Hand labour tool & accessory.png,stimuli/Kitchen & utensil.png,2,1,1,stimuli/m2.jpg,Outdoor activity & sport item,stimuli/objects/racquetballracket.jpg,14,2021-05-15_13h01.57.572,premceCat2_ses-02_part-01_label-phase1,2020.2.9,Win32,60,,,,,,,,,,,,,,
1,[],,,,,,,3,1,0.645195,1,0,14,14,14,1,stimuli/m5.jpg,stimuli/m2.jpg,1,stimuli/Hand labour tool & accessory.png,stimuli/Outdoor activity & sport item.png,stimuli/Kitchen & utensil.png,stimuli/Electronic device & accessory.png,3,0,1,stimuli/m5.jpg,Kitchen & utensil,stimuli/objects/freezer02.jpg,14,2021-05-15_13h01.57.572,premceCat2_ses-02_part-01_label-phase1,2020.2.9,Win32,60,,,,,,,,,,,,,,
0,[],,,,,,,4,0,1.4502,1,0,15,15,15,1,stimuli/m2.jpg,stimuli/m5.jpg,1,stimuli/Kitchen & utensil.png,stimuli/Hand labour tool & accessory.png,stimuli/Electronic device & accessory.png,stimuli/Outdoor activity & sport item.png,2,0,1,stimuli/m2.jpg,Hand labour tool & accessory,stimuli/objects/handrake01a.jpg,14,2021-05-15_13h01.57.572,premceCat2_ses-02_part-01_label-phase1,2020.2.9,Win32,60,,,,,,,,,,,,,,
1,[],,,,,,,2,1,1.71163,1,0,16,16,16,1,stimuli/m5.jpg,stimuli/m2.jpg,2,stimuli/Hand labour tool & accessory.png,stimuli/Outdoor activity & sport item.png,stimuli/Kitchen & utensil.png,stimuli/Electronic device & accessory.png,2,1,1,stimuli/m2.jpg,Outdoor activity & sport item,stimuli/objects/rollerblade.jpg,14,2021-05-15_13h01.57.572,premceCat2_ses-02_part-01_label-phase1,2020.2.9,Win32,60,,,,,,,,,,,,,,
0,[],,,,,,,3,0,1.83416,0,0,17,17,17,1,stimuli/m2.jpg,stimuli/m5.jpg,2,stimuli/Hand labour tool & accessory.png,stimuli/Kitchen & utensil.png,stimuli/Electronic device & accessory.png,stimuli/Outdoor activity & sport item.png,1,1,1,stimuli/m5.jpg,Hand labour tool & accessory,stimuli/objects/hedgetrimmer.jpg,14,2021-05-15_13h01.57.572,premceCat2_ses-02_part-01_label-phase1,2020.2.9,Win32,60,,,,,,,,,,,,,,
0,[],,,,,,,2,0,1.721675,0,0,18,18,18,1,stimuli/m5.jpg,stimuli/m2.jpg,1,stimuli/Hand labour tool & accessory.png,stimuli/Outdoor activity & sport item.png,stimuli/Electronic device & accessory.png,stimuli/Kitchen & utensil.png,1,1,1,stimuli/m5.jpg,Hand labour tool & accessory,stimuli/objects/jumpingjack.jpg,14,2021-05-15_13h01.57.572,premceCat2_ses-02_part-01_label-phase1,2020.2.9,Win32,60,,,,,,,,,,,,,,
0,[],,,,,,,,,,0,,,,,,stimuli/m2.jpg,stimuli/m5.jpg,2,stimuli/Electronic device & accessory.png,stimuli/Kitchen & utensil.png,stimuli/Hand labour tool & accessory.png,stimuli/Outdoor activity & sport item.png,2,0,2,stimuli/m5.jpg,Kitchen & utensil,stimuli/objects/potatomasher03b.jpg,14,2021-05-15_13h01.57.572,premceCat2_ses-02_part-01_label-phase1,2020.2.9,Win32,60,4,0,1.349255,0,0,0,0,1,,,,,,
0,[],,,,,,,,,,0,,,,,,stimuli/m2.jpg,stimuli/m5.jpg,1,stimuli/Kitchen & utensil.png,stimuli/Outdoor activity & sport item.png,stimuli/Electronic device & accessory.png,stimuli/Hand labour tool & accessory.png,2,1,2,stimuli/m2.jpg,Outdoor activity & sport item,stimuli/objects/volleyball.jpg,14,2021-05-15_13h01.57.572,premceCat2_ses-02_part-01_label-phase1,2020.2.9,Win32,60,3,0,1.886685,0,1,1,1,1,,,,,,
0,[0],,,,,,,,,,0,,,,,,stimuli/m2.jpg,stimuli/m5.jpg,2,stimuli/Electronic device & accessory.png,stimuli/Hand labour tool & accessory.png,stimuli/Outdoor activity & sport item.png,stimuli/Kitchen & utensil.png,3,0,2,stimuli/m5.jpg,Outdoor activity & sport item,stimuli/objects/kiddiepool.jpg,14,2021-05-15_13h01.57.572,premceCat2_ses-02_part-01_label-phase1,2020.2.9,Win32,60,4,0,1.2455,0,2,2,2,1,,,,,,
0,[0],,,,,,,,,,0,,,,,,stimuli/m2.jpg,stimuli/m5.jpg,2,stimuli/Kitchen & utensil.png,stimuli/Hand labour tool & accessory.png,stimuli/Electronic device & accessory.png,stimuli/Outdoor activity & sport item.png,2,1,2,stimuli/m5.jpg,Hand labour tool & accessory,stimuli/objects/toyhardhat.jpg,14,2021-05-15_13h01.57.572,premceCat2_ses-02_part-01_label-phase1,2020.2.9,Win32,60,4,0,1.146745,0,3,3,3,1,,,,,,
0,"[0,0]",,,,,,,,,,0,,,,,,stimuli/m2.jpg,stimuli/m5.jpg,1,stimuli/Kitchen & utensil.png,stimuli/Hand labour tool & accessory.png,stimuli/Electronic device & accessory.png,stimuli/Outdoor activity & sport item.png,3,0,2,stimuli/m2.jpg,Electronic device & accessory,stimuli/objects/payphone.jpg,14,2021-05-15_13h01.57.572,premceCat2_ses-02_part-01_label-phase1,2020.2.9,Win32,60,4,0,1.328775,0,4,4,4,1,,,,,,
0,"[0,0]",,,,,,,,,,0,,,,,,stimuli/m5.jpg,stimuli/m2.jpg,2,stimuli/Hand labour tool & accessory.png,stimuli/Electronic device & accessory.png,stimuli/Kitchen & utensil.png,stimuli/Outdoor activity & sport item.png,4,1,2,stimuli/m2.jpg,Outdoor activity & sport item,stimuli/objects/patioumbrella.jpg,14,2021-05-15_13h01.57.572,premceCat2_ses-02_part-01_label-phase1,2020.2.9,Win32,60,2,0,0.694745,0,5,5,5,1,,,,,,
0,"[0,0,0]",,,,,,,,,,0,,,,,,stimuli/m5.jpg,stimuli/m2.jpg,1,stimuli/Electronic device & accessory.png,stimuli/Outdoor activity & sport item.png,stimuli/Kitchen & utensil.png,stimuli/Hand labour tool & accessory.png,1,0,2,stimuli/m5.jpg,Electronic device & accessory,stimuli/objects/ethernetcable02.jpg,14,2021-05-15_13h01.57.572,premceCat2_ses-02_part-01_label-phase1,2020.2.9,Win32,60,3,0,0.883535,0,6,6,6,1,,,,,,
0,"[0,0,0]",,,,,,,,,,0,,,,,,stimuli/m2.jpg,stimuli/m5.jpg,2,stimuli/Electronic device & accessory.png,stimuli/Kitchen & utensil.png,stimuli/Outdoor activity & sport item.png,stimuli/Hand labour tool & accessory.png,2,0,2,stimuli/m5.jpg,Kitchen & utensil,stimuli/objects/servingspoon01.jpg,14,2021-05-15_13h01.57.572,premceCat2_ses-02_part-01_label-phase1,2020.2.9,Win32,60,1,0,0.642115,0,7,7,7,1,,,,,,
1,"[0,0,0]",,,,,,,,,,1,,,,,,stimuli/m5.jpg,stimuli/m2.jpg,2,stimuli/Outdoor activity & sport item.png,stimuli/Hand labour tool & accessory.png,stimuli/Kitchen & utensil.png,stimuli/Electronic device & accessory.png,1,1,2,stimuli/m2.jpg,Outdoor activity & sport item,stimuli/objects/podium.jpg,14,2021-05-15_13h01.57.572,premceCat2_ses-02_part-01_label-phase1,2020.2.9,Win32,60,1,1,1.315245,0,8,8,8,1,,,,,,
1,"[0,0,0,1]",,,,,,,,,,1,,,,,,stimuli/m2.jpg,stimuli/m5.jpg,1,stimuli/Electronic device & accessory.png,stimuli/Hand labour tool & accessory.png,stimuli/Kitchen & utensil.png,stimuli/Outdoor activity & sport item.png,4,1,2,stimuli/m2.jpg,Outdoor activity & sport item,stimuli/objects/bikehelmet.jpg,14,2021-05-15_13h01.57.572,premceCat2_ses-02_part-01_label-phase1,2020.2.9,Win32,60,4,1,1.53833,0,9,9,9,1,,,,,,
1,"[0,0,0,1,1]",,,,,,,,,,1,,,,,,stimuli/m2.jpg,stimuli/m5.jpg,1,stimuli/Electronic device & accessory.png,stimuli/Outdoor activity & sport item.png,stimuli/Hand labour tool & accessory.png,stimuli/Kitchen & utensil.png,2,1,2,stimuli/m2.jpg,Outdoor activity & sport item,stimuli/objects/anchor.jpg,14,2021-05-15_13h01.57.572,premceCat2_ses-02_part-01_label-phase1,2020.2.9,Win32,60,2,1,1.485105,0,10,10,10,1,,,,,,
0,"[0,0,0,1,1,1]",,,,,,,,,,0,,,,,,stimuli/m5.jpg,stimuli/m2.jpg,1,stimuli/Electronic device & accessory.png,stimuli/Outdoor activity & sport item.png,stimuli/Hand labour tool & accessory.png,stimuli/Kitchen & utensil.png,3,1,2,stimuli/m5.jpg,Hand labour tool & accessory,stimuli/objects/snowshovel.jpg,14,2021-05-15_13h01.57.572,premceCat2_ses-02_part-01_label-phase1,2020.2.9,Win32,60,4,0,1.63829,0,11,11,11,1,,,,,,
0,"[0,0,0,1,1,1,0]",,,,,,,,,,0,,,,,,stimuli/m2.jpg,stimuli/m5.jpg,2,stimuli/Kitchen & utensil.png,stimuli/Hand labour tool & accessory.png,stimuli/Outdoor activity & sport item.png,stimuli/Electronic device & accessory.png,2,1,2,stimuli/m5.jpg,Hand labour tool & accessory,stimuli/objects/level03a.jpg,14,2021-05-15_13h01.57.572,premceCat2_ses-02_part-01_label-phase1,2020.2.9,Win32,60,3,0,1.46136,0,12,12,12,1,,,,,,
1,"[0,0,0,1,1,1,0,0]",,,,,,,,,,1,,,,,,stimuli/m5.jpg,stimuli/m2.jpg,2,stimuli/Kitchen & utensil.png,stimuli/Outdoor activity & sport item.png,stimuli/Hand labour tool & accessory.png,stimuli/Electronic device & accessory.png,2,1,2,stimuli/m2.jpg,Outdoor activity & sport item,stimuli/objects/hockeygoaliepad.jpg,14,2021-05-15_13h01.57.572,premceCat2_ses-02_part-01_label-phase1,2020.2.9,Win32,60,2,1,1.078495,0,13,13,13,1,,,,,,
0,"[0,0,0,1,1,1,0,0,1]",,,,,,,,,,1,,,,,,stimuli/m2.jpg,stimuli/m5.jpg,1,stimuli/Outdoor activity & sport item.png,stimuli/Kitchen & utensil.png,stimuli/Hand labour tool & accessory.png,stimuli/Electronic device & accessory.png,2,0,2,stimuli/m2.jpg,Kitchen & utensil,stimuli/objects/aluminiumfoil.jpg,14,2021-05-15_13h01.57.572,premceCat2_ses-02_part-01_label-phase1,2020.2.9,Win32,60,1,0,1.662505,0,14,14,14,1,,,,,,
1,"[0,0,0,1,1,1,0,0,1]",,,,,,,,,,1,,,,,,stimuli/m2.jpg,stimuli/m5.jpg,1,stimuli/Electronic device & accessory.png,stimuli/Hand labour tool & accessory.png,stimuli/Outdoor activity & sport item.png,stimuli/Kitchen & utensil.png,4,0,2,stimuli/m2.jpg,Kitchen & utensil,stimuli/objects/jar02.jpg,14,2021-05-15_13h01.57.572,premceCat2_ses-02_part-01_label-phase1,2020.2.9,Win32,60,4,1,1.087785,0,15,15,15,1,,,,,,
1,"[0,0,0,1,1,1,0,0,1]",,,,,,,,,,1,,,,,,stimuli/m5.jpg,stimuli/m2.jpg,1,stimuli/Kitchen & utensil.png,stimuli/Outdoor activity & sport item.png,stimuli/Hand labour tool & accessory.png,stimuli/Electronic device & accessory.png,3,1,2,stimuli/m5.jpg,Hand labour tool & accessory,stimuli/objects/sewingmachine01a.jpg,14,2021-05-15_13h01.57.572,premceCat2_ses-02_part-01_label-phase1,2020.2.9,Win32,60,3,1,1.270255,0,16,16,16,1,,,,,,
1,"[0,0,0,1,1,1,0,0,1,1]",,,,,,,,,,1,,,,,,stimuli/m2.jpg,stimuli/m5.jpg,2,stimuli/Outdoor activity & sport item.png,stimuli/Electronic device & accessory.png,stimuli/Hand labour tool & accessory.png,stimuli/Kitchen & utensil.png,2,0,2,stimuli/m5.jpg,Electronic device & accessory,stimuli/objects/coffeemachine.jpg,14,2021-05-15_13h01.57.572,premceCat2_ses-02_part-01_label-phase1,2020.2.9,Win32,60,2,1,1.02455,0,17,17,17,1,,,,,,
0,"[0,0,0,1,1,1,0,0,1,1]",,,,,,,,,,0,,,,,,stimuli/m5.jpg,stimuli/m2.jpg,2,stimuli/Electronic device & accessory.png,stimuli/Outdoor activity & sport item.png,stimuli/Kitchen & utensil.png,stimuli/Hand labour tool & accessory.png,2,1,2,stimuli/m2.jpg,Outdoor activity & sport item,stimuli/objects/fishingrod.jpg,14,2021-05-15_13h01.57.572,premceCat2_ses-02_part-01_label-phase1,2020.2.9,Win32,60,3,0,1.63411,0,18,18,18,1,,,,,,
0,"[0,0,0,1,1,1,0,0,1,1,0]",,,,,,,,,,0,,,,,,stimuli/m2.jpg,stimuli/m5.jpg,2,stimuli/Hand labour tool & accessory.png,stimuli/Outdoor activity & sport item.png,stimuli/Kitchen & utensil.png,stimuli/Electronic device & accessory.png,1,1,2,stimuli/m5.jpg,Hand labour tool & accessory,stimuli/objects/axe01.jpg,14,2021-05-15_13h01.57.572,premceCat2_ses-02_part-01_label-phase1,2020.2.9,Win32,60,2,0,1.272685,0,19,19,19,1,,,,,,
1,"[0,0,0,1,1,1,0,0,1,1,0,0]",,,,,,,,,,1,,,,,,stimuli/m2.jpg,stimuli/m5.jpg,1,stimuli/Hand labour tool & accessory.png,stimuli/Electronic device & accessory.png,stimuli/Outdoor activity & sport item.png,stimuli/Kitchen & utensil.png,3,1,2,stimuli/m2.jpg,Outdoor activity & sport item,stimuli/objects/treadmill.jpg,14,2021-05-15_13h01.57.572,premceCat2_ses-02_part-01_label-phase1,2020.2.9,Win32,60,3,1,1.216155,0,20,20,20,1,,,,,,
0,"[0,0,0,1,1,1,0,0,1,1,0,0,1]",,,,,,,,,,0,,,,,,stimuli/m5.jpg,stimuli/m2.jpg,1,stimuli/Electronic device & accessory.png,stimuli/Kitchen & utensil.png,stimuli/Outdoor activity & sport item.png,stimuli/Hand labour tool & accessory.png,4,1,2,stimuli/m5.jpg,Hand labour tool & accessory,stimuli/objects/metalbrush.jpg,14,2021-05-15_13h01.57.572,premceCat2_ses-02_part-01_label-phase1,2020.2.9,Win32,60,2,0,1.112705,0,21,21,21,1,,,,,,
1,"[0,0,0,1,1,1,0,0,1,1,0,0,1,0]",,,,,,,,,,1,,,,,,stimuli/m2.jpg,stimuli/m5.jpg,1,stimuli/Hand labour tool & accessory.png,stimuli/Kitchen & utensil.png,stimuli/Electronic device & accessory.png,stimuli/Outdoor activity & sport item.png,4,1,2,stimuli/m2.jpg,Outdoor activity & sport item,stimuli/objects/charcoalbarbecue.jpg,14,2021-05-15_13h01.57.572,premceCat2_ses-02_part-01_label-phase1,2020.2.9,Win32,60,4,1,0.73736,0,22,22,22,1,,,,,,
1,"[0,0,0,1,1,1,0,0,1,1,0,0,1,0,1]",,,,,,,,,,1,,,,,,stimuli/m2.jpg,stimuli/m5.jpg,2,stimuli/Kitchen & utensil.png,stimuli/Electronic device & accessory.png,stimuli/Hand labour tool & accessory.png,stimuli/Outdoor activity & sport item.png,3,1,2,stimuli/m5.jpg,Hand labour tool & accessory,stimuli/objects/caulking.jpg,14,2021-05-15_13h01.57.572,premceCat2_ses-02_part-01_label-phase1,2020.2.9,Win32,60,3,1,0.89793,0,23,23,23,1,,,,,,
0,"[0,0,0,1,1,1,0,0,1,1,0,0,1,0,1,1]",,,,,,,,,,1,,,,,,stimuli/m5.jpg,stimuli/m2.jpg,2,stimuli/Electronic device & accessory.png,stimuli/Hand labour tool & accessory.png,stimuli/Kitchen & utensil.png,stimuli/Outdoor activity & sport item.png,1,0,2,stimuli/m2.jpg,Electronic device & accessory,stimuli/objects/filmroll.jpg,14,2021-05-15_13h01.57.572,premceCat2_ses-02_part-01_label-phase1,2020.2.9,Win32,60,4,0,1.262355,0,24,24,24,1,,,,,,
0,"[0,0,0,1,1,1,0,0,1,1,0,0,1,0,1,1]",,,,,,,,,,0,,,,,,stimuli/m2.jpg,stimuli/m5.jpg,2,stimuli/Hand labour tool & accessory.png,stimuli/Outdoor activity & sport item.png,stimuli/Electronic device & accessory.png,stimuli/Kitchen & utensil.png,1,1,2,stimuli/m5.jpg,Hand labour tool & accessory,stimuli/objects/drill01b.jpg,14,2021-05-15_13h01.57.572,premceCat2_ses-02_part-01_label-phase1,2020.2.9,Win32,60,3,0,1.44643,0,25,25,25,1,,,,,,
0,"[0,0,0,1,1,1,0,0,1,1,0,0,1,0,1,1,0]",,,,,,,,,,0,,,,,,stimuli/m5.jpg,stimuli/m2.jpg,1,stimuli/Kitchen & utensil.png,stimuli/Hand labour tool & accessory.png,stimuli/Outdoor activity & sport item.png,stimuli/Electronic device & accessory.png,2,1,2,stimuli/m5.jpg,Hand labour tool & accessory,stimuli/objects/hedgeshears.jpg,14,2021-05-15_13h01.57.572,premceCat2_ses-02_part-01_label-phase1,2020.2.9,Win32,60,3,0,1.53184,0,26,26,26,1,,,,,,
0,"[0,0,0,1,1,1,0,0,1,1,0,0,1,0,1,1,0,0]",,,,,,,,,,0,,,,,,stimuli/m5.jpg,stimuli/m2.jpg,2,stimuli/Kitchen & utensil.png,stimuli/Hand labour tool & accessory.png,stimuli/Electronic device & accessory.png,stimuli/Outdoor activity & sport item.png,4,1,2,stimuli/m2.jpg,Outdoor activity & sport item,stimuli/objects/surfboard.jpg,14,2021-05-15_13h01.57.572,premceCat2_ses-02_part-01_label-phase1,2020.2.9,Win32,60,2,0,0.900895,0,27,27,27,1,,,,,,
1,"[0,0,0,1,1,1,0,0,1,1,0,0,1,0,1,1,0,0,0]",,,,,,,,,,1,,,,,,stimuli/m2.jpg,stimuli/m5.jpg,1,stimuli/Hand labour tool & accessory.png,stimuli/Kitchen & utensil.png,stimuli/Outdoor activity & sport item.png,stimuli/Electronic device & accessory.png,3,1,2,stimuli/m2.jpg,Outdoor activity & sport item,stimuli/objects/catchermask.jpg,14,2021-05-15_13h01.57.572,premceCat2_ses-02_part-01_label-phase1,2020.2.9,Win32,60,3,1,0.737665,0,28,28,28,1,,,,,,
1,"[0,0,0,1,1,1,0,0,1,1,0,0,1,0,1,1,0,0,0,1]",,,,,,,,,,1,,,,,,stimuli/m5.jpg,stimuli/m2.jpg,2,stimuli/Electronic device & accessory.png,stimuli/Outdoor activity & sport item.png,stimuli/Hand labour tool & accessory.png,stimuli/Kitchen & utensil.png,2,1,2,stimuli/m2.jpg,Outdoor activity & sport item,stimuli/objects/soccerball.jpg,14,2021-05-15_13h01.57.572,premceCat2_ses-02_part-01_label-phase1,2020.2.9,Win32,60,2,1,1.862135,0,29,29,29,1,,,,,,
0,"[0,0,0,1,1,1,0,0,1,1,0,0,1,0,1,1,0,0,0,1,1]",,,,,,,,,,0,,,,,,stimuli/m2.jpg,stimuli/m5.jpg,2,stimuli/Kitchen & utensil.png,stimuli/Outdoor activity & sport item.png,stimuli/Electronic device & accessory.png,stimuli/Hand labour tool & accessory.png,4,1,2,stimuli/m5.jpg,Hand labour tool & accessory,stimuli/objects/setsquare.jpg,14,2021-05-15_13h01.57.572,premceCat2_ses-02_part-01_label-phase1,2020.2.9,Win32,60,2,0,1.618525,0,30,30,30,1,,,,,,
1,"[0,0,0,1,1,1,0,0,1,1,0,0,1,0,1,1,0,0,0,1,1,0]",,,,,,,,,,1,,,,,,stimuli/m2.jpg,stimuli/m5.jpg,2,stimuli/Hand labour tool & accessory.png,stimuli/Kitchen & utensil.png,stimuli/Outdoor activity & sport item.png,stimuli/Electronic device & accessory.png,1,1,2,stimuli/m5.jpg,Hand labour tool & accessory,stimuli/objects/boltcutter.jpg,14,2021-05-15_13h01.57.572,premceCat2_ses-02_part-01_label-phase1,2020.2.9,Win32,60,1,1,1.22282,0,31,31,31,1,,,,,,
0,"[0,0,0,1,1,1,0,0,1,1,0,0,1,0,1,1,0,0,0,1,1,0,1]",,,,,,,,,,1,,,,,,stimuli/m5.jpg,stimuli/m2.jpg,2,stimuli/Kitchen & utensil.png,stimuli/Hand labour tool & accessory.png,stimuli/Outdoor activity & sport item.png,stimuli/Electronic device & accessory.png,2,0,2,stimuli/m2.jpg,Hand labour tool & accessory,stimuli/objects/lawnmower.jpg,14,2021-05-15_13h01.57.572,premceCat2_ses-02_part-01_label-phase1,2020.2.9,Win32,60,3,0,0.916045,0,32,32,32,1,,,,,,
0,"[0,0,0,1,1,1,0,0,1,1,0,0,1,0,1,1,0,0,0,1,1,0,1]",,,,,,,,,,0,,,,,,stimuli/m5.jpg,stimuli/m2.jpg,1,stimuli/Outdoor activity & sport item.png,stimuli/Hand labour tool & accessory.png,stimuli/Kitchen & utensil.png,stimuli/Electronic device & accessory.png,2,1,2,stimuli/m5.jpg,Hand labour tool & accessory,stimuli/objects/hammer01.jpg,14,2021-05-15_13h01.57.572,premceCat2_ses-02_part-01_label-phase1,2020.2.9,Win32,60,4,0,1.934515,0,33,33,33,1,,,,,,
1,"[0,0,0,1,1,1,0,0,1,1,0,0,1,0,1,1,0,0,0,1,1,0,1,0]",,,,,,,,,,1,,,,,,stimuli/m5.jpg,stimuli/m2.jpg,1,stimuli/Electronic device & accessory.png,stimuli/Hand labour tool & accessory.png,stimuli/Kitchen & utensil.png,stimuli/Outdoor activity & sport item.png,2,1,2,stimuli/m5.jpg,Hand labour tool & accessory,stimuli/objects/aircompressor.jpg,14,2021-05-15_13h01.57.572,premceCat2_ses-02_part-01_label-phase1,2020.2.9,Win32,60,2,1,0.80823,0,34,34,34,1,,,,,,
0,"[0,0,0,1,1,1,0,0,1,1,0,0,1,0,1,1,0,0,0,1,1,0,1,0,1]",,,,,,,,,,1,,,,,,stimuli/m5.jpg,stimuli/m2.jpg,1,stimuli/Outdoor activity & sport item.png,stimuli/Hand labour tool & accessory.png,stimuli/Electronic device & accessory.png,stimuli/Kitchen & utensil.png,1,0,2,stimuli/m5.jpg,Outdoor activity & sport item,stimuli/objects/sportbag.jpg,14,2021-05-15_13h01.57.572,premceCat2_ses-02_part-01_label-phase1,2020.2.9,Win32,60,3,0,1.13514,0,35,35,35,1,,,,,,
1,"[0,0,0,1,1,1,0,0,1,1,0,0,1,0,1,1,0,0,0,1,1,0,1,0,1]",,,,,,,,,,1,,,,,,stimuli/m2.jpg,stimuli/m5.jpg,1,stimuli/Outdoor activity & sport item.png,stimuli/Electronic device & accessory.png,stimuli/Kitchen & utensil.png,stimuli/Hand labour tool & accessory.png,1,1,2,stimuli/m2.jpg,Outdoor activity & sport item,stimuli/objects/canoepaddle02.jpg,14,2021-05-15_13h01.57.572,premceCat2_ses-02_part-01_label-phase1,2020.2.9,Win32,60,1,1,0.594395,0,36,36,36,1,,,,,,
1,"[0,0,0,1,1,1,0,0,1,1,0,0,1,0,1,1,0,0,0,1,1,0,1,0,1,1]",,,,,,,,,,1,,,,,,stimuli/m5.jpg,stimuli/m2.jpg,2,stimuli/Hand labour tool & accessory.png,stimuli/Outdoor activity & sport item.png,stimuli/Kitchen & utensil.png,stimuli/Electronic device & accessory.png,2,1,2,stimuli/m2.jpg,Outdoor activity & sport item,stimuli/objects/backpack01a.jpg,14,2021-05-15_13h01.57.572,premceCat2_ses-02_part-01_label-phase1,2020.2.9,Win32,60,2,1,1.163325,0,37,37,37,1,,,,,,
1,"[0,0,0,1,1,1,0,0,1,1,0,0,1,0,1,1,0,0,0,1,1,0,1,0,1,1,1]",,,,,,,,,,1,,,,,,stimuli/m5.jpg,stimuli/m2.jpg,2,stimuli/Outdoor activity & sport item.png,stimuli/Electronic device & accessory.png,stimuli/Hand labour tool & accessory.png,stimuli/Kitchen & utensil.png,1,1,2,stimuli/m2.jpg,Outdoor activity & sport item,stimuli/objects/hockeypuck.jpg,14,2021-05-15_13h01.57.572,premceCat2_ses-02_part-01_label-phase1,2020.2.9,Win32,60,1,1,0.63502,0,38,38,38,1,,,,,,
1,"[0,0,0,1,1,1,0,0,1,1,0,0,1,0,1,1,0,0,0,1,1,0,1,0,1,1,1,1]",,,,,,,,,,1,,,,,,stimuli/m2.jpg,stimuli/m5.jpg,1,stimuli/Hand labour tool & accessory.png,stimuli/Outdoor activity & sport item.png,stimuli/Electronic device & accessory.png,stimuli/Kitchen & utensil.png,2,1,2,stimuli/m2.jpg,Outdoor activity & sport item,stimuli/objects/baseballglove.jpg,14,2021-05-15_13h01.57.572,premceCat2_ses-02_part-01_label-phase1,2020.2.9,Win32,60,2,1,1.0687,0,39,39,39,1,,,,,,
1,"[0,0,0,1,1,1,0,0,1,1,0,0,1,0,1,1,0,0,0,1,1,0,1,0,1,1,1,1,1]",,,,,,,,,,1,,,,,,stimuli/m5.jpg,stimuli/m2.jpg,1,stimuli/Outdoor activity & sport item.png,stimuli/Electronic device & accessory.png,stimuli/Kitchen & utensil.png,stimuli/Hand labour tool & accessory.png,4,1,2,stimuli/m5.jpg,Hand labour tool & accessory,stimuli/objects/snowblower.jpg,14,2021-05-15_13h01.57.572,premceCat2_ses-02_part-01_label-phase1,2020.2.9,Win32,60,4,1,1.32109,0,40,40,40,1,,,,,,
0,"[0,0,0,1,1,1,0,0,1,1,0,0,1,0,1,1,0,0,0,1,1,0,1,0,1,1,1,1,1,1]",,,,,,,,,,1,,,,,,stimuli/m2.jpg,stimuli/m5.jpg,1,stimuli/Kitchen & utensil.png,stimuli/Hand labour tool & accessory.png,stimuli/Outdoor activity & sport item.png,stimuli/Electronic device & accessory.png,2,0,2,stimuli/m2.jpg,Hand labour tool & accessory,stimuli/objects/puttyknife.jpg,14,2021-05-15_13h01.57.572,premceCat2_ses-02_part-01_label-phase1,2020.2.9,Win32,60,3,0,0.73541,0,41,41,41,1,,,,,,
0,"[0,0,0,1,1,1,0,0,1,1,0,0,1,0,1,1,0,0,0,1,1,0,1,0,1,1,1,1,1,1]",,,,,,,,,,0,,,,,,stimuli/m2.jpg,stimuli/m5.jpg,2,stimuli/Outdoor activity & sport item.png,stimuli/Hand labour tool & accessory.png,stimuli/Kitchen & utensil.png,stimuli/Electronic device & accessory.png,2,1,2,stimuli/m5.jpg,Hand labour tool & accessory,stimuli/objects/rope03.jpg,14,2021-05-15_13h01.57.572,premceCat2_ses-02_part-01_label-phase1,2020.2.9,Win32,60,4,0,1.028475,0,42,42,42,1,,,,,,
1,"[0,0,0,1,1,1,0,0,1,1,0,0,1,0,1,1,0,0,0,1,1,0,1,0,1,1,1,1,1,1,0]",,,,,,,,,,1,,,,,,stimuli/m5.jpg,stimuli/m2.jpg,2,stimuli/Electronic device & accessory.png,stimuli/Kitchen & utensil.png,stimuli/Outdoor activity & sport item.png,stimuli/Hand labour tool & accessory.png,3,1,2,stimuli/m2.jpg,Outdoor activity & sport item,stimuli/objects/toyhockeystick01.jpg,14,2021-05-15_13h01.57.572,premceCat2_ses-02_part-01_label-phase1,2020.2.9,Win32,60,3,1,1.73477,0,43,43,43,1,,,,,,
0,"[0,0,0,1,1,1,0,0,1,1,0,0,1,0,1,1,0,0,0,1,1,0,1,0,1,1,1,1,1,1,0,1]",,,,,,,,,,0,,,,,,stimuli/m2.jpg,stimuli/m5.jpg,2,stimuli/Outdoor activity & sport item.png,stimuli/Electronic device & accessory.png,stimuli/Kitchen & utensil.png,stimuli/Hand labour tool & accessory.png,4,1,2,stimuli/m5.jpg,Hand labour tool & accessory,stimuli/objects/saw02b.jpg,14,2021-05-15_13h01.57.572,premceCat2_ses-02_part-01_label-phase1,2020.2.9,Win32,60,2,0,1.616975,0,44,44,44,1,,,,,,
1,"[0,0,0,1,1,1,0,0,1,1,0,0,1,0,1,1,0,0,0,1,1,0,1,0,1,1,1,1,1,1,0,1,0]",,,,,,,,,,1,,,,,,stimuli/m2.jpg,stimuli/m5.jpg,2,stimuli/Electronic device & accessory.png,stimuli/Hand labour tool & accessory.png,stimuli/Kitchen & utensil.png,stimuli/Outdoor activity & sport item.png,2,1,2,stimuli/m5.jpg,Hand labour tool & accessory,stimuli/objects/flooringstapler.jpg,14,2021-05-15_13h01.57.572,premceCat2_ses-02_part-01_label-phase1,2020.2.9,Win32,60,2,1,1.269045,0,45,45,45,1,,,,,,
1,"[0,0,0,1,1,1,0,0,1,1,0,0,1,0,1,1,0,0,0,1,1,0,1,0,1,1,1,1,1,1,0,1,0,1]",,,,,,,,,,1,,,,,,stimuli/m5.jpg,stimuli/m2.jpg,2,stimuli/Electronic device & accessory.png,stimuli/Kitchen & utensil.png,stimuli/Hand labour tool & accessory.png,stimuli/Outdoor activity & sport item.png,4,1,2,stimuli/m2.jpg,Outdoor activity & sport item,stimuli/objects/swimgoggles.jpg,14,2021-05-15_13h01.57.572,premceCat2_ses-02_part-01_label-phase1,2020.2.9,Win32,60,4,1,1.808435,0,46,46,46,1,,,,,,
1,"[0,0,0,1,1,1,0,0,1,1,0,0,1,0,1,1,0,0,0,1,1,0,1,0,1,1,1,1,1,1,0,1,0,1,1]",,,,,,,,,,1,,,,,,stimuli/m5.jpg,stimuli/m2.jpg,1,stimuli/Hand labour tool & accessory.png,stimuli/Electronic device & accessory.png,stimuli/Kitchen & utensil.png,stimuli/Outdoor activity & sport item.png,1,1,2,stimuli/m5.jpg,Hand labour tool & accessory,stimuli/objects/wheel01.jpg,14,2021-05-15_13h01.57.572,premceCat2_ses-02_part-01_label-phase1,2020.2.9,Win32,60,1,1,1.868065,0,47,47,47,1,,,,,,
,,,,,,,,,,,,,,,,,,,,,,,,,,,,,,14,2021-05-15_13h01.57.572,premceCat2_ses-02_part-01_label-phase1,2020.2.9,Win32,60,,,,,,,,,0,0,0,0,1,condition_files/tasklistAplus3.csv
0,"[0,0,0,1,1,1,0,0,1,1,0,0,1,0,1,1,0,0,0,1,1,0,1,0,1,1,1,1,1,1,0,1,0,1,1,1]",,,,,,,,,,0,,,,,,stimuli/m2.jpg,stimuli/m5.jpg,2,stimuli/Outdoor activity & sport item.png,stimuli/Hand labour tool & accessory.png,stimuli/Electronic device & accessory.png,stimuli/Kitchen & utensil.png,4,1,3,stimuli/m5.jpg,Kitchen & utensil,stimuli/objects/corkscrew03a.jpg,14,2021-05-15_13h01.57.572,premceCat2_ses-02_part-01_label-phase1,2020.2.9,Win32,60,2,0,1.033295,0,0,0,0,1,,,,,,
1,"[0,0,0,1,1,1,0,0,1,1,0,0,1,0,1,1,0,0,0,1,1,0,1,0,1,1,1,1,1,1,0,1,0,1,1,1,0]",,,,,,,,,,1,,,,,,stimuli/m5.jpg,stimuli/m2.jpg,1,stimuli/Electronic device & accessory.png,stimuli/Kitchen & utensil.png,stimuli/Outdoor activity & sport item.png,stimuli/Hand labour tool & accessory.png,2,1,3,stimuli/m5.jpg,Kitchen & utensil,stimuli/objects/towel01.jpg,14,2021-05-15_13h01.57.572,premceCat2_ses-02_part-01_label-phase1,2020.2.9,Win32,60,2,1,0.9176,0,1,1,1,1,,,,,,
0,"[0,0,0,1,1,1,0,0,1,1,0,0,1,0,1,1,0,0,0,1,1,0,1,0,1,1,1,1,1,1,0,1,0,1,1,1,0,1]",,,,,,,,,,1,,,,,,stimuli/m5.jpg,stimuli/m2.jpg,1,stimuli/Hand labour tool & accessory.png,stimuli/Kitchen & utensil.png,stimuli/Electronic device & accessory.png,stimuli/Outdoor activity & sport item.png,4,0,3,stimuli/m5.jpg,Outdoor activity & sport item,stimuli/objects/weight01.jpg,14,2021-05-15_13h01.57.572,premceCat2_ses-02_part-01_label-phase1,2020.2.9,Win32,60,2,0,0.55095,0,2,2,2,1,,,,,,
0,"[0,0,0,1,1,1,0,0,1,1,0,0,1,0,1,1,0,0,0,1,1,0,1,0,1,1,1,1,1,1,0,1,0,1,1,1,0,1]",,,,,,,,,,0,,,,,,stimuli/m5.jpg,stimuli/m2.jpg,1,stimuli/Electronic device & accessory.png,stimuli/Outdoor activity & sport item.png,stimuli/Hand labour tool & accessory.png,stimuli/Kitchen & utensil.png,4,1,3,stimuli/m5.jpg,Kitchen & utensil,stimuli/objects/cork02.jpg,14,2021-05-15_13h01.57.572,premceCat2_ses-02_part-01_label-phase1,2020.2.9,Win32,60,2,0,1.353985,0,3,3,3,1,,,,,,
0,"[0,0,0,1,1,1,0,0,1,1,0,0,1,0,1,1,0,0,0,1,1,0,1,0,1,1,1,1,1,1,0,1,0,1,1,1,0,1,0]",,,,,,,,,,0,,,,,,stimuli/m2.jpg,stimuli/m5.jpg,1,stimuli/Hand labour tool & accessory.png,stimuli/Electronic device & accessory.png,stimuli/Outdoor activity & sport item.png,stimuli/Kitchen & utensil.png,2,1,3,stimuli/m2.jpg,Electronic device & accessory,stimuli/objects/usbkey.jpg,14,2021-05-15_13h01.57.572,premceCat2_ses-02_part-01_label-phase1,2020.2.9,Win32,60,3,0,1.295725,0,4,4,4,1,,,,,,
1,"[0,0,0,1,1,1,0,0,1,1,0,0,1,0,1,1,0,0,0,1,1,0,1,0,1,1,1,1,1,1,0,1,0,1,1,1,0,1,0,0]",,,,,,,,,,1,,,,,,stimuli/m2.jpg,stimuli/m5.jpg,2,stimuli/Hand labour tool & accessory.png,stimuli/Kitchen & utensil.png,stimuli/Electronic device & accessory.png,stimuli/Outdoor activity & sport item.png,2,1,3,stimuli/m5.jpg,Kitchen & utensil,stimuli/objects/tupperware03a.jpg,14,2021-05-15_13h01.57.572,premceCat2_ses-02_part-01_label-phase1,2020.2.9,Win32,60,2,1,1.136805,0,5,5,5,1,,,,,,
1,"[0,0,0,1,1,1,0,0,1,1,0,0,1,0,1,1,0,0,0,1,1,0,1,0,1,1,1,1,1,1,0,1,0,1,1,1,0,1,0,0,1]",,,,,,,,,,1,,,,,,stimuli/m5.jpg,stimuli/m2.jpg,2,stimuli/Electronic device & accessory.png,stimuli/Kitchen & utensil.png,stimuli/Hand labour tool & accessory.png,stimuli/Outdoor activity & sport item.png,1,1,3,stimuli/m2.jpg,Electronic device & accessory,stimuli/objects/cellphone.jpg,14,2021-05-15_13h01.57.572,premceCat2_ses-02_part-01_label-phase1,2020.2.9,Win32,60,1,1,0.88335,0,6,6,6,1,,,,,,
1,"[0,0,0,1,1,1,0,0,1,1,0,0,1,0,1,1,0,0,0,1,1,0,1,0,1,1,1,1,1,1,0,1,0,1,1,1,0,1,0,0,1,1]",,,,,,,,,,1,,,,,,stimuli/m2.jpg,stimuli/m5.jpg,2,stimuli/Outdoor activity & sport item.png,stimuli/Hand labour tool & accessory.png,stimuli/Kitchen & utensil.png,stimuli/Electronic device & accessory.png,3,1,3,stimuli/m5.jpg,Kitchen & utensil,stimuli/objects/butterknife.jpg,14,2021-05-15_13h01.57.572,premceCat2_ses-02_part-01_label-phase1,2020.2.9,Win32,60,3,1,1.38389,0,7,7,7,1,,,,,,
0,"[0,0,0,1,1,1,0,0,1,1,0,0,1,0,1,1,0,0,0,1,1,0,1,0,1,1,1,1,1,1,0,1,0,1,1,1,0,1,0,0,1,1,1]",,,,,,,,,,1,,,,,,stimuli/m5.jpg,stimuli/m2.jpg,2,stimuli/Kitchen & utensil.png,stimuli/Outdoor activity & sport item.png,stimuli/Hand labour tool & accessory.png,stimuli/Electronic device & accessory.png,2,0,3,stimuli/m2.jpg,Outdoor activity & sport item,stimuli/objects/badmintonracket.jpg,14,2021-05-15_13h01.57.572,premceCat2_ses-02_part-01_label-phase1,2020.2.9,Win32,60,4,0,1.4978,0,8,8,8,1,,,,,,
1,"[0,0,0,1,1,1,0,0,1,1,0,0,1,0,1,1,0,0,0,1,1,0,1,0,1,1,1,1,1,1,0,1,0,1,1,1,0,1,0,0,1,1,1]",,,,,,,,,,1,,,,,,stimuli/m5.jpg,stimuli/m2.jpg,1,stimuli/Outdoor activity & sport item.png,stimuli/Hand labour tool & accessory.png,stimuli/Kitchen & utensil.png,stimuli/Electronic device & accessory.png,3,1,3,stimuli/m5.jpg,Kitchen & utensil,stimuli/objects/travelmug.jpg,14,2021-05-15_13h01.57.572,premceCat2_ses-02_part-01_label-phase1,2020.2.9,Win32,60,3,1,0.729725,0,9,9,9,1,,,,,,
0,"[0,0,0,1,1,1,0,0,1,1,0,0,1,0,1,1,0,0,0,1,1,0,1,0,1,1,1,1,1,1,0,1,0,1,1,1,0,1,0,0,1,1,1,1]",,,,,,,,,,1,,,,,,stimuli/m5.jpg,stimuli/m2.jpg,2,stimuli/Kitchen & utensil.png,stimuli/Hand labour tool & accessory.png,stimuli/Electronic device & accessory.png,stimuli/Outdoor activity & sport item.png,2,0,3,stimuli/m2.jpg,Hand labour tool & accessory,stimuli/objects/tape02a.jpg,14,2021-05-15_13h01.57.572,premceCat2_ses-02_part-01_label-phase1,2020.2.9,Win32,60,4,0,1.634475,0,10,10,10,1,,,,,,
0,"[0,0,0,1,1,1,0,0,1,1,0,0,1,0,1,1,0,0,0,1,1,0,1,0,1,1,1,1,1,1,0,1,0,1,1,1,0,1,0,0,1,1,1,1]",,,,,,,,,,0,,,,,,stimuli/m5.jpg,stimuli/m2.jpg,2,stimuli/Outdoor activity & sport item.png,stimuli/Hand labour tool & accessory.png,stimuli/Electronic device & accessory.png,stimuli/Kitchen & utensil.png,3,1,3,stimuli/m2.jpg,Electronic device & accessory,stimuli/objects/filmnegative.jpg,14,2021-05-15_13h01.57.572,premceCat2_ses-02_part-01_label-phase1,2020.2.9,Win32,60,2,0,1.11537,0,11,11,11,1,,,,,,
0,"[0,0,0,1,1,1,0,0,1,1,0,0,1,0,1,1,0,0,0,1,1,0,1,0,1,1,1,1,1,1,0,1,0,1,1,1,0,1,0,0,1,1,1,1,0]",,,,,,,,,,0,,,,,,stimuli/m5.jpg,stimuli/m2.jpg,2,stimuli/Kitchen & utensil.png,stimuli/Hand labour tool & accessory.png,stimuli/Outdoor activity & sport item.png,stimuli/Electronic device & accessory.png,4,1,3,stimuli/m2.jpg,Electronic device & accessory,stimuli/objects/securitycamera.jpg,14,2021-05-15_13h01.57.572,premceCat2_ses-02_part-01_label-phase1,2020.2.9,Win32,60,2,0,1.11621,0,12,12,12,1,,,,,,
0,"[0,0,0,1,1,1,0,0,1,1,0,0,1,0,1,1,0,0,0,1,1,0,1,0,1,1,1,1,1,1,0,1,0,1,1,1,0,1,0,0,1,1,1,1,0,0]",,,,,,,,,,0,,,,,,stimuli/m2.jpg,stimuli/m5.jpg,2,stimuli/Electronic device & accessory.png,stimuli/Hand labour tool & accessory.png,stimuli/Kitchen & utensil.png,stimuli/Outdoor activity & sport item.png,1,0,3,stimuli/m5.jpg,Electronic device & accessory,stimuli/objects/airconditioner.jpg,14,2021-05-15_13h01.57.572,premceCat2_ses-02_part-01_label-phase1,2020.2.9,Win32,60,3,0,0.856805,0,13,13,13,1,,,,,,
1,"[0,0,0,1,1,1,0,0,1,1,0,0,1,0,1,1,0,0,0,1,1,0,1,0,1,1,1,1,1,1,0,1,0,1,1,1,0,1,0,0,1,1,1,1,0,0]",,,,,,,,,,1,,,,,,stimuli/m2.jpg,stimuli/m5.jpg,1,stimuli/Outdoor activity & sport item.png,stimuli/Hand labour tool & accessory.png,stimuli/Kitchen & utensil.png,stimuli/Electronic device & accessory.png,4,1,3,stimuli/m2.jpg,Electronic device & accessory,stimuli/objects/nintendods.jpg,14,2021-05-15_13h01.57.572,premceCat2_ses-02_part-01_label-phase1,2020.2.9,Win32,60,4,1,1.030015,0,14,14,14,1,,,,,,
1,"[0,0,0,1,1,1,0,0,1,1,0,0,1,0,1,1,0,0,0,1,1,0,1,0,1,1,1,1,1,1,0,1,0,1,1,1,0,1,0,0,1,1,1,1,0,0,1]",,,,,,,,,,1,,,,,,stimuli/m5.jpg,stimuli/m2.jpg,2,stimuli/Outdoor activity & sport item.png,stimuli/Kitchen & utensil.png,stimuli/Hand labour tool & accessory.png,stimuli/Electronic device & accessory.png,4,1,3,stimuli/m2.jpg,Electronic device & accessory,stimuli/objects/dvdplayer.jpg,14,2021-05-15_13h01.57.572,premceCat2_ses-02_part-01_label-phase1,2020.2.9,Win32,60,4,1,0.985685,0,15,15,15,1,,,,,,
0,"[0,0,0,1,1,1,0,0,1,1,0,0,1,0,1,1,0,0,0,1,1,0,1,0,1,1,1,1,1,1,0,1,0,1,1,1,0,1,0,0,1,1,1,1,0,0,1,1]",,,,,,,,,,1,,,,,,stimuli/m2.jpg,stimuli/m5.jpg,1,stimuli/Kitchen & utensil.png,stimuli/Hand labour tool & accessory.png,stimuli/Electronic device & accessory.png,stimuli/Outdoor activity & sport item.png,2,0,3,stimuli/m2.jpg,Hand labour tool & accessory,stimuli/objects/gluetube.jpg,14,2021-05-15_13h01.57.572,premceCat2_ses-02_part-01_label-phase1,2020.2.9,Win32,60,3,0,0.834115,0,16,16,16,1,,,,,,
0,"[0,0,0,1,1,1,0,0,1,1,0,0,1,0,1,1,0,0,0,1,1,0,1,0,1,1,1,1,1,1,0,1,0,1,1,1,0,1,0,0,1,1,1,1,0,0,1,1]",,,,,,,,,,0,,,,,,stimuli/m5.jpg,stimuli/m2.jpg,2,stimuli/Outdoor activity & sport item.png,stimuli/Electronic device & accessory.png,stimuli/Hand labour tool & accessory.png,stimuli/Kitchen & utensil.png,2,1,3,stimuli/m2.jpg,Electronic device & accessory,stimuli/objects/expansioncard.jpg,14,2021-05-15_13h01.57.572,premceCat2_ses-02_part-01_label-phase1,2020.2.9,Win32,60,3,0,0.776565,0,17,17,17,1,,,,,,
1,"[0,0,0,1,1,1,0,0,1,1,0,0,1,0,1,1,0,0,0,1,1,0,1,0,1,1,1,1,1,1,0,1,0,1,1,1,0,1,0,0,1,1,1,1,0,0,1,1,0]",,,,,,,,,,1,,,,,,stimuli/m5.jpg,stimuli/m2.jpg,1,stimuli/Electronic device & accessory.png,stimuli/Hand labour tool & accessory.png,stimuli/Outdoor activity & sport item.png,stimuli/Kitchen & utensil.png,4,1,3,stimuli/m5.jpg,Kitchen & utensil,stimuli/objects/funnel.jpg,14,2021-05-15_13h01.57.572,premceCat2_ses-02_part-01_label-phase1,2020.2.9,Win32,60,4,1,1.151525,0,18,18,18,1,,,,,,
0,"[0,0,0,1,1,1,0,0,1,1,0,0,1,0,1,1,0,0,0,1,1,0,1,0,1,1,1,1,1,1,0,1,0,1,1,1,0,1,0,0,1,1,1,1,0,0,1,1,0,1]",,,,,,,,,,0,,,,,,stimuli/m2.jpg,stimuli/m5.jpg,1,stimuli/Kitchen & utensil.png,stimuli/Outdoor activity & sport item.png,stimuli/Hand labour tool & accessory.png,stimuli/Electronic device & accessory.png,4,1,3,stimuli/m2.jpg,Electronic device & accessory,stimuli/objects/photocopier.jpg,14,2021-05-15_13h01.57.572,premceCat2_ses-02_part-01_label-phase1,2020.2.9,Win32,60,3,0,1.414875,0,19,19,19,1,,,,,,
1,"[0,0,0,1,1,1,0,0,1,1,0,0,1,0,1,1,0,0,0,1,1,0,1,0,1,1,1,1,1,1,0,1,0,1,1,1,0,1,0,0,1,1,1,1,0,0,1,1,0,1,0]",,,,,,,,,,1,,,,,,stimuli/m5.jpg,stimuli/m2.jpg,2,stimuli/Electronic device & accessory.png,stimuli/Hand labour tool & accessory.png,stimuli/Kitchen & utensil.png,stimuli/Outdoor activity & sport item.png,1,1,3,stimuli/m2.jpg,Electronic device & accessory,stimuli/objects/electricoutlet.jpg,14,2021-05-15_13h01.57.572,premceCat2_ses-02_part-01_label-phase1,2020.2.9,Win32,60,1,1,0.78426,0,20,20,20,1,,,,,,
1,"[0,0,0,1,1,1,0,0,1,1,0,0,1,0,1,1,0,0,0,1,1,0,1,0,1,1,1,1,1,1,0,1,0,1,1,1,0,1,0,0,1,1,1,1,0,0,1,1,0,1,0,1]",,,,,,,,,,1,,,,,,stimuli/m2.jpg,stimuli/m5.jpg,2,stimuli/Hand labour tool & accessory.png,stimuli/Kitchen & utensil.png,stimuli/Outdoor activity & sport item.png,stimuli/Electronic device & accessory.png,2,1,3,stimuli/m5.jpg,Kitchen & utensil,stimuli/objects/cookiecutter.jpg,14,2021-05-15_13h01.57.572,premceCat2_ses-02_part-01_label-phase1,2020.2.9,Win32,60,2,1,0.971035,0,21,21,21,1,,,,,,
1,"[0,0,0,1,1,1,0,0,1,1,0,0,1,0,1,1,0,0,0,1,1,0,1,0,1,1,1,1,1,1,0,1,0,1,1,1,0,1,0,0,1,1,1,1,0,0,1,1,0,1,0,1,1]",,,,,,,,,,1,,,,,,stimuli/m2.jpg,stimuli/m5.jpg,2,stimuli/Electronic device & accessory.png,stimuli/Hand labour tool & accessory.png,stimuli/Outdoor activity & sport item.png,stimuli/Kitchen & utensil.png,4,1,3,stimuli/m5.jpg,Kitchen & utensil,stimuli/objects/saladspinner.jpg,14,2021-05-15_13h01.57.572,premceCat2_ses-02_part-01_label-phase1,2020.2.9,Win32,60,4,1,1.0952,0,22,22,22,1,,,,,,
1,"[0,0,0,1,1,1,0,0,1,1,0,0,1,0,1,1,0,0,0,1,1,0,1,0,1,1,1,1,1,1,0,1,0,1,1,1,0,1,0,0,1,1,1,1,0,0,1,1,0,1,0,1,1,1]",,,,,,,,,,1,,,,,,stimuli/m2.jpg,stimuli/m5.jpg,1,stimuli/Electronic device & accessory.png,stimuli/Outdoor activity & sport item.png,stimuli/Hand labour tool & accessory.png,stimuli/Kitchen & utensil.png,1,1,3,stimuli/m2.jpg,Electronic device & accessory,stimuli/objects/extensioncord.jpg,14,2021-05-15_13h01.57.572,premceCat2_ses-02_part-01_label-phase1,2020.2.9,Win32,60,1,1,1.01985,0,23,23,23,1,,,,,,
1,"[0,0,0,1,1,1,0,0,1,1,0,0,1,0,1,1,0,0,0,1,1,0,1,0,1,1,1,1,1,1,0,1,0,1,1,1,0,1,0,0,1,1,1,1,0,0,1,1,0,1,0,1,1,1,1]",,,,,,,,,,1,,,,,,stimuli/m2.jpg,stimuli/m5.jpg,2,stimuli/Outdoor activity & sport item.png,stimuli/Electronic device & accessory.png,stimuli/Hand labour tool & accessory.png,stimuli/Kitchen & utensil.png,4,1,3,stimuli/m5.jpg,Kitchen & utensil,stimuli/objects/bowl02a.jpg,14,2021-05-15_13h01.57.572,premceCat2_ses-02_part-01_label-phase1,2020.2.9,Win32,60,4,1,0.79727,0,24,24,24,1,,,,,,
0,"[0,0,0,1,1,1,0,0,1,1,0,0,1,0,1,1,0,0,0,1,1,0,1,0,1,1,1,1,1,1,0,1,0,1,1,1,0,1,0,0,1,1,1,1,0,0,1,1,0,1,0,1,1,1,1,1]",,,,,,,,,,1,,,,,,stimuli/m2.jpg,stimuli/m5.jpg,1,stimuli/Outdoor activity & sport item.png,stimuli/Electronic device & accessory.png,stimuli/Kitchen & utensil.png,stimuli/Hand labour tool & accessory.png,3,0,3,stimuli/m2.jpg,Kitchen & utensil,stimuli/objects/dishrack.jpg,14,2021-05-15_13h01.57.572,premceCat2_ses-02_part-01_label-phase1,2020.2.9,Win32,60,2,0,0.732975,0,25,25,25,1,,,,,,
1,"[0,0,0,1,1,1,0,0,1,1,0,0,1,0,1,1,0,0,0,1,1,0,1,0,1,1,1,1,1,1,0,1,0,1,1,1,0,1,0,0,1,1,1,1,0,0,1,1,0,1,0,1,1,1,1,1]",,,,,,,,,,1,,,,,,stimuli/m2.jpg,stimuli/m5.jpg,1,stimuli/Outdoor activity & sport item.png,stimuli/Electronic device & accessory.png,stimuli/Hand labour tool & accessory.png,stimuli/Kitchen & utensil.png,2,1,3,stimuli/m2.jpg,Electronic device & accessory,stimuli/objects/fluorescentlightbulb.jpg,14,2021-05-15_13h01.57.572,premceCat2_ses-02_part-01_label-phase1,2020.2.9,Win32,60,2,1,1.21583,0,26,26,26,1,,,,,,
1,"[0,0,0,1,1,1,0,0,1,1,0,0,1,0,1,1,0,0,0,1,1,0,1,0,1,1,1,1,1,1,0,1,0,1,1,1,0,1,0,0,1,1,1,1,0,0,1,1,0,1,0,1,1,1,1,1,1]",,,,,,,,,,1,,,,,,stimuli/m2.jpg,stimuli/m5.jpg,1,stimuli/Hand labour tool & accessory.png,stimuli/Outdoor activity & sport item.png,stimuli/Kitchen & utensil.png,stimuli/Electronic device & accessory.png,4,1,3,stimuli/m2.jpg,Electronic device & accessory,stimuli/objects/gps.jpg,14,2021-05-15_13h01.57.572,premceCat2_ses-02_part-01_label-phase1,2020.2.9,Win32,60,4,1,1.183465,0,27,27,27,1,,,,,,
0,"[0,0,0,1,1,1,0,0,1,1,0,0,1,0,1,1,0,0,0,1,1,0,1,0,1,1,1,1,1,1,0,1,0,1,1,1,0,1,0,0,1,1,1,1,0,0,1,1,0,1,0,1,1,1,1,1,1,1]",,,,,,,,,,1,,,,,,stimuli/m5.jpg,stimuli/m2.jpg,1,stimuli/Outdoor activity & sport item.png,stimuli/Electronic device & accessory.png,stimuli/Kitchen & utensil.png,stimuli/Hand labour tool & accessory.png,4,0,3,stimuli/m5.jpg,Hand labour tool & accessory,stimuli/objects/gastank.jpg,14,2021-05-15_13h01.57.572,premceCat2_ses-02_part-01_label-phase1,2020.2.9,Win32,60,3,0,0.883645,0,28,28,28,1,,,,,,
0,"[0,0,0,1,1,1,0,0,1,1,0,0,1,0,1,1,0,0,0,1,1,0,1,0,1,1,1,1,1,1,0,1,0,1,1,1,0,1,0,0,1,1,1,1,0,0,1,1,0,1,0,1,1,1,1,1,1,1]",,,,,,,,,,1,,,,,,stimuli/m5.jpg,stimuli/m2.jpg,1,stimuli/Hand labour tool & accessory.png,stimuli/Electronic device & accessory.png,stimuli/Kitchen & utensil.png,stimuli/Outdoor activity & sport item.png,4,0,3,stimuli/m5.jpg,Outdoor activity & sport item,stimuli/objects/ellipticalmachine.jpg,14,2021-05-15_13h01.57.572,premceCat2_ses-02_part-01_label-phase1,2020.2.9,Win32,60,3,0,1.184345,0,29,29,29,1,,,,,,
0,"[0,0,0,1,1,1,0,0,1,1,0,0,1,0,1,1,0,0,0,1,1,0,1,0,1,1,1,1,1,1,0,1,0,1,1,1,0,1,0,0,1,1,1,1,0,0,1,1,0,1,0,1,1,1,1,1,1,1]",,,,,,,,,,0,,,,,,stimuli/m2.jpg,stimuli/m5.jpg,2,stimuli/Electronic device & accessory.png,stimuli/Outdoor activity & sport item.png,stimuli/Kitchen & utensil.png,stimuli/Hand labour tool & accessory.png,3,1,3,stimuli/m5.jpg,Kitchen & utensil,stimuli/objects/handmixer01d.jpg,14,2021-05-15_13h01.57.572,premceCat2_ses-02_part-01_label-phase1,2020.2.9,Win32,60,2,0,1.590435,0,30,30,30,1,,,,,,
1,"[0,0,0,1,1,1,0,0,1,1,0,0,1,0,1,1,0,0,0,1,1,0,1,0,1,1,1,1,1,1,0,1,0,1,1,1,0,1,0,0,1,1,1,1,0,0,1,1,0,1,0,1,1,1,1,1,1,1,0]",,,,,,,,,,1,,,,,,stimuli/m2.jpg,stimuli/m5.jpg,1,stimuli/Electronic device & accessory.png,stimuli/Kitchen & utensil.png,stimuli/Outdoor activity & sport item.png,stimuli/Hand labour tool & accessory.png,1,1,3,stimuli/m2.jpg,Electronic device & accessory,stimuli/objects/ipod.jpg,14,2021-05-15_13h01.57.572,premceCat2_ses-02_part-01_label-phase1,2020.2.9,Win32,60,1,1,1.701155,0,31,31,31,1,,,,,,
0,"[0,0,0,1,1,1,0,0,1,1,0,0,1,0,1,1,0,0,0,1,1,0,1,0,1,1,1,1,1,1,0,1,0,1,1,1,0,1,0,0,1,1,1,1,0,0,1,1,0,1,0,1,1,1,1,1,1,1,0,1]",,,,,,,,,,1,,,,,,stimuli/m5.jpg,stimuli/m2.jpg,1,stimuli/Kitchen & utensil.png,stimuli/Outdoor activity & sport item.png,stimuli/Hand labour tool & accessory.png,stimuli/Electronic device & accessory.png,4,0,3,stimuli/m5.jpg,Electronic device & accessory,stimuli/objects/outletadapter.jpg,14,2021-05-15_13h01.57.572,premceCat2_ses-02_part-01_label-phase1,2020.2.9,Win32,60,2,0,1.828335,0,32,32,32,1,,,,,,
0,"[0,0,0,1,1,1,0,0,1,1,0,0,1,0,1,1,0,0,0,1,1,0,1,0,1,1,1,1,1,1,0,1,0,1,1,1,0,1,0,0,1,1,1,1,0,0,1,1,0,1,0,1,1,1,1,1,1,1,0,1]",,,,,,,,,,0,,,,,,stimuli/m5.jpg,stimuli/m2.jpg,1,stimuli/Kitchen & utensil.png,stimuli/Electronic device & accessory.png,stimuli/Outdoor activity & sport item.png,stimuli/Hand labour tool & accessory.png,1,1,3,stimuli/m5.jpg,Kitchen & utensil,stimuli/objects/toothpick02.jpg,14,2021-05-15_13h01.57.572,premceCat2_ses-02_part-01_label-phase1,2020.2.9,Win32,60,3,0,0.59577,0,33,33,33,1,,,,,,
1,"[0,0,0,1,1,1,0,0,1,1,0,0,1,0,1,1,0,0,0,1,1,0,1,0,1,1,1,1,1,1,0,1,0,1,1,1,0,1,0,0,1,1,1,1,0,0,1,1,0,1,0,1,1,1,1,1,1,1,0,1,0]",,,,,,,,,,1,,,,,,stimuli/m2.jpg,stimuli/m5.jpg,2,stimuli/Outdoor activity & sport item.png,stimuli/Kitchen & utensil.png,stimuli/Electronic device & accessory.png,stimuli/Hand labour tool & accessory.png,2,1,3,stimuli/m5.jpg,Kitchen & utensil,stimuli/objects/gasburner.jpg,14,2021-05-15_13h01.57.572,premceCat2_ses-02_part-01_label-phase1,2020.2.9,Win32,60,2,1,1.39542,0,34,34,34,1,,,,,,
1,"[0,0,0,1,1,1,0,0,1,1,0,0,1,0,1,1,0,0,0,1,1,0,1,0,1,1,1,1,1,1,0,1,0,1,1,1,0,1,0,0,1,1,1,1,0,0,1,1,0,1,0,1,1,1,1,1,1,1,0,1,0,1]",,,,,,,,,,1,,,,,,stimuli/m5.jpg,stimuli/m2.jpg,2,stimuli/Electronic device & accessory.png,stimuli/Kitchen & utensil.png,stimuli/Outdoor activity & sport item.png,stimuli/Hand labour tool & accessory.png,1,1,3,stimuli/m2.jpg,Electronic device & accessory,stimuli/objects/desktopcomputer.jpg,14,2021-05-15_13h01.57.572,premceCat2_ses-02_part-01_label-phase1,2020.2.9,Win32,60,1,1,1.335595,0,35,35,35,1,,,,,,
1,"[0,0,0,1,1,1,0,0,1,1,0,0,1,0,1,1,0,0,0,1,1,0,1,0,1,1,1,1,1,1,0,1,0,1,1,1,0,1,0,0,1,1,1,1,0,0,1,1,0,1,0,1,1,1,1,1,1,1,0,1,0,1,1]",,,,,,,,,,1,,,,,,stimuli/m5.jpg,stimuli/m2.jpg,1,stimuli/Outdoor activity & sport item.png,stimuli/Kitchen & utensil.png,stimuli/Hand labour tool & accessory.png,stimuli/Electronic device & accessory.png,2,1,3,stimuli/m5.jpg,Kitchen & utensil,stimuli/objects/thermos.jpg,14,2021-05-15_13h01.57.572,premceCat2_ses-02_part-01_label-phase1,2020.2.9,Win32,60,2,1,0.767785,0,36,36,36,1,,,,,,
1,"[0,0,0,1,1,1,0,0,1,1,0,0,1,0,1,1,0,0,0,1,1,0,1,0,1,1,1,1,1,1,0,1,0,1,1,1,0,1,0,0,1,1,1,1,0,0,1,1,0,1,0,1,1,1,1,1,1,1,0,1,0,1,1,1]",,,,,,,,,,1,,,,,,stimuli/m2.jpg,stimuli/m5.jpg,2,stimuli/Outdoor activity & sport item.png,stimuli/Electronic device & accessory.png,stimuli/Kitchen & utensil.png,stimuli/Hand labour tool & accessory.png,3,1,3,stimuli/m5.jpg,Kitchen & utensil,stimuli/objects/breadknife.jpg,14,2021-05-15_13h01.57.572,premceCat2_ses-02_part-01_label-phase1,2020.2.9,Win32,60,3,1,1.180585,0,37,37,37,1,,,,,,
1,"[0,0,0,1,1,1,0,0,1,1,0,0,1,0,1,1,0,0,0,1,1,0,1,0,1,1,1,1,1,1,0,1,0,1,1,1,0,1,0,0,1,1,1,1,0,0,1,1,0,1,0,1,1,1,1,1,1,1,0,1,0,1,1,1,1]",,,,,,,,,,1,,,,,,stimuli/m2.jpg,stimuli/m5.jpg,2,stimuli/Hand labour tool & accessory.png,stimuli/Electronic device & accessory.png,stimuli/Outdoor activity & sport item.png,stimuli/Kitchen & utensil.png,4,1,3,stimuli/m5.jpg,Kitchen & utensil,stimuli/objects/hourglass.jpg,14,2021-05-15_13h01.57.572,premceCat2_ses-02_part-01_label-phase1,2020.2.9,Win32,60,4,1,1.201905,0,38,38,38,1,,,,,,
1,"[0,0,0,1,1,1,0,0,1,1,0,0,1,0,1,1,0,0,0,1,1,0,1,0,1,1,1,1,1,1,0,1,0,1,1,1,0,1,0,0,1,1,1,1,0,0,1,1,0,1,0,1,1,1,1,1,1,1,0,1,0,1,1,1,1,1]",,,,,,,,,,1,,,,,,stimuli/m2.jpg,stimuli/m5.jpg,2,stimuli/Outdoor activity & sport item.png,stimuli/Kitchen & utensil.png,stimuli/Hand labour tool & accessory.png,stimuli/Electronic device & accessory.png,2,1,3,stimuli/m5.jpg,Kitchen & utensil,stimuli/objects/tray.jpg,14,2021-05-15_13h01.57.572,premceCat2_ses-02_part-01_label-phase1,2020.2.9,Win32,60,2,1,1.211475,0,39,39,39,1,,,,,,
0,"[0,0,0,1,1,1,0,0,1,1,0,0,1,0,1,1,0,0,0,1,1,0,1,0,1,1,1,1,1,1,0,1,0,1,1,1,0,1,0,0,1,1,1,1,0,0,1,1,0,1,0,1,1,1,1,1,1,1,0,1,0,1,1,1,1,1,1]",,,,,,,,,,1,,,,,,stimuli/m5.jpg,stimuli/m2.jpg,1,stimuli/Electronic device & accessory.png,stimuli/Hand labour tool & accessory.png,stimuli/Kitchen & utensil.png,stimuli/Outdoor activity & sport item.png,2,0,3,stimuli/m5.jpg,Hand labour tool & accessory,stimuli/objects/knifesharpener.jpg,14,2021-05-15_13h01.57.572,premceCat2_ses-02_part-01_label-phase1,2020.2.9,Win32,60,3,0,0.785,0,40,40,40,1,,,,,,
1,"[0,0,0,1,1,1,0,0,1,1,0,0,1,0,1,1,0,0,0,1,1,0,1,0,1,1,1,1,1,1,0,1,0,1,1,1,0,1,0,0,1,1,1,1,0,0,1,1,0,1,0,1,1,1,1,1,1,1,0,1,0,1,1,1,1,1,1]",,,,,,,,,,1,,,,,,stimuli/m2.jpg,stimuli/m5.jpg,1,stimuli/Kitchen & utensil.png,stimuli/Outdoor activity & sport item.png,stimuli/Electronic device & accessory.png,stimuli/Hand labour tool & accessory.png,3,1,3,stimuli/m2.jpg,Electronic device & accessory,stimuli/objects/fanblades.jpg,14,2021-05-15_13h01.57.572,premceCat2_ses-02_part-01_label-phase1,2020.2.9,Win32,60,3,1,1.22926,0,41,41,41,1,,,,,,
1,"[0,0,0,1,1,1,0,0,1,1,0,0,1,0,1,1,0,0,0,1,1,0,1,0,1,1,1,1,1,1,0,1,0,1,1,1,0,1,0,0,1,1,1,1,0,0,1,1,0,1,0,1,1,1,1,1,1,1,0,1,0,1,1,1,1,1,1,1]",,,,,,,,,,1,,,,,,stimuli/m5.jpg,stimuli/m2.jpg,2,stimuli/Outdoor activity & sport item.png,stimuli/Hand labour tool & accessory.png,stimuli/Kitchen & utensil.png,stimuli/Electronic device & accessory.png,4,1,3,stimuli/m2.jpg,Electronic device & accessory,stimuli/objects/djmixer02.jpg,14,2021-05-15_13h01.57.572,premceCat2_ses-02_part-01_label-phase1,2020.2.9,Win32,60,4,1,0.872235,0,42,42,42,1,,,,,,
1,"[0,0,0,1,1,1,0,0,1,1,0,0,1,0,1,1,0,0,0,1,1,0,1,0,1,1,1,1,1,1,0,1,0,1,1,1,0,1,0,0,1,1,1,1,0,0,1,1,0,1,0,1,1,1,1,1,1,1,0,1,0,1,1,1,1,1,1,1,1]",,,,,,,,,,1,,,,,,stimuli/m5.jpg,stimuli/m2.jpg,2,stimuli/Electronic device & accessory.png,stimuli/Outdoor activity & sport item.png,stimuli/Hand labour tool & accessory.png,stimuli/Kitchen & utensil.png,1,1,3,stimuli/m2.jpg,Electronic device & accessory,stimuli/objects/satellitedish01.jpg,14,2021-05-15_13h01.57.572,premceCat2_ses-02_part-01_label-phase1,2020.2.9,Win32,60,1,1,0.913625,0,43,43,43,1,,,,,,
1,"[0,0,0,1,1,1,0,0,1,1,0,0,1,0,1,1,0,0,0,1,1,0,1,0,1,1,1,1,1,1,0,1,0,1,1,1,0,1,0,0,1,1,1,1,0,0,1,1,0,1,0,1,1,1,1,1,1,1,0,1,0,1,1,1,1,1,1,1,1,1]",,,,,,,,,,1,,,,,,stimuli/m2.jpg,stimuli/m5.jpg,2,stimuli/Electronic device & accessory.png,stimuli/Kitchen & utensil.png,stimuli/Hand labour tool & accessory.png,stimuli/Outdoor activity & sport item.png,2,1,3,stimuli/m5.jpg,Kitchen & utensil,stimuli/objects/cookingpot.jpg,14,2021-05-15_13h01.57.572,premceCat2_ses-02_part-01_label-phase1,2020.2.9,Win32,60,2,1,0.823955,0,44,44,44,1,,,,,,
0,"[0,0,0,1,1,1,0,0,1,1,0,0,1,0,1,1,0,0,0,1,1,0,1,0,1,1,1,1,1,1,0,1,0,1,1,1,0,1,0,0,1,1,1,1,0,0,1,1,0,1,0,1,1,1,1,1,1,1,0,1,0,1,1,1,1,1,1,1,1,1,1]",,,,,,,,,,1,,,,,,stimuli/m5.jpg,stimuli/m2.jpg,2,stimuli/Hand labour tool & accessory.png,stimuli/Outdoor activity & sport item.png,stimuli/Kitchen & utensil.png,stimuli/Electronic device & accessory.png,3,0,3,stimuli/m2.jpg,Kitchen & utensil,stimuli/objects/peeler01.jpg,14,2021-05-15_13h01.57.572,premceCat2_ses-02_part-01_label-phase1,2020.2.9,Win32,60,4,0,0.85145,0,45,45,45,1,,,,,,
0,"[0,0,0,1,1,1,0,0,1,1,0,0,1,0,1,1,0,0,0,1,1,0,1,0,1,1,1,1,1,1,0,1,0,1,1,1,0,1,0,0,1,1,1,1,0,0,1,1,0,1,0,1,1,1,1,1,1,1,0,1,0,1,1,1,1,1,1,1,1,1,1]",,,,,,,,,,1,,,,,,stimuli/m5.jpg,stimuli/m2.jpg,2,stimuli/Kitchen & utensil.png,stimuli/Electronic device & accessory.png,stimuli/Outdoor activity & sport item.png,stimuli/Hand labour tool & accessory.png,3,0,3,stimuli/m2.jpg,Outdoor activity & sport item,stimuli/objects/outdoorheater.jpg,14,2021-05-15_13h01.57.572,premceCat2_ses-02_part-01_label-phase1,2020.2.9,Win32,60,1,0,1.196685,0,46,46,46,1,,,,,,
1,"[0,0,0,1,1,1,0,0,1,1,0,0,1,0,1,1,0,0,0,1,1,0,1,0,1,1,1,1,1,1,0,1,0,1,1,1,0,1,0,0,1,1,1,1,0,0,1,1,0,1,0,1,1,1,1,1,1,1,0,1,0,1,1,1,1,1,1,1,1,1,1]",,,,,,,,,,1,,,,,,stimuli/m2.jpg,stimuli/m5.jpg,1,stimuli/Hand labour tool & accessory.png,stimuli/Outdoor activity & sport item.png,stimuli/Electronic device & accessory.png,stimuli/Kitchen & utensil.png,3,1,3,stimuli/m2.jpg,Electronic device & accessory,stimuli/objects/lamp04a.jpg,14,2021-05-15_13h01.57.572,premceCat2_ses-02_part-01_label-phase1,2020.2.9,Win32,60,3,1,1.597955,0,47,47,47,1,,,,,,
,,,,,,,,,,,,,,,,,,,,,,,,,,,,,,14,2021-05-15_13h01.57.572,premceCat2_ses-02_part-01_label-phase1,2020.2.9,Win32,60,,,,,,,,,0,1,1,1,1,condition_files/tasklistB3.csv
0,"[0,0,0,1,1,1,0,0,1,1,0,0,1,0,1,1,0,0,0,1,1,0,1,0,1,1,1,1,1,1,0,1,0,1,1,1,0,1,0,0,1,1,1,1,0,0,1,1,0,1,0,1,1,1,1,1,1,1,0,1,0,1,1,1,1,1,1,1,1,1,1,1]",,,,,,,,,,1,,,,,,stimuli/m5.jpg,stimuli/m2.jpg,1,stimuli/Electronic device & accessory.png,stimuli/Outdoor activity & sport item.png,stimuli/Kitchen & utensil.png,stimuli/Hand labour tool & accessory.png,2,0,4,stimuli/m5.jpg,Outdoor activity & sport item,stimuli/objects/bikelock.jpg,14,2021-05-15_13h01.57.572,premceCat2_ses-02_part-01_label-phase1,2020.2.9,Win32,60,3,0,0.850955,0,0,0,0,1,,,,,,
0,"[0,0,0,1,1,1,0,0,1,1,0,0,1,0,1,1,0,0,0,1,1,0,1,0,1,1,1,1,1,1,0,1,0,1,1,1,0,1,0,0,1,1,1,1,0,0,1,1,0,1,0,1,1,1,1,1,1,1,0,1,0,1,1,1,1,1,1,1,1,1,1,1]",,,,,,,,,,0,,,,,,stimuli/m5.jpg,stimuli/m2.jpg,2,stimuli/Outdoor activity & sport item.png,stimuli/Electronic device & accessory.png,stimuli/Kitchen & utensil.png,stimuli/Hand labour tool & accessory.png,3,1,4,stimuli/m2.jpg,Kitchen & utensil,stimuli/objects/pitcher02b.jpg,14,2021-05-15_13h01.57.572,premceCat2_ses-02_part-01_label-phase1,2020.2.9,Win32,60,2,0,0.83038,0,1,1,1,1,,,,,,
1,"[0,0,0,1,1,1,0,0,1,1,0,0,1,0,1,1,0,0,0,1,1,0,1,0,1,1,1,1,1,1,0,1,0,1,1,1,0,1,0,0,1,1,1,1,0,0,1,1,0,1,0,1,1,1,1,1,1,1,0,1,0,1,1,1,1,1,1,1,1,1,1,1,0]",,,,,,,,,,1,,,,,,stimuli/m2.jpg,stimuli/m5.jpg,1,stimuli/Hand labour tool & accessory.png,stimuli/Electronic device & accessory.png,stimuli/Outdoor activity & sport item.png,stimuli/Kitchen & utensil.png,4,1,4,stimuli/m2.jpg,Kitchen & utensil,stimuli/objects/oven.jpg,14,2021-05-15_13h01.57.572,premceCat2_ses-02_part-01_label-phase1,2020.2.9,Win32,60,4,1,1.04227,0,2,2,2,1,,,,,,
1,"[0,0,0,1,1,1,0,0,1,1,0,0,1,0,1,1,0,0,0,1,1,0,1,0,1,1,1,1,1,1,0,1,0,1,1,1,0,1,0,0,1,1,1,1,0,0,1,1,0,1,0,1,1,1,1,1,1,1,0,1,0,1,1,1,1,1,1,1,1,1,1,1,0,1]",,,,,,,,,,1,,,,,,stimuli/m5.jpg,stimuli/m2.jpg,2,stimuli/Hand labour tool & accessory.png,stimuli/Kitchen & utensil.png,stimuli/Electronic device & accessory.png,stimuli/Outdoor activity & sport item.png,2,1,4,stimuli/m2.jpg,Kitchen & utensil,stimuli/objects/pot01.jpg,14,2021-05-15_13h01.57.572,premceCat2_ses-02_part-01_label-phase1,2020.2.9,Win32,60,2,1,0.8977,0,3,3,3,1,,,,,,
1,"[0,0,0,1,1,1,0,0,1,1,0,0,1,0,1,1,0,0,0,1,1,0,1,0,1,1,1,1,1,1,0,1,0,1,1,1,0,1,0,0,1,1,1,1,0,0,1,1,0,1,0,1,1,1,1,1,1,1,0,1,0,1,1,1,1,1,1,1,1,1,1,1,0,1,1]",,,,,,,,,,1,,,,,,stimuli/m2.jpg,stimuli/m5.jpg,1,stimuli/Kitchen & utensil.png,stimuli/Hand labour tool & accessory.png,stimuli/Electronic device & accessory.png,stimuli/Outdoor activity & sport item.png,1,1,4,stimuli/m2.jpg,Kitchen & utensil,stimuli/objects/muffintray01.jpg,14,2021-05-15_13h01.57.572,premceCat2_ses-02_part-01_label-phase1,2020.2.9,Win32,60,1,1,1.149285,0,4,4,4,1,,,,,,
0,"[0,0,0,1,1,1,0,0,1,1,0,0,1,0,1,1,0,0,0,1,1,0,1,0,1,1,1,1,1,1,0,1,0,1,1,1,0,1,0,0,1,1,1,1,0,0,1,1,0,1,0,1,1,1,1,1,1,1,0,1,0,1,1,1,1,1,1,1,1,1,1,1,0,1,1,1]",,,,,,,,,,0,,,,,,stimuli/m5.jpg,stimuli/m2.jpg,1,stimuli/Kitchen & utensil.png,stimuli/Outdoor activity & sport item.png,stimuli/Hand labour tool & accessory.png,stimuli/Electronic device & accessory.png,3,1,4,stimuli/m5.jpg,Hand labour tool & accessory,stimuli/objects/wateringcan.jpg,14,2021-05-15_13h01.57.572,premceCat2_ses-02_part-01_label-phase1,2020.2.9,Win32,60,2,0,1.396005,0,5,5,5,1,,,,,,
0,"[0,0,0,1,1,1,0,0,1,1,0,0,1,0,1,1,0,0,0,1,1,0,1,0,1,1,1,1,1,1,0,1,0,1,1,1,0,1,0,0,1,1,1,1,0,0,1,1,0,1,0,1,1,1,1,1,1,1,0,1,0,1,1,1,1,1,1,1,1,1,1,1,0,1,1,1,0]",,,,,,,,,,0,,,,,,stimuli/m2.jpg,stimuli/m5.jpg,2,stimuli/Outdoor activity & sport item.png,stimuli/Hand labour tool & accessory.png,stimuli/Electronic device & accessory.png,stimuli/Kitchen & utensil.png,2,1,4,stimuli/m5.jpg,Hand labour tool & accessory,stimuli/objects/paintroller01.jpg,14,2021-05-15_13h01.57.572,premceCat2_ses-02_part-01_label-phase1,2020.2.9,Win32,60,1,0,0.963,0,6,6,6,1,,,,,,
0,"[0,0,0,1,1,1,0,0,1,1,0,0,1,0,1,1,0,0,0,1,1,0,1,0,1,1,1,1,1,1,0,1,0,1,1,1,0,1,0,0,1,1,1,1,0,0,1,1,0,1,0,1,1,1,1,1,1,1,0,1,0,1,1,1,1,1,1,1,1,1,1,1,0,1,1,1,0,0]",,,,,,,,,,0,,,,,,stimuli/m2.jpg,stimuli/m5.jpg,2,stimuli/Electronic device & accessory.png,stimuli/Outdoor activity & sport item.png,stimuli/Kitchen & utensil.png,stimuli/Hand labour tool & accessory.png,1,0,4,stimuli/m5.jpg,Electronic device & accessory,stimuli/objects/usbcable01a.jpg,14,2021-05-15_13h01.57.572,premceCat2_ses-02_part-01_label-phase1,2020.2.9,Win32,60,4,0,0.962585,0,7,7,7,1,,,,,,
1,"[0,0,0,1,1,1,0,0,1,1,0,0,1,0,1,1,0,0,0,1,1,0,1,0,1,1,1,1,1,1,0,1,0,1,1,1,0,1,0,0,1,1,1,1,0,0,1,1,0,1,0,1,1,1,1,1,1,1,0,1,0,1,1,1,1,1,1,1,1,1,1,1,0,1,1,1,0,0]",,,,,,,,,,1,,,,,,stimuli/m2.jpg,stimuli/m5.jpg,1,stimuli/Hand labour tool & accessory.png,stimuli/Electronic device & accessory.png,stimuli/Kitchen & utensil.png,stimuli/Outdoor activity & sport item.png,3,1,4,stimuli/m2.jpg,Kitchen & utensil,stimuli/objects/measuringcup01.jpg,14,2021-05-15_13h01.57.572,premceCat2_ses-02_part-01_label-phase1,2020.2.9,Win32,60,3,1,1.019075,0,8,8,8,1,,,,,,
0,"[0,0,0,1,1,1,0,0,1,1,0,0,1,0,1,1,0,0,0,1,1,0,1,0,1,1,1,1,1,1,0,1,0,1,1,1,0,1,0,0,1,1,1,1,0,0,1,1,0,1,0,1,1,1,1,1,1,1,0,1,0,1,1,1,1,1,1,1,1,1,1,1,0,1,1,1,0,0,1]",,,,,,,,,,1,,,,,,stimuli/m2.jpg,stimuli/m5.jpg,1,stimuli/Outdoor activity & sport item.png,stimuli/Hand labour tool & accessory.png,stimuli/Electronic device & accessory.png,stimuli/Kitchen & utensil.png,3,0,4,stimuli/m2.jpg,Electronic device & accessory,stimuli/objects/scanner.jpg,14,2021-05-15_13h01.57.572,premceCat2_ses-02_part-01_label-phase1,2020.2.9,Win32,60,4,0,0.94849,0,9,9,9,1,,,,,,
0,"[0,0,0,1,1,1,0,0,1,1,0,0,1,0,1,1,0,0,0,1,1,0,1,0,1,1,1,1,1,1,0,1,0,1,1,1,0,1,0,0,1,1,1,1,0,0,1,1,0,1,0,1,1,1,1,1,1,1,0,1,0,1,1,1,1,1,1,1,1,1,1,1,0,1,1,1,0,0,1]",,,,,,,,,,0,,,,,,stimuli/m2.jpg,stimuli/m5.jpg,1,stimuli/Electronic device & accessory.png,stimuli/Kitchen & utensil.png,stimuli/Hand labour tool & accessory.png,stimuli/Outdoor activity & sport item.png,2,1,4,stimuli/m2.jpg,Kitchen & utensil,stimuli/objects/espressomachine.jpg,14,2021-05-15_13h01.57.572,premceCat2_ses-02_part-01_label-phase1,2020.2.9,Win32,60,1,0,0.751055,0,10,10,10,1,,,,,,
0,"[0,0,0,1,1,1,0,0,1,1,0,0,1,0,1,1,0,0,0,1,1,0,1,0,1,1,1,1,1,1,0,1,0,1,1,1,0,1,0,0,1,1,1,1,0,0,1,1,0,1,0,1,1,1,1,1,1,1,0,1,0,1,1,1,1,1,1,1,1,1,1,1,0,1,1,1,0,0,1,0]",,,,,,,,,,0,,,,,,stimuli/m5.jpg,stimuli/m2.jpg,1,stimuli/Outdoor activity & sport item.png,stimuli/Electronic device & accessory.png,stimuli/Kitchen & utensil.png,stimuli/Hand labour tool & accessory.png,4,1,4,stimuli/m5.jpg,Hand labour tool & accessory,stimuli/objects/bungeecord02.jpg,14,2021-05-15_13h01.57.572,premceCat2_ses-02_part-01_label-phase1,2020.2.9,Win32,60,1,0,1.831,0,11,11,11,1,,,,,,
0,"[0,0,0,1,1,1,0,0,1,1,0,0,1,0,1,1,0,0,0,1,1,0,1,0,1,1,1,1,1,1,0,1,0,1,1,1,0,1,0,0,1,1,1,1,0,0,1,1,0,1,0,1,1,1,1,1,1,1,0,1,0,1,1,1,1,1,1,1,1,1,1,1,0,1,1,1,0,0,1,0,0]",,,,,,,,,,0,,,,,,stimuli/m2.jpg,stimuli/m5.jpg,2,stimuli/Kitchen & utensil.png,stimuli/Electronic device & accessory.png,stimuli/Outdoor activity & sport item.png,stimuli/Hand labour tool & accessory.png,4,1,4,stimuli/m5.jpg,Hand labour tool & accessory,stimuli/objects/weedwacker.jpg,14,2021-05-15_13h01.57.572,premceCat2_ses-02_part-01_label-phase1,2020.2.9,Win32,60,3,0,1.2961,0,12,12,12,1,,,,,,
0,"[0,0,0,1,1,1,0,0,1,1,0,0,1,0,1,1,0,0,0,1,1,0,1,0,1,1,1,1,1,1,0,1,0,1,1,1,0,1,0,0,1,1,1,1,0,0,1,1,0,1,0,1,1,1,1,1,1,1,0,1,0,1,1,1,1,1,1,1,1,1,1,1,0,1,1,1,0,0,1,0,0,0]",,,,,,,,,,0,,,,,,stimuli/m2.jpg,stimuli/m5.jpg,2,stimuli/Outdoor activity & sport item.png,stimuli/Electronic device & accessory.png,stimuli/Hand labour tool & accessory.png,stimuli/Kitchen & utensil.png,3,1,4,stimuli/m5.jpg,Hand labour tool & accessory,stimuli/objects/jigsaw.jpg,14,2021-05-15_13h01.57.572,premceCat2_ses-02_part-01_label-phase1,2020.2.9,Win32,60,1,0,2.180455,0,13,13,13,1,,,,,,
0,"[0,0,0,1,1,1,0,0,1,1,0,0,1,0,1,1,0,0,0,1,1,0,1,0,1,1,1,1,1,1,0,1,0,1,1,1,0,1,0,0,1,1,1,1,0,0,1,1,0,1,0,1,1,1,1,1,1,1,0,1,0,1,1,1,1,1,1,1,1,1,1,1,0,1,1,1,0,0,1,0,0,0,0]",,,,,,,,,,0,,,,,,stimuli/m2.jpg,stimuli/m5.jpg,1,stimuli/Electronic device & accessory.png,stimuli/Hand labour tool & accessory.png,stimuli/Kitchen & utensil.png,stimuli/Outdoor activity & sport item.png,2,0,4,stimuli/m2.jpg,Hand labour tool & accessory,stimuli/objects/leafrake.jpg,14,2021-05-15_13h01.57.572,premceCat2_ses-02_part-01_label-phase1,2020.2.9,Win32,60,3,0,1.646655,0,14,14,14,1,,,,,,
1,"[0,0,0,1,1,1,0,0,1,1,0,0,1,0,1,1,0,0,0,1,1,0,1,0,1,1,1,1,1,1,0,1,0,1,1,1,0,1,0,0,1,1,1,1,0,0,1,1,0,1,0,1,1,1,1,1,1,1,0,1,0,1,1,1,1,1,1,1,1,1,1,1,0,1,1,1,0,0,1,0,0,0,0]",,,,,,,,,,0,,,,,,stimuli/m2.jpg,stimuli/m5.jpg,2,stimuli/Kitchen & utensil.png,stimuli/Outdoor activity & sport item.png,stimuli/Hand labour tool & accessory.png,stimuli/Electronic device & accessory.png,2,0,4,stimuli/m5.jpg,Outdoor activity & sport item,stimuli/objects/exercisebike.jpg,14,2021-05-15_13h01.57.572,premceCat2_ses-02_part-01_label-phase1,2020.2.9,Win32,60,2,1,1.113695,0,15,15,15,1,,,,,,
0,"[0,0,0,1,1,1,0,0,1,1,0,0,1,0,1,1,0,0,0,1,1,0,1,0,1,1,1,1,1,1,0,1,0,1,1,1,0,1,0,0,1,1,1,1,0,0,1,1,0,1,0,1,1,1,1,1,1,1,0,1,0,1,1,1,1,1,1,1,1,1,1,1,0,1,1,1,0,0,1,0,0,0,0]",,,,,,,,,,0,,,,,,stimuli/m2.jpg,stimuli/m5.jpg,2,stimuli/Hand labour tool & accessory.png,stimuli/Electronic device & accessory.png,stimuli/Outdoor activity & sport item.png,stimuli/Kitchen & utensil.png,1,1,4,stimuli/m5.jpg,Hand labour tool & accessory,stimuli/objects/chainsaw.jpg,14,2021-05-15_13h01.57.572,premceCat2_ses-02_part-01_label-phase1,2020.2.9,Win32,60,3,0,1.07991,0,16,16,16,1,,,,,,
0,"[0,0,0,1,1,1,0,0,1,1,0,0,1,0,1,1,0,0,0,1,1,0,1,0,1,1,1,1,1,1,0,1,0,1,1,1,0,1,0,0,1,1,1,1,0,0,1,1,0,1,0,1,1,1,1,1,1,1,0,1,0,1,1,1,1,1,1,1,1,1,1,1,0,1,1,1,0,0,1,0,0,0,0,0]",,,,,,,,,,0,,,,,,stimuli/m5.jpg,stimuli/m2.jpg,1,stimuli/Hand labour tool & accessory.png,stimuli/Kitchen & utensil.png,stimuli/Outdoor activity & sport item.png,stimuli/Electronic device & accessory.png,2,0,4,stimuli/m5.jpg,Kitchen & utensil,stimuli/objects/gravyboat.jpg,14,2021-05-15_13h01.57.572,premceCat2_ses-02_part-01_label-phase1,2020.2.9,Win32,60,3,0,0.851155,0,17,17,17,1,,,,,,
0,"[0,0,0,1,1,1,0,0,1,1,0,0,1,0,1,1,0,0,0,1,1,0,1,0,1,1,1,1,1,1,0,1,0,1,1,1,0,1,0,0,1,1,1,1,0,0,1,1,0,1,0,1,1,1,1,1,1,1,0,1,0,1,1,1,1,1,1,1,1,1,1,1,0,1,1,1,0,0,1,0,0,0,0,0]",,,,,,,,,,0,,,,,,stimuli/m5.jpg,stimuli/m2.jpg,2,stimuli/Electronic device & accessory.png,stimuli/Hand labour tool & accessory.png,stimuli/Kitchen & utensil.png,stimuli/Outdoor activity & sport item.png,3,1,4,stimuli/m2.jpg,Kitchen & utensil,stimuli/objects/spicerack.jpg,14,2021-05-15_13h01.57.572,premceCat2_ses-02_part-01_label-phase1,2020.2.9,Win32,60,4,0,1.301595,0,18,18,18,1,,,,,,
0,"[0,0,0,1,1,1,0,0,1,1,0,0,1,0,1,1,0,0,0,1,1,0,1,0,1,1,1,1,1,1,0,1,0,1,1,1,0,1,0,0,1,1,1,1,0,0,1,1,0,1,0,1,1,1,1,1,1,1,0,1,0,1,1,1,1,1,1,1,1,1,1,1,0,1,1,1,0,0,1,0,0,0,0,0,0]",,,,,,,,,,0,,,,,,stimuli/m5.jpg,stimuli/m2.jpg,1,stimuli/Kitchen & utensil.png,stimuli/Outdoor activity & sport item.png,stimuli/Electronic device & accessory.png,stimuli/Hand labour tool & accessory.png,4,1,4,stimuli/m5.jpg,Hand labour tool & accessory,stimuli/objects/mallet01b.jpg,14,2021-05-15_13h01.57.572,premceCat2_ses-02_part-01_label-phase1,2020.2.9,Win32,60,1,0,1.03424,0,19,19,19,1,,,,,,
1,"[0,0,0,1,1,1,0,0,1,1,0,0,1,0,1,1,0,0,0,1,1,0,1,0,1,1,1,1,1,1,0,1,0,1,1,1,0,1,0,0,1,1,1,1,0,0,1,1,0,1,0,1,1,1,1,1,1,1,0,1,0,1,1,1,1,1,1,1,1,1,1,1,0,1,1,1,0,0,1,0,0,0,0,0,0,0]",,,,,,,,,,1,,,,,,stimuli/m5.jpg,stimuli/m2.jpg,1,stimuli/Kitchen & utensil.png,stimuli/Electronic device & accessory.png,stimuli/Hand labour tool & accessory.png,stimuli/Outdoor activity & sport item.png,3,1,4,stimuli/m5.jpg,Hand labour tool & accessory,stimuli/objects/bucket02.jpg,14,2021-05-15_13h01.57.572,premceCat2_ses-02_part-01_label-phase1,2020.2.9,Win32,60,3,1,1.301675,0,20,20,20,1,,,,,,
1,"[0,0,0,1,1,1,0,0,1,1,0,0,1,0,1,1,0,0,0,1,1,0,1,0,1,1,1,1,1,1,0,1,0,1,1,1,0,1,0,0,1,1,1,1,0,0,1,1,0,1,0,1,1,1,1,1,1,1,0,1,0,1,1,1,1,1,1,1,1,1,1,1,0,1,1,1,0,0,1,0,0,0,0,0,0,0,1]",,,,,,,,,,1,,,,,,stimuli/m2.jpg,stimuli/m5.jpg,2,stimuli/Hand labour tool & accessory.png,stimuli/Electronic device & accessory.png,stimuli/Kitchen & utensil.png,stimuli/Outdoor activity & sport item.png,1,1,4,stimuli/m5.jpg,Hand labour tool & accessory,stimuli/objects/sledgehammer.jpg,14,2021-05-15_13h01.57.572,premceCat2_ses-02_part-01_label-phase1,2020.2.9,Win32,60,1,1,1.75422,0,21,21,21,1,,,,,,
1,"[0,0,0,1,1,1,0,0,1,1,0,0,1,0,1,1,0,0,0,1,1,0,1,0,1,1,1,1,1,1,0,1,0,1,1,1,0,1,0,0,1,1,1,1,0,0,1,1,0,1,0,1,1,1,1,1,1,1,0,1,0,1,1,1,1,1,1,1,1,1,1,1,0,1,1,1,0,0,1,0,0,0,0,0,0,0,1,1]",,,,,,,,,,1,,,,,,stimuli/m5.jpg,stimuli/m2.jpg,1,stimuli/Electronic device & accessory.png,stimuli/Outdoor activity & sport item.png,stimuli/Hand labour tool & accessory.png,stimuli/Kitchen & utensil.png,3,1,4,stimuli/m5.jpg,Hand labour tool & accessory,stimuli/objects/stubbywrench01a.jpg,14,2021-05-15_13h01.57.572,premceCat2_ses-02_part-01_label-phase1,2020.2.9,Win32,60,3,1,0.880335,0,22,22,22,1,,,,,,
1,"[0,0,0,1,1,1,0,0,1,1,0,0,1,0,1,1,0,0,0,1,1,0,1,0,1,1,1,1,1,1,0,1,0,1,1,1,0,1,0,0,1,1,1,1,0,0,1,1,0,1,0,1,1,1,1,1,1,1,0,1,0,1,1,1,1,1,1,1,1,1,1,1,0,1,1,1,0,0,1,0,0,0,0,0,0,0,1,1,1]",,,,,,,,,,1,,,,,,stimuli/m2.jpg,stimuli/m5.jpg,1,stimuli/Outdoor activity & sport item.png,stimuli/Kitchen & utensil.png,stimuli/Hand labour tool & accessory.png,stimuli/Electronic device & accessory.png,2,1,4,stimuli/m2.jpg,Kitchen & utensil,stimuli/objects/shotglass.jpg,14,2021-05-15_13h01.57.572,premceCat2_ses-02_part-01_label-phase1,2020.2.9,Win32,60,2,1,0.798595,0,23,23,23,1,,,,,,
1,"[0,0,0,1,1,1,0,0,1,1,0,0,1,0,1,1,0,0,0,1,1,0,1,0,1,1,1,1,1,1,0,1,0,1,1,1,0,1,0,0,1,1,1,1,0,0,1,1,0,1,0,1,1,1,1,1,1,1,0,1,0,1,1,1,1,1,1,1,1,1,1,1,0,1,1,1,0,0,1,0,0,0,0,0,0,0,1,1,1,1]",,,,,,,,,,1,,,,,,stimuli/m2.jpg,stimuli/m5.jpg,2,stimuli/Hand labour tool & accessory.png,stimuli/Outdoor activity & sport item.png,stimuli/Kitchen & utensil.png,stimuli/Electronic device & accessory.png,1,1,4,stimuli/m5.jpg,Hand labour tool & accessory,stimuli/objects/pipewrench.jpg,14,2021-05-15_13h01.57.572,premceCat2_ses-02_part-01_label-phase1,2020.2.9,Win32,60,1,1,0.781585,0,24,24,24,1,,,,,,
0,"[0,0,0,1,1,1,0,0,1,1,0,0,1,0,1,1,0,0,0,1,1,0,1,0,1,1,1,1,1,1,0,1,0,1,1,1,0,1,0,0,1,1,1,1,0,0,1,1,0,1,0,1,1,1,1,1,1,1,0,1,0,1,1,1,1,1,1,1,1,1,1,1,0,1,1,1,0,0,1,0,0,0,0,0,0,0,1,1,1,1,1]",,,,,,,,,,1,,,,,,stimuli/m5.jpg,stimuli/m2.jpg,1,stimuli/Hand labour tool & accessory.png,stimuli/Electronic device & accessory.png,stimuli/Kitchen & utensil.png,stimuli/Outdoor activity & sport item.png,3,0,4,stimuli/m5.jpg,Kitchen & utensil,stimuli/objects/bottlecap.jpg,14,2021-05-15_13h01.57.572,premceCat2_ses-02_part-01_label-phase1,2020.2.9,Win32,60,1,0,0.618695,0,25,25,25,1,,,,,,
0,"[0,0,0,1,1,1,0,0,1,1,0,0,1,0,1,1,0,0,0,1,1,0,1,0,1,1,1,1,1,1,0,1,0,1,1,1,0,1,0,0,1,1,1,1,0,0,1,1,0,1,0,1,1,1,1,1,1,1,0,1,0,1,1,1,1,1,1,1,1,1,1,1,0,1,1,1,0,0,1,0,0,0,0,0,0,0,1,1,1,1,1]",,,,,,,,,,1,,,,,,stimuli/m5.jpg,stimuli/m2.jpg,2,stimuli/Kitchen & utensil.png,stimuli/Hand labour tool & accessory.png,stimuli/Electronic device & accessory.png,stimuli/Outdoor activity & sport item.png,4,0,4,stimuli/m2.jpg,Outdoor activity & sport item,stimuli/objects/propanetank01.jpg,14,2021-05-15_13h01.57.572,premceCat2_ses-02_part-01_label-phase1,2020.2.9,Win32,60,1,0,0.73223,0,26,26,26,1,,,,,,
1,"[0,0,0,1,1,1,0,0,1,1,0,0,1,0,1,1,0,0,0,1,1,0,1,0,1,1,1,1,1,1,0,1,0,1,1,1,0,1,0,0,1,1,1,1,0,0,1,1,0,1,0,1,1,1,1,1,1,1,0,1,0,1,1,1,1,1,1,1,1,1,1,1,0,1,1,1,0,0,1,0,0,0,0,0,0,0,1,1,1,1,1]",,,,,,,,,,1,,,,,,stimuli/m2.jpg,stimuli/m5.jpg,1,stimuli/Outdoor activity & sport item.png,stimuli/Hand labour tool & accessory.png,stimuli/Kitchen & utensil.png,stimuli/Electronic device & accessory.png,3,1,4,stimuli/m2.jpg,Kitchen & utensil,stimuli/objects/cleaver01.jpg,14,2021-05-15_13h01.57.572,premceCat2_ses-02_part-01_label-phase1,2020.2.9,Win32,60,3,1,1.18334,0,27,27,27,1,,,,,,
1,"[0,0,0,1,1,1,0,0,1,1,0,0,1,0,1,1,0,0,0,1,1,0,1,0,1,1,1,1,1,1,0,1,0,1,1,1,0,1,0,0,1,1,1,1,0,0,1,1,0,1,0,1,1,1,1,1,1,1,0,1,0,1,1,1,1,1,1,1,1,1,1,1,0,1,1,1,0,0,1,0,0,0,0,0,0,0,1,1,1,1,1,1]",,,,,,,,,,1,,,,,,stimuli/m5.jpg,stimuli/m2.jpg,1,stimuli/Electronic device & accessory.png,stimuli/Hand labour tool & accessory.png,stimuli/Outdoor activity & sport item.png,stimuli/Kitchen & utensil.png,2,1,4,stimuli/m5.jpg,Hand labour tool & accessory,stimuli/objects/pressurewasher.jpg,14,2021-05-15_13h01.57.572,premceCat2_ses-02_part-01_label-phase1,2020.2.9,Win32,60,2,1,1.16011,0,28,28,28,1,,,,,,
0,"[0,0,0,1,1,1,0,0,1,1,0,0,1,0,1,1,0,0,0,1,1,0,1,0,1,1,1,1,1,1,0,1,0,1,1,1,0,1,0,0,1,1,1,1,0,0,1,1,0,1,0,1,1,1,1,1,1,1,0,1,0,1,1,1,1,1,1,1,1,1,1,1,0,1,1,1,0,0,1,0,0,0,0,0,0,0,1,1,1,1,1,1,1]",,,,,,,,,,1,,,,,,stimuli/m2.jpg,stimuli/m5.jpg,1,stimuli/Kitchen & utensil.png,stimuli/Electronic device & accessory.png,stimuli/Hand labour tool & accessory.png,stimuli/Outdoor activity & sport item.png,4,0,4,stimuli/m2.jpg,Outdoor activity & sport item,stimuli/objects/lifesaver.jpg,14,2021-05-15_13h01.57.572,premceCat2_ses-02_part-01_label-phase1,2020.2.9,Win32,60,1,0,1.04547,0,29,29,29,1,,,,,,
0,"[0,0,0,1,1,1,0,0,1,1,0,0,1,0,1,1,0,0,0,1,1,0,1,0,1,1,1,1,1,1,0,1,0,1,1,1,0,1,0,0,1,1,1,1,0,0,1,1,0,1,0,1,1,1,1,1,1,1,0,1,0,1,1,1,1,1,1,1,1,1,1,1,0,1,1,1,0,0,1,0,0,0,0,0,0,0,1,1,1,1,1,1,1]",,,,,,,,,,0,,,,,,stimuli/m5.jpg,stimuli/m2.jpg,2,stimuli/Electronic device & accessory.png,stimuli/Outdoor activity & sport item.png,stimuli/Hand labour tool & accessory.png,stimuli/Kitchen & utensil.png,4,1,4,stimuli/m2.jpg,Kitchen & utensil,stimuli/objects/cowbell.jpg,14,2021-05-15_13h01.57.572,premceCat2_ses-02_part-01_label-phase1,2020.2.9,Win32,60,2,0,0.920565,0,30,30,30,1,,,,,,
1,"[0,0,0,1,1,1,0,0,1,1,0,0,1,0,1,1,0,0,0,1,1,0,1,0,1,1,1,1,1,1,0,1,0,1,1,1,0,1,0,0,1,1,1,1,0,0,1,1,0,1,0,1,1,1,1,1,1,1,0,1,0,1,1,1,1,1,1,1,1,1,1,1,0,1,1,1,0,0,1,0,0,0,0,0,0,0,1,1,1,1,1,1,1,0]",,,,,,,,,,1,,,,,,stimuli/m5.jpg,stimuli/m2.jpg,2,stimuli/Hand labour tool & accessory.png,stimuli/Kitchen & utensil.png,stimuli/Outdoor activity & sport item.png,stimuli/Electronic device & accessory.png,2,1,4,stimuli/m2.jpg,Kitchen & utensil,stimuli/objects/waterbottle03.jpg,14,2021-05-15_13h01.57.572,premceCat2_ses-02_part-01_label-phase1,2020.2.9,Win32,60,2,1,1.430625,0,31,31,31,1,,,,,,
1,"[0,0,0,1,1,1,0,0,1,1,0,0,1,0,1,1,0,0,0,1,1,0,1,0,1,1,1,1,1,1,0,1,0,1,1,1,0,1,0,0,1,1,1,1,0,0,1,1,0,1,0,1,1,1,1,1,1,1,0,1,0,1,1,1,1,1,1,1,1,1,1,1,0,1,1,1,0,0,1,0,0,0,0,0,0,0,1,1,1,1,1,1,1,0,1]",,,,,,,,,,1,,,,,,stimuli/m5.jpg,stimuli/m2.jpg,1,stimuli/Outdoor activity & sport item.png,stimuli/Electronic device & accessory.png,stimuli/Hand labour tool & accessory.png,stimuli/Kitchen & utensil.png,3,1,4,stimuli/m5.jpg,Hand labour tool & accessory,stimuli/objects/jumpercables.jpg,14,2021-05-15_13h01.57.572,premceCat2_ses-02_part-01_label-phase1,2020.2.9,Win32,60,3,1,1.86187,0,32,32,32,1,,,,,,
0,"[0,0,0,1,1,1,0,0,1,1,0,0,1,0,1,1,0,0,0,1,1,0,1,0,1,1,1,1,1,1,0,1,0,1,1,1,0,1,0,0,1,1,1,1,0,0,1,1,0,1,0,1,1,1,1,1,1,1,0,1,0,1,1,1,1,1,1,1,1,1,1,1,0,1,1,1,0,0,1,0,0,0,0,0,0,0,1,1,1,1,1,1,1,0,1,1]",,,,,,,,,,0,,,,,,stimuli/m5.jpg,stimuli/m2.jpg,1,stimuli/Kitchen & utensil.png,stimuli/Hand labour tool & accessory.png,stimuli/Electronic device & accessory.png,stimuli/Outdoor activity & sport item.png,2,1,4,stimuli/m5.jpg,Hand labour tool & accessory,stimuli/objects/pliers02b.jpg,14,2021-05-15_13h01.57.572,premceCat2_ses-02_part-01_label-phase1,2020.2.9,Win32,60,3,0,1.33269,0,33,33,33,1,,,,,,
0,"[0,0,0,1,1,1,0,0,1,1,0,0,1,0,1,1,0,0,0,1,1,0,1,0,1,1,1,1,1,1,0,1,0,1,1,1,0,1,0,0,1,1,1,1,0,0,1,1,0,1,0,1,1,1,1,1,1,1,0,1,0,1,1,1,1,1,1,1,1,1,1,1,0,1,1,1,0,0,1,0,0,0,0,0,0,0,1,1,1,1,1,1,1,0,1,1,0]",,,,,,,,,,0,,,,,,stimuli/m2.jpg,stimuli/m5.jpg,1,stimuli/Kitchen & utensil.png,stimuli/Outdoor activity & sport item.png,stimuli/Electronic device & accessory.png,stimuli/Hand labour tool & accessory.png,1,1,4,stimuli/m2.jpg,Kitchen & utensil,stimuli/objects/canister.jpg,14,2021-05-15_13h01.57.572,premceCat2_ses-02_part-01_label-phase1,2020.2.9,Win32,60,2,0,1.05089,0,34,34,34,1,,,,,,
1,"[0,0,0,1,1,1,0,0,1,1,0,0,1,0,1,1,0,0,0,1,1,0,1,0,1,1,1,1,1,1,0,1,0,1,1,1,0,1,0,0,1,1,1,1,0,0,1,1,0,1,0,1,1,1,1,1,1,1,0,1,0,1,1,1,1,1,1,1,1,1,1,1,0,1,1,1,0,0,1,0,0,0,0,0,0,0,1,1,1,1,1,1,1,0,1,1,0,0]",,,,,,,,,,1,,,,,,stimuli/m5.jpg,stimuli/m2.jpg,2,stimuli/Hand labour tool & accessory.png,stimuli/Outdoor activity & sport item.png,stimuli/Kitchen & utensil.png,stimuli/Electronic device & accessory.png,3,1,4,stimuli/m2.jpg,Kitchen & utensil,stimuli/objects/contactlens.jpg,14,2021-05-15_13h01.57.572,premceCat2_ses-02_part-01_label-phase1,2020.2.9,Win32,60,3,1,0.58197,0,35,35,35,1,,,,,,
1,"[0,0,0,1,1,1,0,0,1,1,0,0,1,0,1,1,0,0,0,1,1,0,1,0,1,1,1,1,1,1,0,1,0,1,1,1,0,1,0,0,1,1,1,1,0,0,1,1,0,1,0,1,1,1,1,1,1,1,0,1,0,1,1,1,1,1,1,1,1,1,1,1,0,1,1,1,0,0,1,0,0,0,0,0,0,0,1,1,1,1,1,1,1,0,1,1,0,0,1]",,,,,,,,,,1,,,,,,stimuli/m2.jpg,stimuli/m5.jpg,1,stimuli/Hand labour tool & accessory.png,stimuli/Outdoor activity & sport item.png,stimuli/Kitchen & utensil.png,stimuli/Electronic device & accessory.png,3,1,4,stimuli/m2.jpg,Kitchen & utensil,stimuli/objects/woodenspoon.jpg,14,2021-05-15_13h01.57.572,premceCat2_ses-02_part-01_label-phase1,2020.2.9,Win32,60,3,1,0.78488,0,36,36,36,1,,,,,,
1,"[0,0,0,1,1,1,0,0,1,1,0,0,1,0,1,1,0,0,0,1,1,0,1,0,1,1,1,1,1,1,0,1,0,1,1,1,0,1,0,0,1,1,1,1,0,0,1,1,0,1,0,1,1,1,1,1,1,1,0,1,0,1,1,1,1,1,1,1,1,1,1,1,0,1,1,1,0,0,1,0,0,0,0,0,0,0,1,1,1,1,1,1,1,0,1,1,0,0,1,1]",,,,,,,,,,1,,,,,,stimuli/m2.jpg,stimuli/m5.jpg,1,stimuli/Hand labour tool & accessory.png,stimuli/Outdoor activity & sport item.png,stimuli/Electronic device & accessory.png,stimuli/Kitchen & utensil.png,4,1,4,stimuli/m2.jpg,Kitchen & utensil,stimuli/objects/spoon01.jpg,14,2021-05-15_13h01.57.572,premceCat2_ses-02_part-01_label-phase1,2020.2.9,Win32,60,4,1,0.94916,0,37,37,37,1,,,,,,
1,"[0,0,0,1,1,1,0,0,1,1,0,0,1,0,1,1,0,0,0,1,1,0,1,0,1,1,1,1,1,1,0,1,0,1,1,1,0,1,0,0,1,1,1,1,0,0,1,1,0,1,0,1,1,1,1,1,1,1,0,1,0,1,1,1,1,1,1,1,1,1,1,1,0,1,1,1,0,0,1,0,0,0,0,0,0,0,1,1,1,1,1,1,1,0,1,1,0,0,1,1,1]",,,,,,,,,,1,,,,,,stimuli/m5.jpg,stimuli/m2.jpg,1,stimuli/Hand labour tool & accessory.png,stimuli/Outdoor activity & sport item.png,stimuli/Electronic device & accessory.png,stimuli/Kitchen & utensil.png,1,1,4,stimuli/m5.jpg,Hand labour tool & accessory,stimuli/objects/ladder.jpg,14,2021-05-15_13h01.57.572,premceCat2_ses-02_part-01_label-phase1,2020.2.9,Win32,60,1,1,1.883485,0,38,38,38,1,,,,,,
0,"[0,0,0,1,1,1,0,0,1,1,0,0,1,0,1,1,0,0,0,1,1,0,1,0,1,1,1,1,1,1,0,1,0,1,1,1,0,1,0,0,1,1,1,1,0,0,1,1,0,1,0,1,1,1,1,1,1,1,0,1,0,1,1,1,1,1,1,1,1,1,1,1,0,1,1,1,0,0,1,0,0,0,0,0,0,0,1,1,1,1,1,1,1,0,1,1,0,0,1,1,1,1]",,,,,,,,,,0,,,,,,stimuli/m5.jpg,stimuli/m2.jpg,1,stimuli/Hand labour tool & accessory.png,stimuli/Outdoor activity & sport item.png,stimuli/Kitchen & utensil.png,stimuli/Electronic device & accessory.png,1,1,4,stimuli/m5.jpg,Hand labour tool & accessory,stimuli/objects/wheelbarrow01.jpg,14,2021-05-15_13h01.57.572,premceCat2_ses-02_part-01_label-phase1,2020.2.9,Win32,60,2,0,0.639365,0,39,39,39,1,,,,,,
1,"[0,0,0,1,1,1,0,0,1,1,0,0,1,0,1,1,0,0,0,1,1,0,1,0,1,1,1,1,1,1,0,1,0,1,1,1,0,1,0,0,1,1,1,1,0,0,1,1,0,1,0,1,1,1,1,1,1,1,0,1,0,1,1,1,1,1,1,1,1,1,1,1,0,1,1,1,0,0,1,0,0,0,0,0,0,0,1,1,1,1,1,1,1,0,1,1,0,0,1,1,1,1,0]",,,,,,,,,,1,,,,,,stimuli/m5.jpg,stimuli/m2.jpg,2,stimuli/Kitchen & utensil.png,stimuli/Hand labour tool & accessory.png,stimuli/Outdoor activity & sport item.png,stimuli/Electronic device & accessory.png,1,1,4,stimuli/m2.jpg,Kitchen & utensil,stimuli/objects/pastaspoon.jpg,14,2021-05-15_13h01.57.572,premceCat2_ses-02_part-01_label-phase1,2020.2.9,Win32,60,1,1,1.118665,0,40,40,40,1,,,,,,
0,"[0,0,0,1,1,1,0,0,1,1,0,0,1,0,1,1,0,0,0,1,1,0,1,0,1,1,1,1,1,1,0,1,0,1,1,1,0,1,0,0,1,1,1,1,0,0,1,1,0,1,0,1,1,1,1,1,1,1,0,1,0,1,1,1,1,1,1,1,1,1,1,1,0,1,1,1,0,0,1,0,0,0,0,0,0,0,1,1,1,1,1,1,1,0,1,1,0,0,1,1,1,1,0,1]",,,,,,,,,,1,,,,,,stimuli/m2.jpg,stimuli/m5.jpg,2,stimuli/Outdoor activity & sport item.png,stimuli/Kitchen & utensil.png,stimuli/Hand labour tool & accessory.png,stimuli/Electronic device & accessory.png,4,0,4,stimuli/m5.jpg,Electronic device & accessory,stimuli/objects/ipad02.jpg,14,2021-05-15_13h01.57.572,premceCat2_ses-02_part-01_label-phase1,2020.2.9,Win32,60,1,0,1.13742,0,41,41,41,1,,,,,,
1,"[0,0,0,1,1,1,0,0,1,1,0,0,1,0,1,1,0,0,0,1,1,0,1,0,1,1,1,1,1,1,0,1,0,1,1,1,0,1,0,0,1,1,1,1,0,0,1,1,0,1,0,1,1,1,1,1,1,1,0,1,0,1,1,1,1,1,1,1,1,1,1,1,0,1,1,1,0,0,1,0,0,0,0,0,0,0,1,1,1,1,1,1,1,0,1,1,0,0,1,1,1,1,0,1]",,,,,,,,,,1,,,,,,stimuli/m5.jpg,stimuli/m2.jpg,2,stimuli/Outdoor activity & sport item.png,stimuli/Hand labour tool & accessory.png,stimuli/Kitchen & utensil.png,stimuli/Electronic device & accessory.png,3,1,4,stimuli/m2.jpg,Kitchen & utensil,stimuli/objects/martiniglass01b.jpg,14,2021-05-15_13h01.57.572,premceCat2_ses-02_part-01_label-phase1,2020.2.9,Win32,60,3,1,0.812835,0,42,42,42,1,,,,,,
0,"[0,0,0,1,1,1,0,0,1,1,0,0,1,0,1,1,0,0,0,1,1,0,1,0,1,1,1,1,1,1,0,1,0,1,1,1,0,1,0,0,1,1,1,1,0,0,1,1,0,1,0,1,1,1,1,1,1,1,0,1,0,1,1,1,1,1,1,1,1,1,1,1,0,1,1,1,0,0,1,0,0,0,0,0,0,0,1,1,1,1,1,1,1,0,1,1,0,0,1,1,1,1,0,1,1]",,,,,,,,,,1,,,,,,stimuli/m2.jpg,stimuli/m5.jpg,1,stimuli/Outdoor activity & sport item.png,stimuli/Electronic device & accessory.png,stimuli/Hand labour tool & accessory.png,stimuli/Kitchen & utensil.png,3,0,4,stimuli/m2.jpg,Hand labour tool & accessory,stimuli/objects/adjustablewrench01b.jpg,14,2021-05-15_13h01.57.572,premceCat2_ses-02_part-01_label-phase1,2020.2.9,Win32,60,4,0,0.858795,0,43,43,43,1,,,,,,
0,"[0,0,0,1,1,1,0,0,1,1,0,0,1,0,1,1,0,0,0,1,1,0,1,0,1,1,1,1,1,1,0,1,0,1,1,1,0,1,0,0,1,1,1,1,0,0,1,1,0,1,0,1,1,1,1,1,1,1,0,1,0,1,1,1,1,1,1,1,1,1,1,1,0,1,1,1,0,0,1,0,0,0,0,0,0,0,1,1,1,1,1,1,1,0,1,1,0,0,1,1,1,1,0,1,1]",,,,,,,,,,0,,,,,,stimuli/m2.jpg,stimuli/m5.jpg,2,stimuli/Outdoor activity & sport item.png,stimuli/Hand labour tool & accessory.png,stimuli/Kitchen & utensil.png,stimuli/Electronic device & accessory.png,2,1,4,stimuli/m5.jpg,Hand labour tool & accessory,stimuli/objects/hoe.jpg,14,2021-05-15_13h01.57.572,premceCat2_ses-02_part-01_label-phase1,2020.2.9,Win32,60,1,0,0.824395,0,44,44,44,1,,,,,,
0,"[0,0,0,1,1,1,0,0,1,1,0,0,1,0,1,1,0,0,0,1,1,0,1,0,1,1,1,1,1,1,0,1,0,1,1,1,0,1,0,0,1,1,1,1,0,0,1,1,0,1,0,1,1,1,1,1,1,1,0,1,0,1,1,1,1,1,1,1,1,1,1,1,0,1,1,1,0,0,1,0,0,0,0,0,0,0,1,1,1,1,1,1,1,0,1,1,0,0,1,1,1,1,0,1,1,0]",,,,,,,,,,0,,,,,,stimuli/m2.jpg,stimuli/m5.jpg,2,stimuli/Electronic device & accessory.png,stimuli/Kitchen & utensil.png,stimuli/Outdoor activity & sport item.png,stimuli/Hand labour tool & accessory.png,4,1,4,stimuli/m5.jpg,Hand labour tool & accessory,stimuli/objects/gardenshears01a.jpg,14,2021-05-15_13h01.57.572,premceCat2_ses-02_part-01_label-phase1,2020.2.9,Win32,60,3,0,0.92029,0,45,45,45,1,,,,,,
1,"[0,0,0,1,1,1,0,0,1,1,0,0,1,0,1,1,0,0,0,1,1,0,1,0,1,1,1,1,1,1,0,1,0,1,1,1,0,1,0,0,1,1,1,1,0,0,1,1,0,1,0,1,1,1,1,1,1,1,0,1,0,1,1,1,1,1,1,1,1,1,1,1,0,1,1,1,0,0,1,0,0,0,0,0,0,0,1,1,1,1,1,1,1,0,1,1,0,0,1,1,1,1,0,1,1,0,0]",,,,,,,,,,1,,,,,,stimuli/m5.jpg,stimuli/m2.jpg,2,stimuli/Outdoor activity & sport item.png,stimuli/Kitchen & utensil.png,stimuli/Electronic device & accessory.png,stimuli/Hand labour tool & accessory.png,2,1,4,stimuli/m2.jpg,Kitchen & utensil,stimuli/objects/rollingpin01a.jpg,14,2021-05-15_13h01.57.572,premceCat2_ses-02_part-01_label-phase1,2020.2.9,Win32,60,2,1,0.98993,0,46,46,46,1,,,,,,
0,"[0,0,0,1,1,1,0,0,1,1,0,0,1,0,1,1,0,0,0,1,1,0,1,0,1,1,1,1,1,1,0,1,0,1,1,1,0,1,0,0,1,1,1,1,0,0,1,1,0,1,0,1,1,1,1,1,1,1,0,1,0,1,1,1,1,1,1,1,1,1,1,1,0,1,1,1,0,0,1,0,0,0,0,0,0,0,1,1,1,1,1,1,1,0,1,1,0,0,1,1,1,1,0,1,1,0,0,1]",,,,,,,,,,1,,,,,,stimuli/m5.jpg,stimuli/m2.jpg,2,stimuli/Kitchen & utensil.png,stimuli/Outdoor activity & sport item.png,stimuli/Hand labour tool & accessory.png,stimuli/Electronic device & accessory.png,4,0,4,stimuli/m2.jpg,Electronic device & accessory,stimuli/objects/floppydisk02a.jpg,14,2021-05-15_13h01.57.572,premceCat2_ses-02_part-01_label-phase1,2020.2.9,Win32,60,1,0,1.198355,0,47,47,47,1,,,,,,
,,,,,,,,,,,,,,,,,,,,,,,,,,,,,,14,2021-05-15_13h01.57.572,premceCat2_ses-02_part-01_label-phase1,2020.2.9,Win32,60,,,,,,,,,0,2,2,2,1,condition_files/tasklistC3.csv
0,"[0,0,0,1,1,1,0,0,1,1,0,0,1,0,1,1,0,0,0,1,1,0,1,0,1,1,1,1,1,1,0,1,0,1,1,1,0,1,0,0,1,1,1,1,0,0,1,1,0,1,0,1,1,1,1,1,1,1,0,1,0,1,1,1,1,1,1,1,1,1,1,1,0,1,1,1,0,0,1,0,0,0,0,0,0,0,1,1,1,1,1,1,1,0,1,1,0,0,1,1,1,1,0,1,1,0,0,1]",,,,,,,,,,0,,,,,,stimuli/m2.jpg,stimuli/m5.jpg,1,stimuli/Kitchen & utensil.png,stimuli/Hand labour tool & accessory.png,stimuli/Electronic device & accessory.png,stimuli/Outdoor activity & sport item.png,4,1,5,stimuli/m2.jpg,Outdoor activity & sport item,stimuli/objects/reflector.jpg,14,2021-05-15_13h01.57.572,premceCat2_ses-02_part-01_label-phase1,2020.2.9,Win32,60,3,0,0.951265,0,0,0,0,1,,,,,,
0,"[0,0,0,1,1,1,0,0,1,1,0,0,1,0,1,1,0,0,0,1,1,0,1,0,1,1,1,1,1,1,0,1,0,1,1,1,0,1,0,0,1,1,1,1,0,0,1,1,0,1,0,1,1,1,1,1,1,1,0,1,0,1,1,1,1,1,1,1,1,1,1,1,0,1,1,1,0,0,1,0,0,0,0,0,0,0,1,1,1,1,1,1,1,0,1,1,0,0,1,1,1,1,0,1,1,0,0,1,0]",,,,,,,,,,0,,,,,,stimuli/m5.jpg,stimuli/m2.jpg,2,stimuli/Kitchen & utensil.png,stimuli/Hand labour tool & accessory.png,stimuli/Outdoor activity & sport item.png,stimuli/Electronic device & accessory.png,4,0,5,stimuli/m2.jpg,Electronic device & accessory,stimuli/objects/papershredder.jpg,14,2021-05-15_13h01.57.572,premceCat2_ses-02_part-01_label-phase1,2020.2.9,Win32,60,1,0,0.882325,0,1,1,1,1,,,,,,
0,"[0,0,0,1,1,1,0,0,1,1,0,0,1,0,1,1,0,0,0,1,1,0,1,0,1,1,1,1,1,1,0,1,0,1,1,1,0,1,0,0,1,1,1,1,0,0,1,1,0,1,0,1,1,1,1,1,1,1,0,1,0,1,1,1,1,1,1,1,1,1,1,1,0,1,1,1,0,0,1,0,0,0,0,0,0,0,1,1,1,1,1,1,1,0,1,1,0,0,1,1,1,1,0,1,1,0,0,1,0]",,,,,,,,,,0,,,,,,stimuli/m5.jpg,stimuli/m2.jpg,2,stimuli/Electronic device & accessory.png,stimuli/Kitchen & utensil.png,stimuli/Hand labour tool & accessory.png,stimuli/Outdoor activity & sport item.png,4,1,5,stimuli/m2.jpg,Outdoor activity & sport item,stimuli/objects/shinpad.jpg,14,2021-05-15_13h01.57.572,premceCat2_ses-02_part-01_label-phase1,2020.2.9,Win32,60,1,0,0.88977,0,2,2,2,1,,,,,,
1,"[0,0,0,1,1,1,0,0,1,1,0,0,1,0,1,1,0,0,0,1,1,0,1,0,1,1,1,1,1,1,0,1,0,1,1,1,0,1,0,0,1,1,1,1,0,0,1,1,0,1,0,1,1,1,1,1,1,1,0,1,0,1,1,1,1,1,1,1,1,1,1,1,0,1,1,1,0,0,1,0,0,0,0,0,0,0,1,1,1,1,1,1,1,0,1,1,0,0,1,1,1,1,0,1,1,0,0,1,0,0]",,,,,,,,,,1,,,,,,stimuli/m5.jpg,stimuli/m2.jpg,2,stimuli/Hand labour tool & accessory.png,stimuli/Outdoor activity & sport item.png,stimuli/Kitchen & utensil.png,stimuli/Electronic device & accessory.png,2,1,5,stimuli/m2.jpg,Outdoor activity & sport item,stimuli/objects/iceskate.jpg,14,2021-05-15_13h01.57.572,premceCat2_ses-02_part-01_label-phase1,2020.2.9,Win32,60,2,1,1.41304,0,3,3,3,1,,,,,,
0,"[0,0,0,1,1,1,0,0,1,1,0,0,1,0,1,1,0,0,0,1,1,0,1,0,1,1,1,1,1,1,0,1,0,1,1,1,0,1,0,0,1,1,1,1,0,0,1,1,0,1,0,1,1,1,1,1,1,1,0,1,0,1,1,1,1,1,1,1,1,1,1,1,0,1,1,1,0,0,1,0,0,0,0,0,0,0,1,1,1,1,1,1,1,0,1,1,0,0,1,1,1,1,0,1,1,0,0,1,0,0,1]",,,,,,,,,,0,,,,,,stimuli/m2.jpg,stimuli/m5.jpg,2,stimuli/Outdoor activity & sport item.png,stimuli/Kitchen & utensil.png,stimuli/Electronic device & accessory.png,stimuli/Hand labour tool & accessory.png,3,1,5,stimuli/m5.jpg,Electronic device & accessory,stimuli/objects/phonejack.jpg,14,2021-05-15_13h01.57.572,premceCat2_ses-02_part-01_label-phase1,2020.2.9,Win32,60,1,0,1.311765,0,4,4,4,1,,,,,,
0,"[0,0,0,1,1,1,0,0,1,1,0,0,1,0,1,1,0,0,0,1,1,0,1,0,1,1,1,1,1,1,0,1,0,1,1,1,0,1,0,0,1,1,1,1,0,0,1,1,0,1,0,1,1,1,1,1,1,1,0,1,0,1,1,1,1,1,1,1,1,1,1,1,0,1,1,1,0,0,1,0,0,0,0,0,0,0,1,1,1,1,1,1,1,0,1,1,0,0,1,1,1,1,0,1,1,0,0,1,0,0,1,0]",,,,,,,,,,0,,,,,,stimuli/m5.jpg,stimuli/m2.jpg,2,stimuli/Hand labour tool & accessory.png,stimuli/Kitchen & utensil.png,stimuli/Outdoor activity & sport item.png,stimuli/Electronic device & accessory.png,1,0,5,stimuli/m2.jpg,Hand labour tool & accessory,stimuli/objects/staplegun.jpg,14,2021-05-15_13h01.57.572,premceCat2_ses-02_part-01_label-phase1,2020.2.9,Win32,60,3,0,1.051405,0,5,5,5,1,,,,,,
0,"[0,0,0,1,1,1,0,0,1,1,0,0,1,0,1,1,0,0,0,1,1,0,1,0,1,1,1,1,1,1,0,1,0,1,1,1,0,1,0,0,1,1,1,1,0,0,1,1,0,1,0,1,1,1,1,1,1,1,0,1,0,1,1,1,1,1,1,1,1,1,1,1,0,1,1,1,0,0,1,0,0,0,0,0,0,0,1,1,1,1,1,1,1,0,1,1,0,0,1,1,1,1,0,1,1,0,0,1,0,0,1,0]",,,,,,,,,,0,,,,,,stimuli/m5.jpg,stimuli/m2.jpg,2,stimuli/Electronic device & accessory.png,stimuli/Outdoor activity & sport item.png,stimuli/Hand labour tool & accessory.png,stimuli/Kitchen & utensil.png,3,0,5,stimuli/m2.jpg,Hand labour tool & accessory,stimuli/objects/squeegee01b.jpg,14,2021-05-15_13h01.57.572,premceCat2_ses-02_part-01_label-phase1,2020.2.9,Win32,60,2,0,1.187015,0,6,6,6,1,,,,,,
1,"[0,0,0,1,1,1,0,0,1,1,0,0,1,0,1,1,0,0,0,1,1,0,1,0,1,1,1,1,1,1,0,1,0,1,1,1,0,1,0,0,1,1,1,1,0,0,1,1,0,1,0,1,1,1,1,1,1,1,0,1,0,1,1,1,1,1,1,1,1,1,1,1,0,1,1,1,0,0,1,0,0,0,0,0,0,0,1,1,1,1,1,1,1,0,1,1,0,0,1,1,1,1,0,1,1,0,0,1,0,0,1,0]",,,,,,,,,,1,,,,,,stimuli/m5.jpg,stimuli/m2.jpg,1,stimuli/Outdoor activity & sport item.png,stimuli/Kitchen & utensil.png,stimuli/Hand labour tool & accessory.png,stimuli/Electronic device & accessory.png,4,1,5,stimuli/m5.jpg,Electronic device & accessory,stimuli/objects/fuse.jpg,14,2021-05-15_13h01.57.572,premceCat2_ses-02_part-01_label-phase1,2020.2.9,Win32,60,4,1,1.016725,0,7,7,7,1,,,,,,
0,"[0,0,0,1,1,1,0,0,1,1,0,0,1,0,1,1,0,0,0,1,1,0,1,0,1,1,1,1,1,1,0,1,0,1,1,1,0,1,0,0,1,1,1,1,0,0,1,1,0,1,0,1,1,1,1,1,1,1,0,1,0,1,1,1,1,1,1,1,1,1,1,1,0,1,1,1,0,0,1,0,0,0,0,0,0,0,1,1,1,1,1,1,1,0,1,1,0,0,1,1,1,1,0,1,1,0,0,1,0,0,1,0,1]",,,,,,,,,,0,,,,,,stimuli/m2.jpg,stimuli/m5.jpg,1,stimuli/Kitchen & utensil.png,stimuli/Electronic device & accessory.png,stimuli/Hand labour tool & accessory.png,stimuli/Outdoor activity & sport item.png,4,1,5,stimuli/m2.jpg,Outdoor activity & sport item,stimuli/objects/poolnet.jpg,14,2021-05-15_13h01.57.572,premceCat2_ses-02_part-01_label-phase1,2020.2.9,Win32,60,3,0,1.799765,0,8,8,8,1,,,,,,
1,"[0,0,0,1,1,1,0,0,1,1,0,0,1,0,1,1,0,0,0,1,1,0,1,0,1,1,1,1,1,1,0,1,0,1,1,1,0,1,0,0,1,1,1,1,0,0,1,1,0,1,0,1,1,1,1,1,1,1,0,1,0,1,1,1,1,1,1,1,1,1,1,1,0,1,1,1,0,0,1,0,0,0,0,0,0,0,1,1,1,1,1,1,1,0,1,1,0,0,1,1,1,1,0,1,1,0,0,1,0,0,1,0,1,0]",,,,,,,,,,1,,,,,,stimuli/m5.jpg,stimuli/m2.jpg,2,stimuli/Electronic device & accessory.png,stimuli/Kitchen & utensil.png,stimuli/Outdoor activity & sport item.png,stimuli/Hand labour tool & accessory.png,3,1,5,stimuli/m2.jpg,Outdoor activity & sport item,stimuli/objects/hockeygoaliemask.jpg,14,2021-05-15_13h01.57.572,premceCat2_ses-02_part-01_label-phase1,2020.2.9,Win32,60,3,1,1.03624,0,9,9,9,1,,,,,,
0,"[0,0,0,1,1,1,0,0,1,1,0,0,1,0,1,1,0,0,0,1,1,0,1,0,1,1,1,1,1,1,0,1,0,1,1,1,0,1,0,0,1,1,1,1,0,0,1,1,0,1,0,1,1,1,1,1,1,1,0,1,0,1,1,1,1,1,1,1,1,1,1,1,0,1,1,1,0,0,1,0,0,0,0,0,0,0,1,1,1,1,1,1,1,0,1,1,0,0,1,1,1,1,0,1,1,0,0,1,0,0,1,0,1,0,1]",,,,,,,,,,0,,,,,,stimuli/m5.jpg,stimuli/m2.jpg,1,stimuli/Outdoor activity & sport item.png,stimuli/Electronic device & accessory.png,stimuli/Hand labour tool & accessory.png,stimuli/Kitchen & utensil.png,2,1,5,stimuli/m5.jpg,Electronic device & accessory,stimuli/objects/fan.jpg,14,2021-05-15_13h01.57.572,premceCat2_ses-02_part-01_label-phase1,2020.2.9,Win32,60,3,0,1.645985,0,10,10,10,1,,,,,,
0,"[0,0,0,1,1,1,0,0,1,1,0,0,1,0,1,1,0,0,0,1,1,0,1,0,1,1,1,1,1,1,0,1,0,1,1,1,0,1,0,0,1,1,1,1,0,0,1,1,0,1,0,1,1,1,1,1,1,1,0,1,0,1,1,1,1,1,1,1,1,1,1,1,0,1,1,1,0,0,1,0,0,0,0,0,0,0,1,1,1,1,1,1,1,0,1,1,0,0,1,1,1,1,0,1,1,0,0,1,0,0,1,0,1,0,1,0]",,,,,,,,,,0,,,,,,stimuli/m5.jpg,stimuli/m2.jpg,2,stimuli/Electronic device & accessory.png,stimuli/Hand labour tool & accessory.png,stimuli/Kitchen & utensil.png,stimuli/Outdoor activity & sport item.png,3,0,5,stimuli/m2.jpg,Kitchen & utensil,stimuli/objects/fryingpan02a.jpg,14,2021-05-15_13h01.57.572,premceCat2_ses-02_part-01_label-phase1,2020.2.9,Win32,60,4,0,1.435895,0,11,11,11,1,,,,,,
1,"[0,0,0,1,1,1,0,0,1,1,0,0,1,0,1,1,0,0,0,1,1,0,1,0,1,1,1,1,1,1,0,1,0,1,1,1,0,1,0,0,1,1,1,1,0,0,1,1,0,1,0,1,1,1,1,1,1,1,0,1,0,1,1,1,1,1,1,1,1,1,1,1,0,1,1,1,0,0,1,0,0,0,0,0,0,0,1,1,1,1,1,1,1,0,1,1,0,0,1,1,1,1,0,1,1,0,0,1,0,0,1,0,1,0,1,0]",,,,,,,,,,1,,,,,,stimuli/m2.jpg,stimuli/m5.jpg,2,stimuli/Kitchen & utensil.png,stimuli/Hand labour tool & accessory.png,stimuli/Electronic device & accessory.png,stimuli/Outdoor activity & sport item.png,3,1,5,stimuli/m5.jpg,Electronic device & accessory,stimuli/objects/carantenna.jpg,14,2021-05-15_13h01.57.572,premceCat2_ses-02_part-01_label-phase1,2020.2.9,Win32,60,3,1,1.133885,0,12,12,12,1,,,,,,
0,"[0,0,0,1,1,1,0,0,1,1,0,0,1,0,1,1,0,0,0,1,1,0,1,0,1,1,1,1,1,1,0,1,0,1,1,1,0,1,0,0,1,1,1,1,0,0,1,1,0,1,0,1,1,1,1,1,1,1,0,1,0,1,1,1,1,1,1,1,1,1,1,1,0,1,1,1,0,0,1,0,0,0,0,0,0,0,1,1,1,1,1,1,1,0,1,1,0,0,1,1,1,1,0,1,1,0,0,1,0,0,1,0,1,0,1,0,1]",,,,,,,,,,0,,,,,,stimuli/m5.jpg,stimuli/m2.jpg,2,stimuli/Kitchen & utensil.png,stimuli/Electronic device & accessory.png,stimuli/Hand labour tool & accessory.png,stimuli/Outdoor activity & sport item.png,4,1,5,stimuli/m2.jpg,Outdoor activity & sport item,stimuli/objects/bikewheel.jpg,14,2021-05-15_13h01.57.572,premceCat2_ses-02_part-01_label-phase1,2020.2.9,Win32,60,1,0,0.84707,0,13,13,13,1,,,,,,
1,"[0,0,0,1,1,1,0,0,1,1,0,0,1,0,1,1,0,0,0,1,1,0,1,0,1,1,1,1,1,1,0,1,0,1,1,1,0,1,0,0,1,1,1,1,0,0,1,1,0,1,0,1,1,1,1,1,1,1,0,1,0,1,1,1,1,1,1,1,1,1,1,1,0,1,1,1,0,0,1,0,0,0,0,0,0,0,1,1,1,1,1,1,1,0,1,1,0,0,1,1,1,1,0,1,1,0,0,1,0,0,1,0,1,0,1,0,1,0]",,,,,,,,,,1,,,,,,stimuli/m2.jpg,stimuli/m5.jpg,2,stimuli/Electronic device & accessory.png,stimuli/Outdoor activity & sport item.png,stimuli/Hand labour tool & accessory.png,stimuli/Kitchen & utensil.png,1,1,5,stimuli/m5.jpg,Electronic device & accessory,stimuli/objects/lightbulb01.jpg,14,2021-05-15_13h01.57.572,premceCat2_ses-02_part-01_label-phase1,2020.2.9,Win32,60,1,1,2.434735,0,14,14,14,1,,,,,,
0,"[0,0,0,1,1,1,0,0,1,1,0,0,1,0,1,1,0,0,0,1,1,0,1,0,1,1,1,1,1,1,0,1,0,1,1,1,0,1,0,0,1,1,1,1,0,0,1,1,0,1,0,1,1,1,1,1,1,1,0,1,0,1,1,1,1,1,1,1,1,1,1,1,0,1,1,1,0,0,1,0,0,0,0,0,0,0,1,1,1,1,1,1,1,0,1,1,0,0,1,1,1,1,0,1,1,0,0,1,0,0,1,0,1,0,1,0,1,0,1]",,,,,,,,,,0,,,,,,stimuli/m5.jpg,stimuli/m2.jpg,2,stimuli/Hand labour tool & accessory.png,stimuli/Electronic device & accessory.png,stimuli/Kitchen & utensil.png,stimuli/Outdoor activity & sport item.png,4,1,5,stimuli/m2.jpg,Outdoor activity & sport item,stimuli/objects/bikepump01.jpg,14,2021-05-15_13h01.57.572,premceCat2_ses-02_part-01_label-phase1,2020.2.9,Win32,60,2,0,1.25338,0,15,15,15,1,,,,,,
1,"[0,0,0,1,1,1,0,0,1,1,0,0,1,0,1,1,0,0,0,1,1,0,1,0,1,1,1,1,1,1,0,1,0,1,1,1,0,1,0,0,1,1,1,1,0,0,1,1,0,1,0,1,1,1,1,1,1,1,0,1,0,1,1,1,1,1,1,1,1,1,1,1,0,1,1,1,0,0,1,0,0,0,0,0,0,0,1,1,1,1,1,1,1,0,1,1,0,0,1,1,1,1,0,1,1,0,0,1,0,0,1,0,1,0,1,0,1,0,1,0]",,,,,,,,,,1,,,,,,stimuli/m2.jpg,stimuli/m5.jpg,2,stimuli/Hand labour tool & accessory.png,stimuli/Kitchen & utensil.png,stimuli/Electronic device & accessory.png,stimuli/Outdoor activity & sport item.png,3,1,5,stimuli/m5.jpg,Electronic device & accessory,stimuli/objects/chandelier.jpg,14,2021-05-15_13h01.57.572,premceCat2_ses-02_part-01_label-phase1,2020.2.9,Win32,60,3,1,1.09117,0,16,16,16,1,,,,,,
0,"[0,0,0,1,1,1,0,0,1,1,0,0,1,0,1,1,0,0,0,1,1,0,1,0,1,1,1,1,1,1,0,1,0,1,1,1,0,1,0,0,1,1,1,1,0,0,1,1,0,1,0,1,1,1,1,1,1,1,0,1,0,1,1,1,1,1,1,1,1,1,1,1,0,1,1,1,0,0,1,0,0,0,0,0,0,0,1,1,1,1,1,1,1,0,1,1,0,0,1,1,1,1,0,1,1,0,0,1,0,0,1,0,1,0,1,0,1,0,1,0,1]",,,,,,,,,,0,,,,,,stimuli/m2.jpg,stimuli/m5.jpg,1,stimuli/Outdoor activity & sport item.png,stimuli/Electronic device & accessory.png,stimuli/Hand labour tool & accessory.png,stimuli/Kitchen & utensil.png,1,1,5,stimuli/m2.jpg,Outdoor activity & sport item,stimuli/objects/magneticcompass.jpg,14,2021-05-15_13h01.57.572,premceCat2_ses-02_part-01_label-phase1,2020.2.9,Win32,60,4,0,1.241705,0,17,17,17,1,,,,,,
1,"[0,0,0,1,1,1,0,0,1,1,0,0,1,0,1,1,0,0,0,1,1,0,1,0,1,1,1,1,1,1,0,1,0,1,1,1,0,1,0,0,1,1,1,1,0,0,1,1,0,1,0,1,1,1,1,1,1,1,0,1,0,1,1,1,1,1,1,1,1,1,1,1,0,1,1,1,0,0,1,0,0,0,0,0,0,0,1,1,1,1,1,1,1,0,1,1,0,0,1,1,1,1,0,1,1,0,0,1,0,0,1,0,1,0,1,0,1,0,1,0,1,0]",,,,,,,,,,1,,,,,,stimuli/m5.jpg,stimuli/m2.jpg,2,stimuli/Hand labour tool & accessory.png,stimuli/Electronic device & accessory.png,stimuli/Outdoor activity & sport item.png,stimuli/Kitchen & utensil.png,3,1,5,stimuli/m2.jpg,Outdoor activity & sport item,stimuli/objects/baseball01a.jpg,14,2021-05-15_13h01.57.572,premceCat2_ses-02_part-01_label-phase1,2020.2.9,Win32,60,3,1,1.19601,0,18,18,18,1,,,,,,
1,"[0,0,0,1,1,1,0,0,1,1,0,0,1,0,1,1,0,0,0,1,1,0,1,0,1,1,1,1,1,1,0,1,0,1,1,1,0,1,0,0,1,1,1,1,0,0,1,1,0,1,0,1,1,1,1,1,1,1,0,1,0,1,1,1,1,1,1,1,1,1,1,1,0,1,1,1,0,0,1,0,0,0,0,0,0,0,1,1,1,1,1,1,1,0,1,1,0,0,1,1,1,1,0,1,1,0,0,1,0,0,1,0,1,0,1,0,1,0,1,0,1,0,1]",,,,,,,,,,1,,,,,,stimuli/m2.jpg,stimuli/m5.jpg,1,stimuli/Hand labour tool & accessory.png,stimuli/Outdoor activity & sport item.png,stimuli/Electronic device & accessory.png,stimuli/Kitchen & utensil.png,2,1,5,stimuli/m2.jpg,Outdoor activity & sport item,stimuli/objects/handgripper.jpg,14,2021-05-15_13h01.57.572,premceCat2_ses-02_part-01_label-phase1,2020.2.9,Win32,60,2,1,1.067655,0,19,19,19,1,,,,,,
1,"[0,0,0,1,1,1,0,0,1,1,0,0,1,0,1,1,0,0,0,1,1,0,1,0,1,1,1,1,1,1,0,1,0,1,1,1,0,1,0,0,1,1,1,1,0,0,1,1,0,1,0,1,1,1,1,1,1,1,0,1,0,1,1,1,1,1,1,1,1,1,1,1,0,1,1,1,0,0,1,0,0,0,0,0,0,0,1,1,1,1,1,1,1,0,1,1,0,0,1,1,1,1,0,1,1,0,0,1,0,0,1,0,1,0,1,0,1,0,1,0,1,0,1,1]",,,,,,,,,,1,,,,,,stimuli/m5.jpg,stimuli/m2.jpg,2,stimuli/Hand labour tool & accessory.png,stimuli/Outdoor activity & sport item.png,stimuli/Electronic device & accessory.png,stimuli/Kitchen & utensil.png,2,1,5,stimuli/m2.jpg,Outdoor activity & sport item,stimuli/objects/snowboard.jpg,14,2021-05-15_13h01.57.572,premceCat2_ses-02_part-01_label-phase1,2020.2.9,Win32,60,2,1,0.69722,0,20,20,20,1,,,,,,
1,"[0,0,0,1,1,1,0,0,1,1,0,0,1,0,1,1,0,0,0,1,1,0,1,0,1,1,1,1,1,1,0,1,0,1,1,1,0,1,0,0,1,1,1,1,0,0,1,1,0,1,0,1,1,1,1,1,1,1,0,1,0,1,1,1,1,1,1,1,1,1,1,1,0,1,1,1,0,0,1,0,0,0,0,0,0,0,1,1,1,1,1,1,1,0,1,1,0,0,1,1,1,1,0,1,1,0,0,1,0,0,1,0,1,0,1,0,1,0,1,0,1,0,1,1,1]",,,,,,,,,,1,,,,,,stimuli/m2.jpg,stimuli/m5.jpg,2,stimuli/Electronic device & accessory.png,stimuli/Kitchen & utensil.png,stimuli/Outdoor activity & sport item.png,stimuli/Hand labour tool & accessory.png,4,0,5,stimuli/m5.jpg,Hand labour tool & accessory,stimuli/objects/painttray.jpg,14,2021-05-15_13h01.57.572,premceCat2_ses-02_part-01_label-phase1,2020.2.9,Win32,60,4,1,1.101155,0,21,21,21,1,,,,,,
1,"[0,0,0,1,1,1,0,0,1,1,0,0,1,0,1,1,0,0,0,1,1,0,1,0,1,1,1,1,1,1,0,1,0,1,1,1,0,1,0,0,1,1,1,1,0,0,1,1,0,1,0,1,1,1,1,1,1,1,0,1,0,1,1,1,1,1,1,1,1,1,1,1,0,1,1,1,0,0,1,0,0,0,0,0,0,0,1,1,1,1,1,1,1,0,1,1,0,0,1,1,1,1,0,1,1,0,0,1,0,0,1,0,1,0,1,0,1,0,1,0,1,0,1,1,1]",,,,,,,,,,1,,,,,,stimuli/m2.jpg,stimuli/m5.jpg,1,stimuli/Outdoor activity & sport item.png,stimuli/Hand labour tool & accessory.png,stimuli/Electronic device & accessory.png,stimuli/Kitchen & utensil.png,1,1,5,stimuli/m2.jpg,Outdoor activity & sport item,stimuli/objects/hockeygoalieglove.jpg,14,2021-05-15_13h01.57.572,premceCat2_ses-02_part-01_label-phase1,2020.2.9,Win32,60,1,1,0.69795,0,22,22,22,1,,,,,,
0,"[0,0,0,1,1,1,0,0,1,1,0,0,1,0,1,1,0,0,0,1,1,0,1,0,1,1,1,1,1,1,0,1,0,1,1,1,0,1,0,0,1,1,1,1,0,0,1,1,0,1,0,1,1,1,1,1,1,1,0,1,0,1,1,1,1,1,1,1,1,1,1,1,0,1,1,1,0,0,1,0,0,0,0,0,0,0,1,1,1,1,1,1,1,0,1,1,0,0,1,1,1,1,0,1,1,0,0,1,0,0,1,0,1,0,1,0,1,0,1,0,1,0,1,1,1,1]",,,,,,,,,,1,,,,,,stimuli/m5.jpg,stimuli/m2.jpg,1,stimuli/Electronic device & accessory.png,stimuli/Kitchen & utensil.png,stimuli/Outdoor activity & sport item.png,stimuli/Hand labour tool & accessory.png,4,0,5,stimuli/m5.jpg,Hand labour tool & accessory,stimuli/objects/drillbit03a.jpg,14,2021-05-15_13h01.57.572,premceCat2_ses-02_part-01_label-phase1,2020.2.9,Win32,60,2,0,2.83408,0,23,23,23,1,,,,,,
0,"[0,0,0,1,1,1,0,0,1,1,0,0,1,0,1,1,0,0,0,1,1,0,1,0,1,1,1,1,1,1,0,1,0,1,1,1,0,1,0,0,1,1,1,1,0,0,1,1,0,1,0,1,1,1,1,1,1,1,0,1,0,1,1,1,1,1,1,1,1,1,1,1,0,1,1,1,0,0,1,0,0,0,0,0,0,0,1,1,1,1,1,1,1,0,1,1,0,0,1,1,1,1,0,1,1,0,0,1,0,0,1,0,1,0,1,0,1,0,1,0,1,0,1,1,1,1]",,,,,,,,,,1,,,,,,stimuli/m5.jpg,stimuli/m2.jpg,1,stimuli/Outdoor activity & sport item.png,stimuli/Electronic device & accessory.png,stimuli/Kitchen & utensil.png,stimuli/Hand labour tool & accessory.png,1,0,5,stimuli/m5.jpg,Outdoor activity & sport item,stimuli/objects/exercisemachine.jpg,14,2021-05-15_13h01.57.572,premceCat2_ses-02_part-01_label-phase1,2020.2.9,Win32,60,4,0,0.818075,0,24,24,24,1,,,,,,
0,"[0,0,0,1,1,1,0,0,1,1,0,0,1,0,1,1,0,0,0,1,1,0,1,0,1,1,1,1,1,1,0,1,0,1,1,1,0,1,0,0,1,1,1,1,0,0,1,1,0,1,0,1,1,1,1,1,1,1,0,1,0,1,1,1,1,1,1,1,1,1,1,1,0,1,1,1,0,0,1,0,0,0,0,0,0,0,1,1,1,1,1,1,1,0,1,1,0,0,1,1,1,1,0,1,1,0,0,1,0,0,1,0,1,0,1,0,1,0,1,0,1,0,1,1,1,1]",,,,,,,,,,0,,,,,,stimuli/m5.jpg,stimuli/m2.jpg,1,stimuli/Outdoor activity & sport item.png,stimuli/Hand labour tool & accessory.png,stimuli/Kitchen & utensil.png,stimuli/Electronic device & accessory.png,4,1,5,stimuli/m5.jpg,Electronic device & accessory,stimuli/objects/telephone01b.jpg,14,2021-05-15_13h01.57.572,premceCat2_ses-02_part-01_label-phase1,2020.2.9,Win32,60,1,0,1.21795,0,25,25,25,1,,,,,,
0,"[0,0,0,1,1,1,0,0,1,1,0,0,1,0,1,1,0,0,0,1,1,0,1,0,1,1,1,1,1,1,0,1,0,1,1,1,0,1,0,0,1,1,1,1,0,0,1,1,0,1,0,1,1,1,1,1,1,1,0,1,0,1,1,1,1,1,1,1,1,1,1,1,0,1,1,1,0,0,1,0,0,0,0,0,0,0,1,1,1,1,1,1,1,0,1,1,0,0,1,1,1,1,0,1,1,0,0,1,0,0,1,0,1,0,1,0,1,0,1,0,1,0,1,1,1,1,0]",,,,,,,,,,0,,,,,,stimuli/m5.jpg,stimuli/m2.jpg,2,stimuli/Kitchen & utensil.png,stimuli/Outdoor activity & sport item.png,stimuli/Electronic device & accessory.png,stimuli/Hand labour tool & accessory.png,1,0,5,stimuli/m2.jpg,Kitchen & utensil,stimuli/objects/spatula04.jpg,14,2021-05-15_13h01.57.572,premceCat2_ses-02_part-01_label-phase1,2020.2.9,Win32,60,2,0,0.735705,0,26,26,26,1,,,,,,
