instructions_loop.thisRepN,instructions_loop.thisTrialN,instructions_loop.thisN,instructions_loop.thisIndex,instructions_loop.ran,text1,text2,text3,participant,date,expName,psychopyVersion,OS,frameRate,key_resp_2.keys,key_resp_2.rt,key_resp_3.keys,key_resp_3.rt,recog_resp.keys,recog_resp.rt,conf_resp.keys,conf_resp.rt,recog_loop.thisRepN,recog_loop.thisTrialN,recog_loop.thisN,recog_loop.thisIndex,recog_loop.ran,images,corr_ans,type,order,resp_assoc.keys,resp_assoc.rt,assoc_loop.thisRepN,assoc_loop.thisTrialN,assoc_loop.thisN,assoc_loop.thisIndex,assoc_loop.ran,key_resp_break.keys,key_resp_break.rt,list_loop.thisRepN,list_loop.thisTrialN,list_loop.thisN,list_loop.thisIndex,list_loop.ran,recog_list
0,0,0,0,1,Welcome to the last phase of this experiment!,.,Please press the space bar to continue,14,2021-05-15_13h31.17.471,premceCat2_ses-02_part-02_label-phase2,2020.2.10,Win32,60,,,,,,,,,,,,,,,,,,,,,,,,,,,,,,,,
0,1,1,1,1,.,"In this phase, you will see some objects. 

For each object, you should indicate whether you have seen it before during the experiment.

Press LEFT ARROW for YES
Press RIGHT ARROW for NO

",Please press the space bar to continue ,14,2021-05-15_13h31.17.471,premceCat2_ses-02_part-02_label-phase2,2020.2.10,Win32,60,,,,,,,,,,,,,,,,,,,,,,,,,,,,,,,,
0,2,2,2,1,.,"After that, you will be asked how confident you are of your choice.

Please rate the confidence in your choice with the numbers from 1 to 4 of your keyboard. 

The numbers correspond to:

1 = Very unsure
2 = Unsure
3 = Sure
4 = Very Sure",Please press the space bar to continue,14,2021-05-15_13h31.17.471,premceCat2_ses-02_part-02_label-phase2,2020.2.10,Win32,60,,,,,,,,,,,,,,,,,,,,,,,,,,,,,,,,
,,,,,,,,14,2021-05-15_13h31.17.471,premceCat2_ses-02_part-02_label-phase2,2020.2.10,Win32,60,space,13.502875,space,14.473535,right,2.31102,2,1.702615,0,0,0,135,1,stimuli/objects/wheelbarrow01.jpg,left,old,136,,,,,,,,,,,,,,,
,,,,,,,,14,2021-05-15_13h31.17.471,premceCat2_ses-02_part-02_label-phase2,2020.2.10,Win32,60,,,,,left,1.613125,4,1.14572,,,,,,,,,,left,7.78885,0,0,0,0,1,,,,,,,,
,,,,,,,,14,2021-05-15_13h31.17.471,premceCat2_ses-02_part-02_label-phase2,2020.2.10,Win32,60,,,,,,,,,0,1,1,27,1,stimuli/objects/downhillski.jpg,left,old,28,,,,,,,,,,,,,,,
,,,,,,,,14,2021-05-15_13h31.17.471,premceCat2_ses-02_part-02_label-phase2,2020.2.10,Win32,60,,,,,left,2.773135,3,1.090695,,,,,,,,,,right,3.859365,0,0,0,0,1,,,,,,,,
,,,,,,,,14,2021-05-15_13h31.17.471,premceCat2_ses-02_part-02_label-phase2,2020.2.10,Win32,60,,,,,,,,,0,2,2,82,1,stimuli/objects/snowbrush.jpg,right,new,83,,,,,,,,,,,,,,,
,,,,,,,,14,2021-05-15_13h31.17.471,premceCat2_ses-02_part-02_label-phase2,2020.2.10,Win32,60,,,,,left,2.873985,3,1.41254,,,,,,,,,,right,0.848055,0,0,0,0,1,,,,,,,,
,,,,,,,,14,2021-05-15_13h31.17.471,premceCat2_ses-02_part-02_label-phase2,2020.2.10,Win32,60,,,,,,,,,0,3,3,83,1,stimuli/objects/kitchenscale01a.jpg,right,new,84,,,,,,,,,,,,,,,
,,,,,,,,14,2021-05-15_13h31.17.471,premceCat2_ses-02_part-02_label-phase2,2020.2.10,Win32,60,,,,,left,2.160985,3,0.96169,,,,,,,,,,left,3.41019,0,0,0,0,1,,,,,,,,
,,,,,,,,14,2021-05-15_13h31.17.471,premceCat2_ses-02_part-02_label-phase2,2020.2.10,Win32,60,,,,,,,,,0,4,4,31,1,stimuli/objects/ladder.jpg,left,old,32,,,,,,,,,,,,,,,
,,,,,,,,14,2021-05-15_13h31.17.471,premceCat2_ses-02_part-02_label-phase2,2020.2.10,Win32,60,,,,,right,2.119895,2,1.51627,0,5,5,41,1,stimuli/objects/pylon01.jpg,right,new,42,,,,,,,,,,,,,,,
,,,,,,,,14,2021-05-15_13h31.17.471,premceCat2_ses-02_part-02_label-phase2,2020.2.10,Win32,60,,,,,right,2.723445,3,2.99254,0,6,6,59,1,stimuli/objects/studiolight.jpg,right,new,60,,,,,,,,,,,,,,,
,,,,,,,,14,2021-05-15_13h31.17.471,premceCat2_ses-02_part-02_label-phase2,2020.2.10,Win32,60,,,,,left,1.54853,4,0.895995,,,,,,,,,,right,3.555985,0,0,0,0,1,,,,,,,,
,,,,,,,,14,2021-05-15_13h31.17.471,premceCat2_ses-02_part-02_label-phase2,2020.2.10,Win32,60,,,,,,,,,0,7,7,58,1,stimuli/objects/rope03.jpg,left,old,59,,,,,,,,,,,,,,,
,,,,,,,,14,2021-05-15_13h31.17.471,premceCat2_ses-02_part-02_label-phase2,2020.2.10,Win32,60,,,,,left,3.207145,2,1.00844,,,,,,,,,,left,5.208405,0,0,0,0,1,,,,,,,,
,,,,,,,,14,2021-05-15_13h31.17.471,premceCat2_ses-02_part-02_label-phase2,2020.2.10,Win32,60,,,,,,,,,0,8,8,21,1,stimuli/objects/paintbrush01.jpg,right,new,22,,,,,,,,,,,,,,,
,,,,,,,,14,2021-05-15_13h31.17.471,premceCat2_ses-02_part-02_label-phase2,2020.2.10,Win32,60,,,,,left,2.8559,2,3.866935,,,,,,,,,,right,1.37446,0,0,0,0,1,,,,,,,,
,,,,,,,,14,2021-05-15_13h31.17.471,premceCat2_ses-02_part-02_label-phase2,2020.2.10,Win32,60,,,,,,,,,0,9,9,94,1,stimuli/objects/electricmixer.jpg,right,new,95,,,,,,,,,,,,,,,
,,,,,,,,14,2021-05-15_13h31.17.471,premceCat2_ses-02_part-02_label-phase2,2020.2.10,Win32,60,,,,,left,2.62401,4,1.345425,,,,,,,,,,left,3.64228,0,0,0,0,1,,,,,,,,
,,,,,,,,14,2021-05-15_13h31.17.471,premceCat2_ses-02_part-02_label-phase2,2020.2.10,Win32,60,,,,,,,,,0,10,10,47,1,stimuli/objects/flooringstapler.jpg,left,old,48,,,,,,,,,,,,,,,
,,,,,,,,14,2021-05-15_13h31.17.471,premceCat2_ses-02_part-02_label-phase2,2020.2.10,Win32,60,,,,,left,2.196905,4,1.797835,,,,,,,,,,left,3.621825,0,0,0,0,1,,,,,,,,
,,,,,,,,14,2021-05-15_13h31.17.471,premceCat2_ses-02_part-02_label-phase2,2020.2.10,Win32,60,,,,,,,,,0,11,11,74,1,stimuli/objects/baseball01a.jpg,left,old,75,,,,,,,,,,,,,,,
,,,,,,,,14,2021-05-15_13h31.17.471,premceCat2_ses-02_part-02_label-phase2,2020.2.10,Win32,60,,,,,left,1.505855,4,0.803855,,,,,,,,,,right,5.164975,0,0,0,0,1,,,,,,,,
,,,,,,,,14,2021-05-15_13h31.17.471,premceCat2_ses-02_part-02_label-phase2,2020.2.10,Win32,60,,,,,,,,,0,12,12,5,1,stimuli/objects/lamp04a.jpg,left,old,6,,,,,,,,,,,,,,,
,,,,,,,,14,2021-05-15_13h31.17.471,premceCat2_ses-02_part-02_label-phase2,2020.2.10,Win32,60,,,,,right,2.505475,2,0.501045,0,13,13,64,1,stimuli/objects/axe01.jpg,left,old,65,,,,,,,,,,,,,,,
,,,,,,,,14,2021-05-15_13h31.17.471,premceCat2_ses-02_part-02_label-phase2,2020.2.10,Win32,60,,,,,right,7.34168,3,0.92117,0,14,14,16,1,stimuli/objects/pressurewasher.jpg,left,old,17,,,,,,,,,,,,,,,
,,,,,,,,14,2021-05-15_13h31.17.471,premceCat2_ses-02_part-02_label-phase2,2020.2.10,Win32,60,,,,,right,2.22209,3,0.717155,0,15,15,30,1,stimuli/objects/printer02.jpg,right,new,31,,,,,,,,,,,,,,,
,,,,,,,,14,2021-05-15_13h31.17.471,premceCat2_ses-02_part-02_label-phase2,2020.2.10,Win32,60,,,,,right,2.59724,3,0.590425,0,16,16,125,1,stimuli/objects/shoulderpad.jpg,right,new,126,,,,,,,,,,,,,,,
,,,,,,,,14,2021-05-15_13h31.17.471,premceCat2_ses-02_part-02_label-phase2,2020.2.10,Win32,60,,,,,left,2.26191,3,0.636155,,,,,,,,,,right,1.895655,0,0,0,0,1,,,,,,,,
,,,,,,,,14,2021-05-15_13h31.17.471,premceCat2_ses-02_part-02_label-phase2,2020.2.10,Win32,60,,,,,,,,,0,17,17,67,1,stimuli/objects/cooler01.jpg,left,old,68,,,,,,,,,,,,,,,
,,,,,,,,14,2021-05-15_13h31.17.471,premceCat2_ses-02_part-02_label-phase2,2020.2.10,Win32,60,,,,,right,2.15251,3,0.644835,0,18,18,25,1,stimuli/objects/bowlingball.jpg,right,new,26,,,,,,,,,,,,,,,
,,,,,,,,14,2021-05-15_13h31.17.471,premceCat2_ses-02_part-02_label-phase2,2020.2.10,Win32,60,,,,,left,2.38274,3,2.813995,,,,,,,,,,left,1.88923,0,0,0,0,1,,,,,,,,
,,,,,,,,14,2021-05-15_13h31.17.471,premceCat2_ses-02_part-02_label-phase2,2020.2.10,Win32,60,,,,,,,,,0,19,19,124,1,stimuli/objects/bikepump01.jpg,left,old,125,,,,,,,,,,,,,,,
,,,,,,,,14,2021-05-15_13h31.17.471,premceCat2_ses-02_part-02_label-phase2,2020.2.10,Win32,60,,,,,right,1.919555,3,1.02462,0,20,20,86,1,stimuli/objects/toasteroven.jpg,right,new,87,,,,,,,,,,,,,,,
,,,,,,,,14,2021-05-15_13h31.17.471,premceCat2_ses-02_part-02_label-phase2,2020.2.10,Win32,60,,,,,right,2.333935,2,0.719345,0,21,21,7,1,stimuli/objects/jigsaw.jpg,left,old,8,,,,,,,,,,,,,,,
,,,,,,,,14,2021-05-15_13h31.17.471,premceCat2_ses-02_part-02_label-phase2,2020.2.10,Win32,60,,,,,right,2.325165,2,0.793255,0,22,22,32,1,stimuli/objects/mitresaw.jpg,right,new,33,,,,,,,,,,,,,,,
,,,,,,,,14,2021-05-15_13h31.17.471,premceCat2_ses-02_part-02_label-phase2,2020.2.10,Win32,60,,,,,right,1.849075,3,0.562895,0,23,23,12,1,stimuli/objects/garlicpress02a.jpg,right,new,13,,,,,,,,,,,,,,,
,,,,,,,,14,2021-05-15_13h31.17.471,premceCat2_ses-02_part-02_label-phase2,2020.2.10,Win32,60,,,,,right,2.93213,2,0.578835,0,24,24,65,1,stimuli/objects/pipewrench.jpg,left,old,66,,,,,,,,,,,,,,,
,,,,,,,,14,2021-05-15_13h31.17.471,premceCat2_ses-02_part-02_label-phase2,2020.2.10,Win32,60,,,,,right,3.07851,3,0.60738,0,25,25,39,1,stimuli/objects/sippycup.jpg,right,new,40,,,,,,,,,,,,,,,
,,,,,,,,14,2021-05-15_13h31.17.471,premceCat2_ses-02_part-02_label-phase2,2020.2.10,Win32,60,,,,,left,1.330295,4,1.192,,,,,,,,,,right,2.33434,0,0,0,0,1,,,,,,,,
,,,,,,,,14,2021-05-15_13h31.17.471,premceCat2_ses-02_part-02_label-phase2,2020.2.10,Win32,60,,,,,,,,,0,26,26,98,1,stimuli/objects/podium.jpg,left,old,99,,,,,,,,,,,,,,,
,,,,,,,,14,2021-05-15_13h31.17.471,premceCat2_ses-02_part-02_label-phase2,2020.2.10,Win32,60,,,,,right,2.25769,2,0.612395,0,27,27,55,1,stimuli/objects/toolbox02.jpg,right,new,56,,,,,,,,,,,,,,,
,,,,,,,,14,2021-05-15_13h31.17.471,premceCat2_ses-02_part-02_label-phase2,2020.2.10,Win32,60,,,,,right,2.252645,3,0.52169,0,28,28,112,1,stimuli/objects/gymnasticring.jpg,right,new,113,,,,,,,,,,,,,,,
,,,,,,,,14,2021-05-15_13h31.17.471,premceCat2_ses-02_part-02_label-phase2,2020.2.10,Win32,60,,,,,right,2.736485,4,0.496685,0,29,29,43,1,stimuli/objects/punchingball.jpg,right,new,44,,,,,,,,,,,,,,,
,,,,,,,,14,2021-05-15_13h31.17.471,premceCat2_ses-02_part-02_label-phase2,2020.2.10,Win32,60,,,,,left,1.15791,4,0.59495,,,,,,,,,,right,1.12402,0,0,0,0,1,,,,,,,,
,,,,,,,,14,2021-05-15_13h31.17.471,premceCat2_ses-02_part-02_label-phase2,2020.2.10,Win32,60,,,,,,,,,0,30,30,10,1,stimuli/objects/desktopcomputer.jpg,left,old,11,,,,,,,,,,,,,,,
,,,,,,,,14,2021-05-15_13h31.17.471,premceCat2_ses-02_part-02_label-phase2,2020.2.10,Win32,60,,,,,right,2.553135,3,0.7386,0,31,31,128,1,stimuli/objects/tripod01.jpg,right,new,129,,,,,,,,,,,,,,,
,,,,,,,,14,2021-05-15_13h31.17.471,premceCat2_ses-02_part-02_label-phase2,2020.2.10,Win32,60,,,,,right,3.386425,2,0.79108,0,32,32,22,1,stimuli/objects/umbrella04.jpg,right,new,23,,,,,,,,,,,,,,,
,,,,,,,,14,2021-05-15_13h31.17.471,premceCat2_ses-02_part-02_label-phase2,2020.2.10,Win32,60,,,,,left,1.409195,4,1.488995,,,,,,,,,,left,1.695505,0,0,0,0,1,,,,,,,,
,,,,,,,,14,2021-05-15_13h31.17.471,premceCat2_ses-02_part-02_label-phase2,2020.2.10,Win32,60,,,,,,,,,0,33,33,70,1,stimuli/objects/hourglass.jpg,left,old,71,,,,,,,,,,,,,,,
,,,,,,,,14,2021-05-15_13h31.17.471,premceCat2_ses-02_part-02_label-phase2,2020.2.10,Win32,60,,,,,left,1.631985,4,1.055525,,,,,,,,,,right,2.746435,0,0,0,0,1,,,,,,,,
,,,,,,,,14,2021-05-15_13h31.17.471,premceCat2_ses-02_part-02_label-phase2,2020.2.10,Win32,60,,,,,,,,,0,34,34,69,1,stimuli/objects/cellphone.jpg,left,old,70,,,,,,,,,,,,,,,
,,,,,,,,14,2021-05-15_13h31.17.471,premceCat2_ses-02_part-02_label-phase2,2020.2.10,Win32,60,,,,,left,3.885175,2,1.386425,,,,,,,,,,right,2.498985,0,0,0,0,1,,,,,,,,
,,,,,,,,14,2021-05-15_13h31.17.471,premceCat2_ses-02_part-02_label-phase2,2020.2.10,Win32,60,,,,,,,,,0,35,35,134,1,stimuli/objects/screwdriver04b.jpg,right,new,135,,,,,,,,,,,,,,,
,,,,,,,,14,2021-05-15_13h31.17.471,premceCat2_ses-02_part-02_label-phase2,2020.2.10,Win32,60,,,,,right,1.684225,2,0.564135,0,36,36,20,1,stimuli/objects/laptop01a.jpg,right,new,21,,,,,,,,,,,,,,,
,,,,,,,,14,2021-05-15_13h31.17.471,premceCat2_ses-02_part-02_label-phase2,2020.2.10,Win32,60,,,,,right,1.76882,3,0.52327,0,37,37,138,1,stimuli/objects/taperecorder.jpg,right,new,139,,,,,,,,,,,,,,,
,,,,,,,,14,2021-05-15_13h31.17.471,premceCat2_ses-02_part-02_label-phase2,2020.2.10,Win32,60,,,,,left,1.92965,3,0.975555,,,,,,,,,,right,0.74038,0,0,0,0,1,,,,,,,,
,,,,,,,,14,2021-05-15_13h31.17.471,premceCat2_ses-02_part-02_label-phase2,2020.2.10,Win32,60,,,,,,,,,0,38,38,87,1,stimuli/objects/dvdplayer.jpg,left,old,88,,,,,,,,,,,,,,,
,,,,,,,,14,2021-05-15_13h31.17.471,premceCat2_ses-02_part-02_label-phase2,2020.2.10,Win32,60,,,,,left,2.26749,2,0.49841,,,,,,,,,,left,1.6913,0,0,0,0,1,,,,,,,,
,,,,,,,,14,2021-05-15_13h31.17.471,premceCat2_ses-02_part-02_label-phase2,2020.2.10,Win32,60,,,,,,,,,0,39,39,19,1,stimuli/objects/peppermill02b.jpg,right,new,20,,,,,,,,,,,,,,,
,,,,,,,,14,2021-05-15_13h31.17.471,premceCat2_ses-02_part-02_label-phase2,2020.2.10,Win32,60,,,,,right,2.647165,3,0.493715,0,40,40,117,1,stimuli/objects/videotape01b.jpg,right,new,118,,,,,,,,,,,,,,,
,,,,,,,,14,2021-05-15_13h31.17.471,premceCat2_ses-02_part-02_label-phase2,2020.2.10,Win32,60,,,,,left,4.76046,2,0.38846,,,,,,,,,,right,3.386305,0,0,0,0,1,,,,,,,,
,,,,,,,,14,2021-05-15_13h31.17.471,premceCat2_ses-02_part-02_label-phase2,2020.2.10,Win32,60,,,,,,,,,0,41,41,130,1,stimuli/objects/bikewheel.jpg,left,old,131,,,,,,,,,,,,,,,
,,,,,,,,14,2021-05-15_13h31.17.471,premceCat2_ses-02_part-02_label-phase2,2020.2.10,Win32,60,,,,,left,1.656835,4,0.75555,,,,,,,,,,left,2.69277,0,0,0,0,1,,,,,,,,
,,,,,,,,14,2021-05-15_13h31.17.471,premceCat2_ses-02_part-02_label-phase2,2020.2.10,Win32,60,,,,,,,,,0,42,42,3,1,stimuli/objects/bowl02a.jpg,left,old,4,,,,,,,,,,,,,,,
,,,,,,,,14,2021-05-15_13h31.17.471,premceCat2_ses-02_part-02_label-phase2,2020.2.10,Win32,60,,,,,left,1.116935,4,0.349105,,,,,,,,,,right,2.433335,0,0,0,0,1,,,,,,,,
,,,,,,,,14,2021-05-15_13h31.17.471,premceCat2_ses-02_part-02_label-phase2,2020.2.10,Win32,60,,,,,,,,,0,43,43,78,1,stimuli/objects/handmixer01d.jpg,left,old,79,,,,,,,,,,,,,,,
,,,,,,,,14,2021-05-15_13h31.17.471,premceCat2_ses-02_part-02_label-phase2,2020.2.10,Win32,60,,,,,right,3.38244,2,1.172845,0,44,44,116,1,stimuli/objects/radio01.jpg,right,new,117,,,,,,,,,,,,,,,
,,,,,,,,14,2021-05-15_13h31.17.471,premceCat2_ses-02_part-02_label-phase2,2020.2.10,Win32,60,,,,,right,2.904715,1,0.52659,0,45,45,4,1,stimuli/objects/microphone01.jpg,right,new,5,,,,,,,,,,,,,,,
,,,,,,,,14,2021-05-15_13h31.17.471,premceCat2_ses-02_part-02_label-phase2,2020.2.10,Win32,60,,,,,right,3.024745,2,0.37703,0,46,46,63,1,stimuli/objects/butterdish.jpg,right,new,64,,,,,,,,,,,,,,,
,,,,,,,,14,2021-05-15_13h31.17.471,premceCat2_ses-02_part-02_label-phase2,2020.2.10,Win32,60,,,,,left,4.036015,2,0.447905,,,,,,,,,,left,1.13874,0,0,0,0,1,,,,,,,,
,,,,,,,,14,2021-05-15_13h31.17.471,premceCat2_ses-02_part-02_label-phase2,2020.2.10,Win32,60,,,,,,,,,0,47,47,18,1,stimuli/objects/cashregister01.jpg,right,new,19,,,,,,,,,,,,,,,
,,,,,,,,14,2021-05-15_13h31.17.471,premceCat2_ses-02_part-02_label-phase2,2020.2.10,Win32,60,,,,,right,3.554805,2,0.497285,0,48,48,108,1,stimuli/objects/metalscissors.jpg,right,new,109,,,,,,,,,,,,,,,
,,,,,,,,14,2021-05-15_13h31.17.471,premceCat2_ses-02_part-02_label-phase2,2020.2.10,Win32,60,,,,,right,1.615105,3,0.41123,0,49,49,9,1,stimuli/objects/measuringtape01.jpg,right,new,10,,,,,,,,,,,,,,,
,,,,,,,,14,2021-05-15_13h31.17.471,premceCat2_ses-02_part-02_label-phase2,2020.2.10,Win32,60,,,,,left,1.067045,4,0.609565,,,,,,,,,,right,3.87876,0,0,0,0,1,,,,,,,,
,,,,,,,,14,2021-05-15_13h31.17.471,premceCat2_ses-02_part-02_label-phase2,2020.2.10,Win32,60,,,,,,,,,0,50,50,11,1,stimuli/objects/usbkey.jpg,left,old,12,,,,,,,,,,,,,,,
,,,,,,,,14,2021-05-15_13h31.17.471,premceCat2_ses-02_part-02_label-phase2,2020.2.10,Win32,60,,,,,right,2.236795,3,0.391375,0,51,51,133,1,stimuli/objects/icebucket.jpg,right,new,134,,,,,,,,,,,,,,,
,,,,,,,,14,2021-05-15_13h31.17.471,premceCat2_ses-02_part-02_label-phase2,2020.2.10,Win32,60,,,,,left,1.41981,4,0.46004,,,,,,,,,,left,0.816235,0,0,0,0,1,,,,,,,,
,,,,,,,,14,2021-05-15_13h31.17.471,premceCat2_ses-02_part-02_label-phase2,2020.2.10,Win32,60,,,,,,,,,0,52,52,0,1,stimuli/objects/electricoutlet.jpg,left,old,1,,,,,,,,,,,,,,,
,,,,,,,,14,2021-05-15_13h31.17.471,premceCat2_ses-02_part-02_label-phase2,2020.2.10,Win32,60,,,,,left,1.49154,4,0.495375,,,,,,,,,,left,2.083905,0,0,0,0,1,,,,,,,,
,,,,,,,,14,2021-05-15_13h31.17.471,premceCat2_ses-02_part-02_label-phase2,2020.2.10,Win32,60,,,,,,,,,0,53,53,114,1,stimuli/objects/espressomachine.jpg,left,old,115,,,,,,,,,,,,,,,
,,,,,,,,14,2021-05-15_13h31.17.471,premceCat2_ses-02_part-02_label-phase2,2020.2.10,Win32,60,,,,,right,2.282525,3,1.17258,0,54,54,44,1,stimuli/objects/level03a.jpg,left,old,45,,,,,,,,,,,,,,,
,,,,,,,,14,2021-05-15_13h31.17.471,premceCat2_ses-02_part-02_label-phase2,2020.2.10,Win32,60,,,,,left,1.23457,4,0.61722,,,,,,,,,,left,1.61146,0,0,0,0,1,,,,,,,,
,,,,,,,,14,2021-05-15_13h31.17.471,premceCat2_ses-02_part-02_label-phase2,2020.2.10,Win32,60,,,,,,,,,0,55,55,49,1,stimuli/objects/canoepaddle02.jpg,left,old,50,,,,,,,,,,,,,,,
,,,,,,,,14,2021-05-15_13h31.17.471,premceCat2_ses-02_part-02_label-phase2,2020.2.10,Win32,60,,,,,left,1.537155,4,0.59566,,,,,,,,,,right,1.160545,0,0,0,0,1,,,,,,,,
,,,,,,,,14,2021-05-15_13h31.17.471,premceCat2_ses-02_part-02_label-phase2,2020.2.10,Win32,60,,,,,,,,,0,56,56,95,1,stimuli/objects/lectern01.jpg,left,old,96,,,,,,,,,,,,,,,
,,,,,,,,14,2021-05-15_13h31.17.471,premceCat2_ses-02_part-02_label-phase2,2020.2.10,Win32,60,,,,,right,2.122105,3,0.461375,0,57,57,136,1,stimuli/objects/battery02b.jpg,right,new,137,,,,,,,,,,,,,,,
,,,,,,,,14,2021-05-15_13h31.17.471,premceCat2_ses-02_part-02_label-phase2,2020.2.10,Win32,60,,,,,left,2.119425,2,0.48189,,,,,,,,,,left,0.761585,0,0,0,0,1,,,,,,,,
,,,,,,,,14,2021-05-15_13h31.17.471,premceCat2_ses-02_part-02_label-phase2,2020.2.10,Win32,60,,,,,,,,,0,58,58,107,1,stimuli/objects/waterbottle03.jpg,left,old,108,,,,,,,,,,,,,,,
,,,,,,,,14,2021-05-15_13h31.17.471,premceCat2_ses-02_part-02_label-phase2,2020.2.10,Win32,60,,,,,right,2.300475,3,0.572995,0,59,59,92,1,stimuli/objects/carjack.jpg,right,new,93,,,,,,,,,,,,,,,
,,,,,,,,14,2021-05-15_13h31.17.471,premceCat2_ses-02_part-02_label-phase2,2020.2.10,Win32,60,,,,,right,2.43874,3,0.68814,0,60,60,109,1,stimuli/objects/winerack.jpg,right,new,110,,,,,,,,,,,,,,,
,,,,,,,,14,2021-05-15_13h31.17.471,premceCat2_ses-02_part-02_label-phase2,2020.2.10,Win32,60,,,,,left,1.73351,2,0.947385,,,,,,,,,,left,2.679535,0,0,0,0,1,,,,,,,,
,,,,,,,,14,2021-05-15_13h31.17.471,premceCat2_ses-02_part-02_label-phase2,2020.2.10,Win32,60,,,,,,,,,0,61,61,96,1,stimuli/objects/golfbag.jpg,right,new,97,,,,,,,,,,,,,,,
,,,,,,,,14,2021-05-15_13h31.17.471,premceCat2_ses-02_part-02_label-phase2,2020.2.10,Win32,60,,,,,left,3.63434,2,0.331875,,,,,,,,,,right,0.90558,0,0,0,0,1,,,,,,,,
,,,,,,,,14,2021-05-15_13h31.17.471,premceCat2_ses-02_part-02_label-phase2,2020.2.10,Win32,60,,,,,,,,,0,62,62,35,1,stimuli/objects/phonejack.jpg,left,old,36,,,,,,,,,,,,,,,
,,,,,,,,14,2021-05-15_13h31.17.471,premceCat2_ses-02_part-02_label-phase2,2020.2.10,Win32,60,,,,,left,1.522395,4,0.556975,,,,,,,,,,right,3.492485,0,0,0,0,1,,,,,,,,
,,,,,,,,14,2021-05-15_13h31.17.471,premceCat2_ses-02_part-02_label-phase2,2020.2.10,Win32,60,,,,,,,,,0,63,63,101,1,stimuli/objects/gps.jpg,left,old,102,,,,,,,,,,,,,,,
,,,,,,,,14,2021-05-15_13h31.17.471,premceCat2_ses-02_part-02_label-phase2,2020.2.10,Win32,60,,,,,right,1.58768,3,0.74611,0,64,64,141,1,stimuli/objects/generator.jpg,right,new,142,,,,,,,,,,,,,,,
,,,,,,,,14,2021-05-15_13h31.17.471,premceCat2_ses-02_part-02_label-phase2,2020.2.10,Win32,60,,,,,left,1.060845,4,0.43163,,,,,,,,,,left,0.5733,0,0,0,0,1,,,,,,,,
,,,,,,,,14,2021-05-15_13h31.17.471,premceCat2_ses-02_part-02_label-phase2,2020.2.10,Win32,60,,,,,,,,,0,65,65,88,1,stimuli/objects/cork02.jpg,left,old,89,,,,,,,,,,,,,,,
,,,,,,,,14,2021-05-15_13h31.17.471,premceCat2_ses-02_part-02_label-phase2,2020.2.10,Win32,60,,,,,left,2.1866,2,0.416595,,,,,,,,,,right,0.56331,0,0,0,0,1,,,,,,,,
,,,,,,,,14,2021-05-15_13h31.17.471,premceCat2_ses-02_part-02_label-phase2,2020.2.10,Win32,60,,,,,,,,,0,66,66,61,1,stimuli/objects/weedwacker.jpg,left,old,62,,,,,,,,,,,,,,,
,,,,,,,,14,2021-05-15_13h31.17.471,premceCat2_ses-02_part-02_label-phase2,2020.2.10,Win32,60,,,,,left,1.433055,3,0.46979,,,,,,,,,,right,1.499125,0,0,0,0,1,,,,,,,,
,,,,,,,,14,2021-05-15_13h31.17.471,premceCat2_ses-02_part-02_label-phase2,2020.2.10,Win32,60,,,,,,,,,0,67,67,97,1,stimuli/objects/satellitedish01.jpg,left,old,98,,,,,,,,,,,,,,,
,,,,,,,,14,2021-05-15_13h31.17.471,premceCat2_ses-02_part-02_label-phase2,2020.2.10,Win32,60,,,,,right,2.20592,2,0.682895,0,68,68,17,1,stimuli/objects/exercisebench.jpg,right,new,18,,,,,,,,,,,,,,,
,,,,,,,,14,2021-05-15_13h31.17.471,premceCat2_ses-02_part-02_label-phase2,2020.2.10,Win32,60,,,,,left,0.98946,4,0.52713,,,,,,,,,,right,1.94203,0,0,0,0,1,,,,,,,,
,,,,,,,,14,2021-05-15_13h31.17.471,premceCat2_ses-02_part-02_label-phase2,2020.2.10,Win32,60,,,,,,,,,0,69,69,104,1,stimuli/objects/lightbulb01.jpg,left,old,105,,,,,,,,,,,,,,,
,,,,,,,,14,2021-05-15_13h31.17.471,premceCat2_ses-02_part-02_label-phase2,2020.2.10,Win32,60,,,,,right,1.16655,3,0.28092,0,70,70,60,1,stimuli/objects/glass02a.jpg,right,new,61,,,,,,,,,,,,,,,
,,,,,,,,14,2021-05-15_13h31.17.471,premceCat2_ses-02_part-02_label-phase2,2020.2.10,Win32,60,,,,,left,1.050265,4,0.72815,,,,,,,,,,left,0.879755,0,0,0,0,1,,,,,,,,
,,,,,,,,14,2021-05-15_13h31.17.471,premceCat2_ses-02_part-02_label-phase2,2020.2.10,Win32,60,,,,,,,,,0,71,71,140,1,stimuli/objects/anchor.jpg,left,old,141,,,,,,,,,,,,,,,
,,,,,,,,14,2021-05-15_13h31.17.471,premceCat2_ses-02_part-02_label-phase2,2020.2.10,Win32,60,,,,,left,1.43992,3,0.702555,,,,,,,,,,left,1.147125,0,0,0,0,1,,,,,,,,
,,,,,,,,14,2021-05-15_13h31.17.471,premceCat2_ses-02_part-02_label-phase2,2020.2.10,Win32,60,,,,,,,,,0,72,72,115,1,stimuli/objects/boltcutter.jpg,left,old,116,,,,,,,,,,,,,,,
,,,,,,,,14,2021-05-15_13h31.17.471,premceCat2_ses-02_part-02_label-phase2,2020.2.10,Win32,60,,,,,left,1.43998,4,0.401225,,,,,,,,,,right,0.730515,0,0,0,0,1,,,,,,,,
,,,,,,,,14,2021-05-15_13h31.17.471,premceCat2_ses-02_part-02_label-phase2,2020.2.10,Win32,60,,,,,,,,,0,73,73,56,1,stimuli/objects/cookingpot.jpg,left,old,57,,,,,,,,,,,,,,,
,,,,,,,,14,2021-05-15_13h31.17.471,premceCat2_ses-02_part-02_label-phase2,2020.2.10,Win32,60,,,,,left,1.96994,3,1.111995,,,,,,,,,,right,3.750165,0,0,0,0,1,,,,,,,,
,,,,,,,,14,2021-05-15_13h31.17.471,premceCat2_ses-02_part-02_label-phase2,2020.2.10,Win32,60,,,,,,,,,0,74,74,34,1,stimuli/objects/treadmill.jpg,left,old,35,,,,,,,,,,,,,,,
,,,,,,,,14,2021-05-15_13h31.17.471,premceCat2_ses-02_part-02_label-phase2,2020.2.10,Win32,60,,,,,left,2.62763,3,0.39381,,,,,,,,,,right,1.655535,0,0,0,0,1,,,,,,,,
,,,,,,,,14,2021-05-15_13h31.17.471,premceCat2_ses-02_part-02_label-phase2,2020.2.10,Win32,60,,,,,,,,,0,75,75,13,1,stimuli/objects/bastingbrush.jpg,right,new,14,,,,,,,,,,,,,,,
,,,,,,,,14,2021-05-15_13h31.17.471,premceCat2_ses-02_part-02_label-phase2,2020.2.10,Win32,60,,,,,right,3.1159,2,0.450695,0,76,76,50,1,stimuli/objects/chisel02b.jpg,right,new,51,,,,,,,,,,,,,,,
,,,,,,,,14,2021-05-15_13h31.17.471,premceCat2_ses-02_part-02_label-phase2,2020.2.10,Win32,60,,,,,right,3.56586,3,0.309285,0,77,77,121,1,stimuli/objects/ceilingspeaker.jpg,right,new,122,,,,,,,,,,,,,,,
,,,,,,,,14,2021-05-15_13h31.17.471,premceCat2_ses-02_part-02_label-phase2,2020.2.10,Win32,60,,,,,left,1.44082,3,0.40044,,,,,,,,,,left,0.93106,0,0,0,0,1,,,,,,,,
,,,,,,,,14,2021-05-15_13h31.17.471,premceCat2_ses-02_part-02_label-phase2,2020.2.10,Win32,60,,,,,,,,,0,78,78,28,1,stimuli/objects/baseballbat.jpg,left,old,29,,,,,,,,,,,,,,,
,,,,,,,,14,2021-05-15_13h31.17.471,premceCat2_ses-02_part-02_label-phase2,2020.2.10,Win32,60,,,,,right,3.233615,1,0.465975,0,79,79,113,1,stimuli/objects/powercable.jpg,right,new,114,,,,,,,,,,,,,,,
,,,,,,,,14,2021-05-15_13h31.17.471,premceCat2_ses-02_part-02_label-phase2,2020.2.10,Win32,60,,,,,left,1.219565,4,0.44804,,,,,,,,,,right,1.890435,0,0,0,0,1,,,,,,,,
,,,,,,,,14,2021-05-15_13h31.17.471,premceCat2_ses-02_part-02_label-phase2,2020.2.10,Win32,60,,,,,,,,,0,80,80,14,1,stimuli/objects/aircompressor.jpg,left,old,15,,,,,,,,,,,,,,,
,,,,,,,,14,2021-05-15_13h31.17.471,premceCat2_ses-02_part-02_label-phase2,2020.2.10,Win32,60,,,,,left,1.030385,4,0.53606,,,,,,,,,,right,1.303525,0,0,0,0,1,,,,,,,,
,,,,,,,,14,2021-05-15_13h31.17.471,premceCat2_ses-02_part-02_label-phase2,2020.2.10,Win32,60,,,,,,,,,0,81,81,45,1,stimuli/objects/measuringcup01.jpg,left,old,46,,,,,,,,,,,,,,,
,,,,,,,,14,2021-05-15_13h31.17.471,premceCat2_ses-02_part-02_label-phase2,2020.2.10,Win32,60,,,,,right,1.889745,2,0.2923,0,82,82,68,1,stimuli/objects/leafblower01.jpg,right,new,69,,,,,,,,,,,,,,,
,,,,,,,,14,2021-05-15_13h31.17.471,premceCat2_ses-02_part-02_label-phase2,2020.2.10,Win32,60,,,,,left,0.93522,4,0.293895,,,,,,,,,,left,2.896355,0,0,0,0,1,,,,,,,,
,,,,,,,,14,2021-05-15_13h31.17.471,premceCat2_ses-02_part-02_label-phase2,2020.2.10,Win32,60,,,,,,,,,0,83,83,6,1,stimuli/objects/saladspinner.jpg,left,old,7,,,,,,,,,,,,,,,
,,,,,,,,14,2021-05-15_13h31.17.471,premceCat2_ses-02_part-02_label-phase2,2020.2.10,Win32,60,,,,,right,1.54768,3,0.34406,0,84,84,73,1,stimuli/objects/clock01a.jpg,right,new,74,,,,,,,,,,,,,,,
,,,,,,,,14,2021-05-15_13h31.17.471,premceCat2_ses-02_part-02_label-phase2,2020.2.10,Win32,60,,,,,right,1.717565,2,0.4418,0,85,85,75,1,stimuli/objects/stepladder.jpg,right,new,76,,,,,,,,,,,,,,,
,,,,,,,,14,2021-05-15_13h31.17.471,premceCat2_ses-02_part-02_label-phase2,2020.2.10,Win32,60,,,,,right,2.51951,3,0.30208,0,86,86,110,1,stimuli/objects/lock03a.jpg,right,new,111,,,,,,,,,,,,,,,
,,,,,,,,14,2021-05-15_13h31.17.471,premceCat2_ses-02_part-02_label-phase2,2020.2.10,Win32,60,,,,,left,1.9181,2,0.32516,,,,,,,,,,right,0.58697,0,0,0,0,1,,,,,,,,
,,,,,,,,14,2021-05-15_13h31.17.471,premceCat2_ses-02_part-02_label-phase2,2020.2.10,Win32,60,,,,,,,,,0,87,87,91,1,stimuli/objects/snowblower.jpg,left,old,92,,,,,,,,,,,,,,,
,,,,,,,,14,2021-05-15_13h31.17.471,premceCat2_ses-02_part-02_label-phase2,2020.2.10,Win32,60,,,,,left,2.210305,2,1.02495,,,,,,,,,,right,1.509085,0,0,0,0,1,,,,,,,,
,,,,,,,,14,2021-05-15_13h31.17.471,premceCat2_ses-02_part-02_label-phase2,2020.2.10,Win32,60,,,,,,,,,0,88,88,40,1,stimuli/objects/sledgehammer.jpg,left,old,41,,,,,,,,,,,,,,,
,,,,,,,,14,2021-05-15_13h31.17.471,premceCat2_ses-02_part-02_label-phase2,2020.2.10,Win32,60,,,,,right,1.339675,3,0.344455,0,89,89,81,1,stimuli/objects/avcable.jpg,right,new,82,,,,,,,,,,,,,,,
,,,,,,,,14,2021-05-15_13h31.17.471,premceCat2_ses-02_part-02_label-phase2,2020.2.10,Win32,60,,,,,left,1.507405,3,0.37217,,,,,,,,,,right,1.88269,0,0,0,0,1,,,,,,,,
,,,,,,,,14,2021-05-15_13h31.17.471,premceCat2_ses-02_part-02_label-phase2,2020.2.10,Win32,60,,,,,,,,,0,90,90,99,1,stimuli/objects/gardenshears01a.jpg,left,old,100,,,,,,,,,,,,,,,
,,,,,,,,14,2021-05-15_13h31.17.471,premceCat2_ses-02_part-02_label-phase2,2020.2.10,Win32,60,,,,,left,1.13516,4,0.25965,,,,,,,,,,right,1.80313,0,0,0,0,1,,,,,,,,
,,,,,,,,14,2021-05-15_13h31.17.471,premceCat2_ses-02_part-02_label-phase2,2020.2.10,Win32,60,,,,,,,,,0,91,91,53,1,stimuli/objects/binoculars01b.jpg,right,new,54,,,,,,,,,,,,,,,
,,,,,,,,14,2021-05-15_13h31.17.471,premceCat2_ses-02_part-02_label-phase2,2020.2.10,Win32,60,,,,,left,1.31824,4,0.335615,,,,,,,,,,right,1.127875,0,0,0,0,1,,,,,,,,
,,,,,,,,14,2021-05-15_13h31.17.471,premceCat2_ses-02_part-02_label-phase2,2020.2.10,Win32,60,,,,,,,,,0,92,92,89,1,stimuli/objects/ducttape.jpg,right,new,90,,,,,,,,,,,,,,,
,,,,,,,,14,2021-05-15_13h31.17.471,premceCat2_ses-02_part-02_label-phase2,2020.2.10,Win32,60,,,,,left,1.25109,4,0.82943,,,,,,,,,,left,0.58533,0,0,0,0,1,,,,,,,,
,,,,,,,,14,2021-05-15_13h31.17.471,premceCat2_ses-02_part-02_label-phase2,2020.2.10,Win32,60,,,,,,,,,0,93,93,15,1,stimuli/objects/spicerack.jpg,left,old,16,,,,,,,,,,,,,,,
,,,,,,,,14,2021-05-15_13h31.17.471,premceCat2_ses-02_part-02_label-phase2,2020.2.10,Win32,60,,,,,right,1.58687,3,0.924415,0,94,94,93,1,stimuli/objects/icepack.jpg,right,new,94,,,,,,,,,,,,,,,
,,,,,,,,14,2021-05-15_13h31.17.471,premceCat2_ses-02_part-02_label-phase2,2020.2.10,Win32,60,,,,,left,1.43582,4,0.422195,,,,,,,,,,right,0.62632,0,0,0,0,1,,,,,,,,
,,,,,,,,14,2021-05-15_13h31.17.471,premceCat2_ses-02_part-02_label-phase2,2020.2.10,Win32,60,,,,,,,,,0,95,95,29,1,stimuli/objects/djmixer02.jpg,left,old,30,,,,,,,,,,,,,,,
,,,,,,,,14,2021-05-15_13h31.17.471,premceCat2_ses-02_part-02_label-phase2,2020.2.10,Win32,60,,,,,left,1.457955,2,0.37697,,,,,,,,,,left,0.681405,0,0,0,0,1,,,,,,,,
,,,,,,,,14,2021-05-15_13h31.17.471,premceCat2_ses-02_part-02_label-phase2,2020.2.10,Win32,60,,,,,,,,,0,96,96,76,1,stimuli/objects/megaphone.jpg,right,new,77,,,,,,,,,,,,,,,
,,,,,,,,14,2021-05-15_13h31.17.471,premceCat2_ses-02_part-02_label-phase2,2020.2.10,Win32,60,,,,,right,3.059415,2,0.581725,0,97,97,90,1,stimuli/objects/carlighter02.jpg,right,new,91,,,,,,,,,,,,,,,
,,,,,,,,14,2021-05-15_13h31.17.471,premceCat2_ses-02_part-02_label-phase2,2020.2.10,Win32,60,,,,,right,1.53686,3,0.346935,0,98,98,100,1,stimuli/objects/remotecontrol04.jpg,right,new,101,,,,,,,,,,,,,,,
,,,,,,,,14,2021-05-15_13h31.17.471,premceCat2_ses-02_part-02_label-phase2,2020.2.10,Win32,60,,,,,right,1.47099,3,0.29719,0,99,99,8,1,stimuli/objects/basketballhoop01.jpg,right,new,9,,,,,,,,,,,,,,,
,,,,,,,,14,2021-05-15_13h31.17.471,premceCat2_ses-02_part-02_label-phase2,2020.2.10,Win32,60,,,,,right,1.77871,3,0.29605,0,100,100,57,1,stimuli/objects/audiocablesplitter.jpg,right,new,58,,,,,,,,,,,,,,,
,,,,,,,,14,2021-05-15_13h31.17.471,premceCat2_ses-02_part-02_label-phase2,2020.2.10,Win32,60,,,,,right,1.442725,4,0.318655,0,101,101,126,1,stimuli/objects/tableknife02.jpg,right,new,127,,,,,,,,,,,,,,,
,,,,,,,,14,2021-05-15_13h31.17.471,premceCat2_ses-02_part-02_label-phase2,2020.2.10,Win32,60,,,,,right,1.44688,4,0.264485,0,102,102,80,1,stimuli/objects/snowman.jpg,right,new,81,,,,,,,,,,,,,,,
,,,,,,,,14,2021-05-15_13h31.17.471,premceCat2_ses-02_part-02_label-phase2,2020.2.10,Win32,60,,,,,right,1.684945,3,0.278465,0,103,103,111,1,stimuli/objects/speaker04.jpg,right,new,112,,,,,,,,,,,,,,,
,,,,,,,,14,2021-05-15_13h31.17.471,premceCat2_ses-02_part-02_label-phase2,2020.2.10,Win32,60,,,,,left,1.521025,3,0.42758,,,,,,,,,,right,0.9719,0,0,0,0,1,,,,,,,,
,,,,,,,,14,2021-05-15_13h31.17.471,premceCat2_ses-02_part-02_label-phase2,2020.2.10,Win32,60,,,,,,,,,0,104,104,33,1,stimuli/objects/microwave.jpg,right,new,34,,,,,,,,,,,,,,,
,,,,,,,,14,2021-05-15_13h31.17.471,premceCat2_ses-02_part-02_label-phase2,2020.2.10,Win32,60,,,,,left,1.255445,4,0.33617,,,,,,,,,,left,0.482195,0,0,0,0,1,,,,,,,,
,,,,,,,,14,2021-05-15_13h31.17.471,premceCat2_ses-02_part-02_label-phase2,2020.2.10,Win32,60,,,,,,,,,0,105,105,103,1,stimuli/objects/oven.jpg,left,old,104,,,,,,,,,,,,,,,
,,,,,,,,14,2021-05-15_13h31.17.471,premceCat2_ses-02_part-02_label-phase2,2020.2.10,Win32,60,,,,,right,1.3115,4,0.53958,0,106,106,26,1,stimuli/objects/boogieboard.jpg,right,new,27,,,,,,,,,,,,,,,
,,,,,,,,14,2021-05-15_13h31.17.471,premceCat2_ses-02_part-02_label-phase2,2020.2.10,Win32,60,,,,,left,6.271095,2,2.254755,,,,,,,,,,right,0.501665,0,0,0,0,1,,,,,,,,
,,,,,,,,14,2021-05-15_13h31.17.471,premceCat2_ses-02_part-02_label-phase2,2020.2.10,Win32,60,,,,,,,,,0,107,107,52,1,stimuli/objects/cookiecutter.jpg,left,old,53,,,,,,,,,,,,,,,
,,,,,,,,14,2021-05-15_13h31.17.471,premceCat2_ses-02_part-02_label-phase2,2020.2.10,Win32,60,,,,,right,3.50602,2,0.96143,0,108,108,46,1,stimuli/objects/walkman.jpg,right,new,47,,,,,,,,,,,,,,,
,,,,,,,,14,2021-05-15_13h31.17.471,premceCat2_ses-02_part-02_label-phase2,2020.2.10,Win32,60,,,,,right,0.923735,4,0.32679,0,109,109,139,1,stimuli/objects/frisbee.jpg,right,new,140,,,,,,,,,,,,,,,
,,,,,,,,14,2021-05-15_13h31.17.471,premceCat2_ses-02_part-02_label-phase2,2020.2.10,Win32,60,,,,,left,1.317955,3,0.30018,,,,,,,,,,right,1.113045,0,0,0,0,1,,,,,,,,
,,,,,,,,14,2021-05-15_13h31.17.471,premceCat2_ses-02_part-02_label-phase2,2020.2.10,Win32,60,,,,,,,,,0,110,110,77,1,stimuli/objects/photocopier.jpg,left,old,78,,,,,,,,,,,,,,,
,,,,,,,,14,2021-05-15_13h31.17.471,premceCat2_ses-02_part-02_label-phase2,2020.2.10,Win32,60,,,,,left,1.076265,4,0.44088,,,,,,,,,,right,0.53296,0,0,0,0,1,,,,,,,,
,,,,,,,,14,2021-05-15_13h31.17.471,premceCat2_ses-02_part-02_label-phase2,2020.2.10,Win32,60,,,,,,,,,0,111,111,142,1,stimuli/objects/funnel.jpg,left,old,143,,,,,,,,,,,,,,,
,,,,,,,,14,2021-05-15_13h31.17.471,premceCat2_ses-02_part-02_label-phase2,2020.2.10,Win32,60,,,,,left,1.3449,4,0.927835,,,,,,,,,,left,0.5789,0,0,0,0,1,,,,,,,,
,,,,,,,,14,2021-05-15_13h31.17.471,premceCat2_ses-02_part-02_label-phase2,2020.2.10,Win32,60,,,,,,,,,0,112,112,127,1,stimuli/objects/hockeygoaliepad.jpg,left,old,128,,,,,,,,,,,,,,,
,,,,,,,,14,2021-05-15_13h31.17.471,premceCat2_ses-02_part-02_label-phase2,2020.2.10,Win32,60,,,,,right,1.13727,3,0.29661,0,113,113,24,1,stimuli/objects/skateboard.jpg,right,new,25,,,,,,,,,,,,,,,
,,,,,,,,14,2021-05-15_13h31.17.471,premceCat2_ses-02_part-02_label-phase2,2020.2.10,Win32,60,,,,,left,0.91525,4,0.27891,,,,,,,,,,left,0.75117,0,0,0,0,1,,,,,,,,
,,,,,,,,14,2021-05-15_13h31.17.471,premceCat2_ses-02_part-02_label-phase2,2020.2.10,Win32,60,,,,,,,,,0,114,114,118,1,stimuli/objects/toyhardhat.jpg,left,old,119,,,,,,,,,,,,,,,
,,,,,,,,14,2021-05-15_13h31.17.471,premceCat2_ses-02_part-02_label-phase2,2020.2.10,Win32,60,,,,,left,1.31922,4,0.301095,,,,,,,,,,right,0.32997,0,0,0,0,1,,,,,,,,
,,,,,,,,14,2021-05-15_13h31.17.471,premceCat2_ses-02_part-02_label-phase2,2020.2.10,Win32,60,,,,,,,,,0,115,115,36,1,stimuli/objects/antenna.jpg,left,old,37,,,,,,,,,,,,,,,
,,,,,,,,14,2021-05-15_13h31.17.471,premceCat2_ses-02_part-02_label-phase2,2020.2.10,Win32,60,,,,,right,1.685615,3,0.57965,0,116,116,66,1,stimuli/objects/nailgun.jpg,right,new,67,,,,,,,,,,,,,,,
,,,,,,,,14,2021-05-15_13h31.17.471,premceCat2_ses-02_part-02_label-phase2,2020.2.10,Win32,60,,,,,left,2.506325,3,0.31495,,,,,,,,,,right,0.99159,0,0,0,0,1,,,,,,,,
,,,,,,,,14,2021-05-15_13h31.17.471,premceCat2_ses-02_part-02_label-phase2,2020.2.10,Win32,60,,,,,,,,,0,117,117,1,1,stimuli/objects/nintendods.jpg,left,old,2,,,,,,,,,,,,,,,
,,,,,,,,14,2021-05-15_13h31.17.471,premceCat2_ses-02_part-02_label-phase2,2020.2.10,Win32,60,,,,,left,2.117165,2,0.316195,,,,,,,,,,left,1.43647,0,0,0,0,1,,,,,,,,
,,,,,,,,14,2021-05-15_13h31.17.471,premceCat2_ses-02_part-02_label-phase2,2020.2.10,Win32,60,,,,,,,,,0,118,118,84,1,stimuli/objects/catchermask.jpg,left,old,85,,,,,,,,,,,,,,,
,,,,,,,,14,2021-05-15_13h31.17.471,premceCat2_ses-02_part-02_label-phase2,2020.2.10,Win32,60,,,,,right,1.2552,3,0.25342,0,119,119,71,1,stimuli/objects/faxmachine.jpg,right,new,72,,,,,,,,,,,,,,,
,,,,,,,,14,2021-05-15_13h31.17.471,premceCat2_ses-02_part-02_label-phase2,2020.2.10,Win32,60,,,,,right,1.369635,3,0.29256,0,120,120,42,1,stimuli/objects/snowshoe.jpg,right,new,43,,,,,,,,,,,,,,,
,,,,,,,,14,2021-05-15_13h31.17.471,premceCat2_ses-02_part-02_label-phase2,2020.2.10,Win32,60,,,,,left,1.245605,4,0.30615,,,,,,,,,,right,0.707585,0,0,0,0,1,,,,,,,,
,,,,,,,,14,2021-05-15_13h31.17.471,premceCat2_ses-02_part-02_label-phase2,2020.2.10,Win32,60,,,,,,,,,0,121,121,2,1,stimuli/objects/dvdcase01.jpg,left,old,3,,,,,,,,,,,,,,,
,,,,,,,,14,2021-05-15_13h31.17.471,premceCat2_ses-02_part-02_label-phase2,2020.2.10,Win32,60,,,,,left,1.45255,4,0.726555,,,,,,,,,,right,1.42455,0,0,0,0,1,,,,,,,,
,,,,,,,,14,2021-05-15_13h31.17.471,premceCat2_ses-02_part-02_label-phase2,2020.2.10,Win32,60,,,,,,,,,0,122,122,132,1,stimuli/objects/expansioncard.jpg,left,old,133,,,,,,,,,,,,,,,
,,,,,,,,14,2021-05-15_13h31.17.471,premceCat2_ses-02_part-02_label-phase2,2020.2.10,Win32,60,,,,,left,1.13879,4,0.28736,,,,,,,,,,right,2.761675,0,0,0,0,1,,,,,,,,
,,,,,,,,14,2021-05-15_13h31.17.471,premceCat2_ses-02_part-02_label-phase2,2020.2.10,Win32,60,,,,,,,,,0,123,123,129,1,stimuli/objects/gasburner.jpg,left,old,130,,,,,,,,,,,,,,,
,,,,,,,,14,2021-05-15_13h31.17.471,premceCat2_ses-02_part-02_label-phase2,2020.2.10,Win32,60,,,,,left,0.83933,4,0.470175,,,,,,,,,,left,0.62321,0,0,0,0,1,,,,,,,,
,,,,,,,,14,2021-05-15_13h31.17.471,premceCat2_ses-02_part-02_label-phase2,2020.2.10,Win32,60,,,,,,,,,0,124,124,120,1,stimuli/objects/martiniglass01b.jpg,left,old,121,,,,,,,,,,,,,,,
,,,,,,,,14,2021-05-15_13h31.17.471,premceCat2_ses-02_part-02_label-phase2,2020.2.10,Win32,60,,,,,right,1.654335,3,0.44729,0,125,125,54,1,stimuli/objects/pda.jpg,right,new,55,,,,,,,,,,,,,,,
,,,,,,,,14,2021-05-15_13h31.17.471,premceCat2_ses-02_part-02_label-phase2,2020.2.10,Win32,60,,,,,right,1.30171,4,0.36061,0,126,126,131,1,stimuli/objects/spotlight.jpg,right,new,132,,,,,,,,,,,,,,,
,,,,,,,,14,2021-05-15_13h31.17.471,premceCat2_ses-02_part-02_label-phase2,2020.2.10,Win32,60,,,,,left,1.6148,3,1.009185,,,,,,,,,,left,0.475085,0,0,0,0,1,,,,,,,,
,,,,,,,,14,2021-05-15_13h31.17.471,premceCat2_ses-02_part-02_label-phase2,2020.2.10,Win32,60,,,,,,,,,0,127,127,137,1,stimuli/objects/iceskate.jpg,left,old,138,,,,,,,,,,,,,,,
,,,,,,,,14,2021-05-15_13h31.17.471,premceCat2_ses-02_part-02_label-phase2,2020.2.10,Win32,60,,,,,right,1.028975,3,0.291645,0,128,128,119,1,stimuli/objects/tongs01b.jpg,right,new,120,,,,,,,,,,,,,,,
,,,,,,,,14,2021-05-15_13h31.17.471,premceCat2_ses-02_part-02_label-phase2,2020.2.10,Win32,60,,,,,left,0.986515,4,0.324055,,,,,,,,,,left,0.596065,0,0,0,0,1,,,,,,,,
,,,,,,,,14,2021-05-15_13h31.17.471,premceCat2_ses-02_part-02_label-phase2,2020.2.10,Win32,60,,,,,,,,,0,129,129,48,1,stimuli/objects/woodenspoon.jpg,left,old,49,,,,,,,,,,,,,,,
,,,,,,,,14,2021-05-15_13h31.17.471,premceCat2_ses-02_part-02_label-phase2,2020.2.10,Win32,60,,,,,left,1.53806,4,0.34234,,,,,,,,,,right,0.57492,0,0,0,0,1,,,,,,,,
,,,,,,,,14,2021-05-15_13h31.17.471,premceCat2_ses-02_part-02_label-phase2,2020.2.10,Win32,60,,,,,,,,,0,130,130,123,1,stimuli/objects/cowbell.jpg,left,old,124,,,,,,,,,,,,,,,
,,,,,,,,14,2021-05-15_13h31.17.471,premceCat2_ses-02_part-02_label-phase2,2020.2.10,Win32,60,,,,,left,2.437315,2,0.40299,,,,,,,,,,right,1.954915,0,0,0,0,1,,,,,,,,
,,,,,,,,14,2021-05-15_13h31.17.471,premceCat2_ses-02_part-02_label-phase2,2020.2.10,Win32,60,,,,,,,,,0,131,131,106,1,stimuli/objects/minifridge.jpg,right,new,107,,,,,,,,,,,,,,,
,,,,,,,,14,2021-05-15_13h31.17.471,premceCat2_ses-02_part-02_label-phase2,2020.2.10,Win32,60,,,,,left,1.12283,4,0.29189,,,,,,,,,,left,0.62989,0,0,0,0,1,,,,,,,,
,,,,,,,,14,2021-05-15_13h31.17.471,premceCat2_ses-02_part-02_label-phase2,2020.2.10,Win32,60,,,,,,,,,0,132,132,102,1,stimuli/objects/hockeygoalieglove.jpg,left,old,103,,,,,,,,,,,,,,,
,,,,,,,,14,2021-05-15_13h31.17.471,premceCat2_ses-02_part-02_label-phase2,2020.2.10,Win32,60,,,,,left,1.265185,4,0.48891,,,,,,,,,,right,0.80879,0,0,0,0,1,,,,,,,,
,,,,,,,,14,2021-05-15_13h31.17.471,premceCat2_ses-02_part-02_label-phase2,2020.2.10,Win32,60,,,,,,,,,0,133,133,105,1,stimuli/objects/fanblades.jpg,left,old,106,,,,,,,,,,,,,,,
,,,,,,,,14,2021-05-15_13h31.17.471,premceCat2_ses-02_part-02_label-phase2,2020.2.10,Win32,60,,,,,left,1.37303,3,1.335995,,,,,,,,,,right,1.80935,0,0,0,0,1,,,,,,,,
,,,,,,,,14,2021-05-15_13h31.17.471,premceCat2_ses-02_part-02_label-phase2,2020.2.10,Win32,60,,,,,,,,,0,134,134,62,1,stimuli/objects/pastaspoon.jpg,left,old,63,,,,,,,,,,,,,,,
,,,,,,,,14,2021-05-15_13h31.17.471,premceCat2_ses-02_part-02_label-phase2,2020.2.10,Win32,60,,,,,left,1.769895,4,0.46409,,,,,,,,,,right,0.97817,0,0,0,0,1,,,,,,,,
,,,,,,,,14,2021-05-15_13h31.17.471,premceCat2_ses-02_part-02_label-phase2,2020.2.10,Win32,60,,,,,,,,,0,135,135,122,1,stimuli/objects/atm.jpg,left,old,123,,,,,,,,,,,,,,,
,,,,,,,,14,2021-05-15_13h31.17.471,premceCat2_ses-02_part-02_label-phase2,2020.2.10,Win32,60,,,,,left,1.570945,4,0.34622,,,,,,,,,,right,0.688925,0,0,0,0,1,,,,,,,,
,,,,,,,,14,2021-05-15_13h31.17.471,premceCat2_ses-02_part-02_label-phase2,2020.2.10,Win32,60,,,,,,,,,0,136,136,79,1,stimuli/objects/wire.jpg,left,old,80,,,,,,,,,,,,,,,
,,,,,,,,14,2021-05-15_13h31.17.471,premceCat2_ses-02_part-02_label-phase2,2020.2.10,Win32,60,,,,,right,1.134895,3,0.73338,0,137,137,85,1,stimuli/objects/golfball.jpg,right,new,86,,,,,,,,,,,,,,,
,,,,,,,,14,2021-05-15_13h31.17.471,premceCat2_ses-02_part-02_label-phase2,2020.2.10,Win32,60,,,,,right,1.533655,3,1.11502,0,138,138,51,1,stimuli/objects/webcam.jpg,right,new,52,,,,,,,,,,,,,,,
,,,,,,,,14,2021-05-15_13h31.17.471,premceCat2_ses-02_part-02_label-phase2,2020.2.10,Win32,60,,,,,right,1.790305,3,1.36219,0,139,139,23,1,stimuli/objects/football.jpg,right,new,24,,,,,,,,,,,,,,,
,,,,,,,,14,2021-05-15_13h31.17.471,premceCat2_ses-02_part-02_label-phase2,2020.2.10,Win32,60,,,,,right,1.078515,4,0.274085,0,140,140,38,1,stimuli/objects/soundmixer.jpg,right,new,39,,,,,,,,,,,,,,,
,,,,,,,,14,2021-05-15_13h31.17.471,premceCat2_ses-02_part-02_label-phase2,2020.2.10,Win32,60,,,,,right,1.28989,3,0.2632,0,141,141,72,1,stimuli/objects/cclamp.jpg,right,new,73,,,,,,,,,,,,,,,
,,,,,,,,14,2021-05-15_13h31.17.471,premceCat2_ses-02_part-02_label-phase2,2020.2.10,Win32,60,,,,,left,0.989545,4,0.249035,,,,,,,,,,right,0.66314,0,0,0,0,1,,,,,,,,
,,,,,,,,14,2021-05-15_13h31.17.471,premceCat2_ses-02_part-02_label-phase2,2020.2.10,Win32,60,,,,,,,,,0,142,142,37,1,stimuli/objects/setsquare.jpg,left,old,38,,,,,,,,,,,,,,,
,,,,,,,,14,2021-05-15_13h31.17.471,premceCat2_ses-02_part-02_label-phase2,2020.2.10,Win32,60,,,,,,,,,,,,,,,,,,,,,,,,,space,38.203715,0,0,0,0,1,condition_files/ImagesforRecog3_1.csv
,,,,,,,,14,2021-05-15_13h31.17.471,premceCat2_ses-02_part-02_label-phase2,2020.2.10,Win32,60,,,,,left,2.1145,2,0.4441,,,,,,,,,,left,0.799855,0,0,0,0,1,,,,,,,,
,,,,,,,,14,2021-05-15_13h31.17.471,premceCat2_ses-02_part-02_label-phase2,2020.2.10,Win32,60,,,,,,,,,0,0,0,21,1,stimuli/objects/drill01b.jpg,left,old,165,,,,,,,,,,,,,,,
,,,,,,,,14,2021-05-15_13h31.17.471,premceCat2_ses-02_part-02_label-phase2,2020.2.10,Win32,60,,,,,left,1.001525,4,0.31675,,,,,,,,,,left,1.354025,0,0,0,0,1,,,,,,,,
,,,,,,,,14,2021-05-15_13h31.17.471,premceCat2_ses-02_part-02_label-phase2,2020.2.10,Win32,60,,,,,,,,,0,1,1,117,1,stimuli/objects/poolnet.jpg,left,old,261,,,,,,,,,,,,,,,
,,,,,,,,14,2021-05-15_13h31.17.471,premceCat2_ses-02_part-02_label-phase2,2020.2.10,Win32,60,,,,,right,1.133615,3,0.411435,0,2,2,66,1,stimuli/objects/heatpump.jpg,right,new,210,,,,,,,,,,,,,,,
,,,,,,,,14,2021-05-15_13h31.17.471,premceCat2_ses-02_part-02_label-phase2,2020.2.10,Win32,60,,,,,left,0.99827,4,0.348125,,,,,,,,,,right,0.409875,0,0,0,0,1,,,,,,,,
,,,,,,,,14,2021-05-15_13h31.17.471,premceCat2_ses-02_part-02_label-phase2,2020.2.10,Win32,60,,,,,,,,,0,3,3,85,1,stimuli/objects/filmnegative.jpg,left,old,229,,,,,,,,,,,,,,,
,,,,,,,,14,2021-05-15_13h31.17.471,premceCat2_ses-02_part-02_label-phase2,2020.2.10,Win32,60,,,,,right,1.01007,3,0.264985,0,4,4,12,1,stimuli/objects/fanheater.jpg,right,new,156,,,,,,,,,,,,,,,
,,,,,,,,14,2021-05-15_13h31.17.471,premceCat2_ses-02_part-02_label-phase2,2020.2.10,Win32,60,,,,,right,1.544985,2,0.49479,0,5,5,46,1,stimuli/objects/waterbottleholder.jpg,right,new,190,,,,,,,,,,,,,,,
,,,,,,,,14,2021-05-15_13h31.17.471,premceCat2_ses-02_part-02_label-phase2,2020.2.10,Win32,60,,,,,right,1.272565,3,0.321475,0,6,6,48,1,stimuli/objects/eggslicer.jpg,right,new,192,,,,,,,,,,,,,,,
,,,,,,,,14,2021-05-15_13h31.17.471,premceCat2_ses-02_part-02_label-phase2,2020.2.10,Win32,60,,,,,right,1.418965,4,0.28649,0,7,7,121,1,stimuli/objects/parachute.jpg,right,new,265,,,,,,,,,,,,,,,
,,,,,,,,14,2021-05-15_13h31.17.471,premceCat2_ses-02_part-02_label-phase2,2020.2.10,Win32,60,,,,,left,1.24677,4,1.03685,,,,,,,,,,left,1.202815,0,0,0,0,1,,,,,,,,
,,,,,,,,14,2021-05-15_13h31.17.471,premceCat2_ses-02_part-02_label-phase2,2020.2.10,Win32,60,,,,,,,,,0,8,8,38,1,stimuli/objects/breadknife.jpg,left,old,182,,,,,,,,,,,,,,,
,,,,,,,,14,2021-05-15_13h31.17.471,premceCat2_ses-02_part-02_label-phase2,2020.2.10,Win32,60,,,,,left,1.152045,4,0.500755,,,,,,,,,,right,0.884135,0,0,0,0,1,,,,,,,,
,,,,,,,,14,2021-05-15_13h31.17.471,premceCat2_ses-02_part-02_label-phase2,2020.2.10,Win32,60,,,,,,,,,0,9,9,100,1,stimuli/objects/caulking.jpg,left,old,244,,,,,,,,,,,,,,,
,,,,,,,,14,2021-05-15_13h31.17.471,premceCat2_ses-02_part-02_label-phase2,2020.2.10,Win32,60,,,,,right,1.74355,1,0.32293,0,10,10,34,1,stimuli/objects/kneepad01c.jpg,right,new,178,,,,,,,,,,,,,,,
,,,,,,,,14,2021-05-15_13h31.17.471,premceCat2_ses-02_part-02_label-phase2,2020.2.10,Win32,60,,,,,right,0.927615,3,0.247675,0,11,11,83,1,stimuli/objects/icecubetray01a.jpg,right,new,227,,,,,,,,,,,,,,,
,,,,,,,,14,2021-05-15_13h31.17.471,premceCat2_ses-02_part-02_label-phase2,2020.2.10,Win32,60,,,,,left,1.243205,4,0.283965,,,,,,,,,,right,0.49696,0,0,0,0,1,,,,,,,,
,,,,,,,,14,2021-05-15_13h31.17.471,premceCat2_ses-02_part-02_label-phase2,2020.2.10,Win32,60,,,,,,,,,0,12,12,61,1,stimuli/objects/jumpercables.jpg,left,old,205,,,,,,,,,,,,,,,
,,,,,,,,14,2021-05-15_13h31.17.471,premceCat2_ses-02_part-02_label-phase2,2020.2.10,Win32,60,,,,,right,1.266665,3,0.244495,0,13,13,135,1,stimuli/objects/mortarandpestle.jpg,right,new,279,,,,,,,,,,,,,,,
,,,,,,,,14,2021-05-15_13h31.17.471,premceCat2_ses-02_part-02_label-phase2,2020.2.10,Win32,60,,,,,right,1.779995,1,0.494565,0,14,14,113,1,stimuli/objects/hedgeshears.jpg,left,old,257,,,,,,,,,,,,,,,
,,,,,,,,14,2021-05-15_13h31.17.471,premceCat2_ses-02_part-02_label-phase2,2020.2.10,Win32,60,,,,,left,0.925675,4,0.61051,,,,,,,,,,right,1.57655,0,0,0,0,1,,,,,,,,
,,,,,,,,14,2021-05-15_13h31.17.471,premceCat2_ses-02_part-02_label-phase2,2020.2.10,Win32,60,,,,,,,,,0,15,15,33,1,stimuli/objects/ipod.jpg,left,old,177,,,,,,,,,,,,,,,
,,,,,,,,14,2021-05-15_13h31.17.471,premceCat2_ses-02_part-02_label-phase2,2020.2.10,Win32,60,,,,,right,2.416615,2,0.294995,0,16,16,126,1,stimuli/objects/reflector.jpg,left,old,270,,,,,,,,,,,,,,,
,,,,,,,,14,2021-05-15_13h31.17.471,premceCat2_ses-02_part-02_label-phase2,2020.2.10,Win32,60,,,,,left,0.89271,4,0.34603,,,,,,,,,,left,0.42065,0,0,0,0,1,,,,,,,,
,,,,,,,,14,2021-05-15_13h31.17.471,premceCat2_ses-02_part-02_label-phase2,2020.2.10,Win32,60,,,,,,,,,0,17,17,25,1,stimuli/objects/shotglass.jpg,left,old,169,,,,,,,,,,,,,,,
,,,,,,,,14,2021-05-15_13h31.17.471,premceCat2_ses-02_part-02_label-phase2,2020.2.10,Win32,60,,,,,right,1.708185,2,0.937715,0,18,18,3,1,stimuli/objects/boxingglove01.jpg,right,new,147,,,,,,,,,,,,,,,
,,,,,,,,14,2021-05-15_13h31.17.471,premceCat2_ses-02_part-02_label-phase2,2020.2.10,Win32,60,,,,,right,1.16888,3,0.25952,0,19,19,104,1,stimuli/objects/alarmclock01.jpg,left,old,248,,,,,,,,,,,,,,,
,,,,,,,,14,2021-05-15_13h31.17.471,premceCat2_ses-02_part-02_label-phase2,2020.2.10,Win32,60,,,,,left,1.003135,4,0.328565,,,,,,,,,,right,1.140775,0,0,0,0,1,,,,,,,,
,,,,,,,,14,2021-05-15_13h31.17.471,premceCat2_ses-02_part-02_label-phase2,2020.2.10,Win32,60,,,,,,,,,0,20,20,65,1,stimuli/objects/bucket02.jpg,left,old,209,,,,,,,,,,,,,,,
,,,,,,,,14,2021-05-15_13h31.17.471,premceCat2_ses-02_part-02_label-phase2,2020.2.10,Win32,60,,,,,right,1.48635,2,0.238755,0,21,21,107,1,stimuli/objects/dolly01.jpg,right,new,251,,,,,,,,,,,,,,,
,,,,,,,,14,2021-05-15_13h31.17.471,premceCat2_ses-02_part-02_label-phase2,2020.2.10,Win32,60,,,,,right,1.16351,3,0.21529,0,22,22,55,1,stimuli/objects/fonduefork01.jpg,right,new,199,,,,,,,,,,,,,,,
,,,,,,,,14,2021-05-15_13h31.17.471,premceCat2_ses-02_part-02_label-phase2,2020.2.10,Win32,60,,,,,left,1.51947,3,0.24439,,,,,,,,,,right,0.67788,0,0,0,0,1,,,,,,,,
,,,,,,,,14,2021-05-15_13h31.17.471,premceCat2_ses-02_part-02_label-phase2,2020.2.10,Win32,60,,,,,,,,,0,23,23,141,1,stimuli/objects/travelmug.jpg,left,old,285,,,,,,,,,,,,,,,
,,,,,,,,14,2021-05-15_13h31.17.471,premceCat2_ses-02_part-02_label-phase2,2020.2.10,Win32,60,,,,,left,1.37694,4,0.746155,,,,,,,,,,right,0.5768,0,0,0,0,1,,,,,,,,
,,,,,,,,14,2021-05-15_13h31.17.471,premceCat2_ses-02_part-02_label-phase2,2020.2.10,Win32,60,,,,,,,,,0,24,24,130,1,stimuli/objects/fuse.jpg,left,old,274,,,,,,,,,,,,,,,
,,,,,,,,14,2021-05-15_13h31.17.471,premceCat2_ses-02_part-02_label-phase2,2020.2.10,Win32,60,,,,,left,0.902785,4,0.284035,,,,,,,,,,left,0.530895,0,0,0,0,1,,,,,,,,
,,,,,,,,14,2021-05-15_13h31.17.471,premceCat2_ses-02_part-02_label-phase2,2020.2.10,Win32,60,,,,,,,,,0,25,25,115,1,stimuli/objects/tray.jpg,left,old,259,,,,,,,,,,,,,,,
,,,,,,,,14,2021-05-15_13h31.17.471,premceCat2_ses-02_part-02_label-phase2,2020.2.10,Win32,60,,,,,left,1.307035,4,0.376565,,,,,,,,,,left,1.40867,0,0,0,0,1,,,,,,,,
,,,,,,,,14,2021-05-15_13h31.17.471,premceCat2_ses-02_part-02_label-phase2,2020.2.10,Win32,60,,,,,,,,,0,26,26,71,1,stimuli/objects/handgripper.jpg,left,old,215,,,,,,,,,,,,,,,
,,,,,,,,14,2021-05-15_13h31.17.471,premceCat2_ses-02_part-02_label-phase2,2020.2.10,Win32,60,,,,,left,0.99938,4,0.6745,,,,,,,,,,left,1.228335,0,0,0,0,1,,,,,,,,
,,,,,,,,14,2021-05-15_13h31.17.471,premceCat2_ses-02_part-02_label-phase2,2020.2.10,Win32,60,,,,,,,,,0,27,27,84,1,stimuli/objects/patioumbrella.jpg,left,old,228,,,,,,,,,,,,,,,
,,,,,,,,14,2021-05-15_13h31.17.471,premceCat2_ses-02_part-02_label-phase2,2020.2.10,Win32,60,,,,,right,0.923755,4,0.37162,0,28,28,60,1,stimuli/objects/kite.jpg,right,new,204,,,,,,,,,,,,,,,
,,,,,,,,14,2021-05-15_13h31.17.471,premceCat2_ses-02_part-02_label-phase2,2020.2.10,Win32,60,,,,,right,1.285535,3,0.227605,0,29,29,68,1,stimuli/objects/ladle02a.jpg,right,new,212,,,,,,,,,,,,,,,
,,,,,,,,14,2021-05-15_13h31.17.471,premceCat2_ses-02_part-02_label-phase2,2020.2.10,Win32,60,,,,,right,1.408885,3,0.392715,0,30,30,42,1,stimuli/objects/tennisracket.jpg,right,new,186,,,,,,,,,,,,,,,
,,,,,,,,14,2021-05-15_13h31.17.471,premceCat2_ses-02_part-02_label-phase2,2020.2.10,Win32,60,,,,,left,1.087735,3,0.328555,,,,,,,,,,right,0.66801,0,0,0,0,1,,,,,,,,
,,,,,,,,14,2021-05-15_13h31.17.471,premceCat2_ses-02_part-02_label-phase2,2020.2.10,Win32,60,,,,,,,,,0,31,31,54,1,stimuli/objects/stubbywrench01a.jpg,left,old,198,,,,,,,,,,,,,,,
,,,,,,,,14,2021-05-15_13h31.17.471,premceCat2_ses-02_part-02_label-phase2,2020.2.10,Win32,60,,,,,right,1.210405,4,0.33084,0,32,32,16,1,stimuli/objects/bottleopener01.jpg,right,new,160,,,,,,,,,,,,,,,
,,,,,,,,14,2021-05-15_13h31.17.471,premceCat2_ses-02_part-02_label-phase2,2020.2.10,Win32,60,,,,,right,0.955355,4,0.275615,0,33,33,133,1,stimuli/objects/birdie.jpg,right,new,277,,,,,,,,,,,,,,,
,,,,,,,,14,2021-05-15_13h31.17.471,premceCat2_ses-02_part-02_label-phase2,2020.2.10,Win32,60,,,,,right,1.255075,3,0.35271,0,34,34,91,1,stimuli/objects/cuttingpliers02.jpg,right,new,235,,,,,,,,,,,,,,,
,,,,,,,,14,2021-05-15_13h31.17.471,premceCat2_ses-02_part-02_label-phase2,2020.2.10,Win32,60,,,,,right,0.870835,4,0.74657,0,35,35,103,1,stimuli/objects/swissarmyknife01a.jpg,right,new,247,,,,,,,,,,,,,,,
,,,,,,,,14,2021-05-15_13h31.17.471,premceCat2_ses-02_part-02_label-phase2,2020.2.10,Win32,60,,,,,left,2.501335,2,0.346295,,,,,,,,,,left,2.09458,0,0,0,0,1,,,,,,,,
,,,,,,,,14,2021-05-15_13h31.17.471,premceCat2_ses-02_part-02_label-phase2,2020.2.10,Win32,60,,,,,,,,,0,36,36,111,1,stimuli/objects/diaperbag.jpg,right,new,255,,,,,,,,,,,,,,,
,,,,,,,,14,2021-05-15_13h31.17.471,premceCat2_ses-02_part-02_label-phase2,2020.2.10,Win32,60,,,,,left,1.699005,4,0.69963,,,,,,,,,,right,2.05945,0,0,0,0,1,,,,,,,,
,,,,,,,,14,2021-05-15_13h31.17.471,premceCat2_ses-02_part-02_label-phase2,2020.2.10,Win32,60,,,,,,,,,0,37,37,109,1,stimuli/objects/toothpick02.jpg,left,old,253,,,,,,,,,,,,,,,
,,,,,,,,14,2021-05-15_13h31.17.471,premceCat2_ses-02_part-02_label-phase2,2020.2.10,Win32,60,,,,,left,1.029765,3,0.300185,,,,,,,,,,left,0.36122,0,0,0,0,1,,,,,,,,
,,,,,,,,14,2021-05-15_13h31.17.471,premceCat2_ses-02_part-02_label-phase2,2020.2.10,Win32,60,,,,,,,,,0,38,38,20,1,stimuli/objects/bikehelmet.jpg,left,old,164,,,,,,,,,,,,,,,
,,,,,,,,14,2021-05-15_13h31.17.471,premceCat2_ses-02_part-02_label-phase2,2020.2.10,Win32,60,,,,,left,0.891815,4,0.575965,,,,,,,,,,left,0.45288,0,0,0,0,1,,,,,,,,
,,,,,,,,14,2021-05-15_13h31.17.471,premceCat2_ses-02_part-02_label-phase2,2020.2.10,Win32,60,,,,,,,,,0,39,39,119,1,stimuli/objects/muffintray01.jpg,left,old,263,,,,,,,,,,,,,,,
,,,,,,,,14,2021-05-15_13h31.17.471,premceCat2_ses-02_part-02_label-phase2,2020.2.10,Win32,60,,,,,left,1.162185,4,0.292705,,,,,,,,,,right,1.0636,0,0,0,0,1,,,,,,,,
,,,,,,,,14,2021-05-15_13h31.17.471,premceCat2_ses-02_part-02_label-phase2,2020.2.10,Win32,60,,,,,,,,,0,40,40,72,1,stimuli/objects/wheel01.jpg,left,old,216,,,,,,,,,,,,,,,
,,,,,,,,14,2021-05-15_13h31.17.471,premceCat2_ses-02_part-02_label-phase2,2020.2.10,Win32,60,,,,,left,1.34349,3,0.40638,,,,,,,,,,left,0.32842,0,0,0,0,1,,,,,,,,
,,,,,,,,14,2021-05-15_13h31.17.471,premceCat2_ses-02_part-02_label-phase2,2020.2.10,Win32,60,,,,,,,,,0,41,41,105,1,stimuli/objects/pitcher02b.jpg,left,old,249,,,,,,,,,,,,,,,
,,,,,,,,14,2021-05-15_13h31.17.471,premceCat2_ses-02_part-02_label-phase2,2020.2.10,Win32,60,,,,,right,1.084985,4,0.24658,0,42,42,120,1,stimuli/objects/tent.jpg,right,new,264,,,,,,,,,,,,,,,
,,,,,,,,14,2021-05-15_13h31.17.471,premceCat2_ses-02_part-02_label-phase2,2020.2.10,Win32,60,,,,,left,1.584755,3,0.310925,,,,,,,,,,right,0.5752,0,0,0,0,1,,,,,,,,
,,,,,,,,14,2021-05-15_13h31.17.471,premceCat2_ses-02_part-02_label-phase2,2020.2.10,Win32,60,,,,,,,,,0,43,43,75,1,stimuli/objects/mallet01b.jpg,left,old,219,,,,,,,,,,,,,,,
,,,,,,,,14,2021-05-15_13h31.17.471,premceCat2_ses-02_part-02_label-phase2,2020.2.10,Win32,60,,,,,left,1.478195,3,1.04817,,,,,,,,,,right,0.83375,0,0,0,0,1,,,,,,,,
,,,,,,,,14,2021-05-15_13h31.17.471,premceCat2_ses-02_part-02_label-phase2,2020.2.10,Win32,60,,,,,,,,,0,44,44,1,1,stimuli/objects/crocodileclips.jpg,left,old,145,,,,,,,,,,,,,,,
,,,,,,,,14,2021-05-15_13h31.17.471,premceCat2_ses-02_part-02_label-phase2,2020.2.10,Win32,60,,,,,right,1.321525,3,0.3452,0,45,45,78,1,stimuli/objects/lightswitch01.jpg,right,new,222,,,,,,,,,,,,,,,
,,,,,,,,14,2021-05-15_13h31.17.471,premceCat2_ses-02_part-02_label-phase2,2020.2.10,Win32,60,,,,,left,1.207625,4,0.39669,,,,,,,,,,right,0.481885,0,0,0,0,1,,,,,,,,
,,,,,,,,14,2021-05-15_13h31.17.471,premceCat2_ses-02_part-02_label-phase2,2020.2.10,Win32,60,,,,,,,,,0,46,46,29,1,stimuli/objects/chandelier.jpg,left,old,173,,,,,,,,,,,,,,,
,,,,,,,,14,2021-05-15_13h31.17.471,premceCat2_ses-02_part-02_label-phase2,2020.2.10,Win32,60,,,,,left,1.022795,4,0.696895,,,,,,,,,,left,0.324055,0,0,0,0,1,,,,,,,,
,,,,,,,,14,2021-05-15_13h31.17.471,premceCat2_ses-02_part-02_label-phase2,2020.2.10,Win32,60,,,,,,,,,0,47,47,63,1,stimuli/objects/towel01.jpg,left,old,207,,,,,,,,,,,,,,,
,,,,,,,,14,2021-05-15_13h31.17.471,premceCat2_ses-02_part-02_label-phase2,2020.2.10,Win32,60,,,,,left,1.10321,4,0.27273,,,,,,,,,,right,0.39782,0,0,0,0,1,,,,,,,,
,,,,,,,,14,2021-05-15_13h31.17.471,premceCat2_ses-02_part-02_label-phase2,2020.2.10,Win32,60,,,,,,,,,0,48,48,37,1,stimuli/objects/computerkeyboard02.jpg,left,old,181,,,,,,,,,,,,,,,
,,,,,,,,14,2021-05-15_13h31.17.471,premceCat2_ses-02_part-02_label-phase2,2020.2.10,Win32,60,,,,,right,1.143595,3,0.60584,0,49,49,131,1,stimuli/objects/handblender.jpg,right,new,275,,,,,,,,,,,,,,,
,,,,,,,,14,2021-05-15_13h31.17.471,premceCat2_ses-02_part-02_label-phase2,2020.2.10,Win32,60,,,,,right,1.05117,3,0.318885,0,50,50,15,1,stimuli/objects/computermouse06.jpg,right,new,159,,,,,,,,,,,,,,,
,,,,,,,,14,2021-05-15_13h31.17.471,premceCat2_ses-02_part-02_label-phase2,2020.2.10,Win32,60,,,,,right,0.94699,3,0.299985,0,51,51,26,1,stimuli/objects/flashlight02b.jpg,right,new,170,,,,,,,,,,,,,,,
,,,,,,,,14,2021-05-15_13h31.17.471,premceCat2_ses-02_part-02_label-phase2,2020.2.10,Win32,60,,,,,left,0.91881,4,0.300925,,,,,,,,,,right,1.952375,0,0,0,0,1,,,,,,,,
,,,,,,,,14,2021-05-15_13h31.17.471,premceCat2_ses-02_part-02_label-phase2,2020.2.10,Win32,60,,,,,,,,,0,52,52,88,1,stimuli/objects/magneticcompass.jpg,left,old,232,,,,,,,,,,,,,,,
,,,,,,,,14,2021-05-15_13h31.17.471,premceCat2_ses-02_part-02_label-phase2,2020.2.10,Win32,60,,,,,right,1.577495,2,0.22927,0,53,53,70,1,stimuli/objects/shovel01.jpg,right,new,214,,,,,,,,,,,,,,,
,,,,,,,,14,2021-05-15_13h31.17.471,premceCat2_ses-02_part-02_label-phase2,2020.2.10,Win32,60,,,,,left,0.902375,4,0.346445,,,,,,,,,,left,0.361675,0,0,0,0,1,,,,,,,,
,,,,,,,,14,2021-05-15_13h31.17.471,premceCat2_ses-02_part-02_label-phase2,2020.2.10,Win32,60,,,,,,,,,0,54,54,110,1,stimuli/objects/skiboot01a.jpg,left,old,254,,,,,,,,,,,,,,,
,,,,,,,,14,2021-05-15_13h31.17.471,premceCat2_ses-02_part-02_label-phase2,2020.2.10,Win32,60,,,,,left,1.714675,3,0.867815,,,,,,,,,,left,0.637265,0,0,0,0,1,,,,,,,,
,,,,,,,,14,2021-05-15_13h31.17.471,premceCat2_ses-02_part-02_label-phase2,2020.2.10,Win32,60,,,,,,,,,0,55,55,36,1,stimuli/objects/loppingshears.jpg,right,new,180,,,,,,,,,,,,,,,
,,,,,,,,14,2021-05-15_13h31.17.471,premceCat2_ses-02_part-02_label-phase2,2020.2.10,Win32,60,,,,,left,1.129925,3,0.730135,,,,,,,,,,right,0.390975,0,0,0,0,1,,,,,,,,
,,,,,,,,14,2021-05-15_13h31.17.471,premceCat2_ses-02_part-02_label-phase2,2020.2.10,Win32,60,,,,,,,,,0,56,56,27,1,stimuli/objects/saw02b.jpg,left,old,171,,,,,,,,,,,,,,,
,,,,,,,,14,2021-05-15_13h31.17.471,premceCat2_ses-02_part-02_label-phase2,2020.2.10,Win32,60,,,,,right,1.36329,2,0.2641,0,57,57,87,1,stimuli/objects/wiicontroller.jpg,right,new,231,,,,,,,,,,,,,,,
,,,,,,,,14,2021-05-15_13h31.17.471,premceCat2_ses-02_part-02_label-phase2,2020.2.10,Win32,60,,,,,right,1.207935,3,0.30242,0,58,58,35,1,stimuli/objects/stroller.jpg,right,new,179,,,,,,,,,,,,,,,
,,,,,,,,14,2021-05-15_13h31.17.471,premceCat2_ses-02_part-02_label-phase2,2020.2.10,Win32,60,,,,,right,1.25576,3,0.26926,0,59,59,9,1,stimuli/objects/alarmsystem.jpg,right,new,153,,,,,,,,,,,,,,,
,,,,,,,,14,2021-05-15_13h31.17.471,premceCat2_ses-02_part-02_label-phase2,2020.2.10,Win32,60,,,,,right,1.27643,3,0.34615,0,60,60,138,1,stimuli/objects/beermug01a.jpg,right,new,282,,,,,,,,,,,,,,,
,,,,,,,,14,2021-05-15_13h31.17.471,premceCat2_ses-02_part-02_label-phase2,2020.2.10,Win32,60,,,,,left,1.177265,3,0.321685,,,,,,,,,,left,1.333325,0,0,0,0,1,,,,,,,,
,,,,,,,,14,2021-05-15_13h31.17.471,premceCat2_ses-02_part-02_label-phase2,2020.2.10,Win32,60,,,,,,,,,0,61,61,93,1,stimuli/objects/chainsaw.jpg,left,old,237,,,,,,,,,,,,,,,
,,,,,,,,14,2021-05-15_13h31.17.471,premceCat2_ses-02_part-02_label-phase2,2020.2.10,Win32,60,,,,,right,1.307535,3,0.27573,0,62,62,6,1,stimuli/objects/solderingwire.jpg,right,new,150,,,,,,,,,,,,,,,
,,,,,,,,14,2021-05-15_13h31.17.471,premceCat2_ses-02_part-02_label-phase2,2020.2.10,Win32,60,,,,,left,1.4868,3,0.365825,,,,,,,,,,left,1.8115,0,0,0,0,1,,,,,,,,
,,,,,,,,14,2021-05-15_13h31.17.471,premceCat2_ses-02_part-02_label-phase2,2020.2.10,Win32,60,,,,,,,,,0,63,63,53,1,stimuli/objects/metalbrush.jpg,left,old,197,,,,,,,,,,,,,,,
,,,,,,,,14,2021-05-15_13h31.17.471,premceCat2_ses-02_part-02_label-phase2,2020.2.10,Win32,60,,,,,right,1.392285,3,0.30859,0,64,64,69,1,stimuli/objects/straw.jpg,right,new,213,,,,,,,,,,,,,,,
,,,,,,,,14,2021-05-15_13h31.17.471,premceCat2_ses-02_part-02_label-phase2,2020.2.10,Win32,60,,,,,right,1.1261,3,0.23939,0,65,65,101,1,stimuli/objects/lifejacket.jpg,right,new,245,,,,,,,,,,,,,,,
,,,,,,,,14,2021-05-15_13h31.17.471,premceCat2_ses-02_part-02_label-phase2,2020.2.10,Win32,60,,,,,right,0.921585,3,0.337405,0,66,66,4,1,stimuli/objects/cassettetape01a.jpg,right,new,148,,,,,,,,,,,,,,,
,,,,,,,,14,2021-05-15_13h31.17.471,premceCat2_ses-02_part-02_label-phase2,2020.2.10,Win32,60,,,,,left,0.914565,4,0.2226,,,,,,,,,,left,1.05295,0,0,0,0,1,,,,,,,,
,,,,,,,,14,2021-05-15_13h31.17.471,premceCat2_ses-02_part-02_label-phase2,2020.2.10,Win32,60,,,,,,,,,0,67,67,57,1,stimuli/objects/swimgoggles.jpg,left,old,201,,,,,,,,,,,,,,,
,,,,,,,,14,2021-05-15_13h31.17.471,premceCat2_ses-02_part-02_label-phase2,2020.2.10,Win32,60,,,,,right,1.668895,2,0.28718,0,68,68,7,1,stimuli/objects/butterknife.jpg,left,old,151,,,,,,,,,,,,,,,
,,,,,,,,14,2021-05-15_13h31.17.471,premceCat2_ses-02_part-02_label-phase2,2020.2.10,Win32,60,,,,,left,1.0608,3,0.28274,,,,,,,,,,left,0.3185,0,0,0,0,1,,,,,,,,
,,,,,,,,14,2021-05-15_13h31.17.471,premceCat2_ses-02_part-02_label-phase2,2020.2.10,Win32,60,,,,,,,,,0,69,69,10,1,stimuli/objects/skihelmet01.jpg,left,old,154,,,,,,,,,,,,,,,
,,,,,,,,14,2021-05-15_13h31.17.471,premceCat2_ses-02_part-02_label-phase2,2020.2.10,Win32,60,,,,,left,1.172205,4,0.44841,,,,,,,,,,right,0.663455,0,0,0,0,1,,,,,,,,
,,,,,,,,14,2021-05-15_13h31.17.471,premceCat2_ses-02_part-02_label-phase2,2020.2.10,Win32,60,,,,,,,,,0,70,70,139,1,stimuli/objects/corkscrew03a.jpg,left,old,283,,,,,,,,,,,,,,,
,,,,,,,,14,2021-05-15_13h31.17.471,premceCat2_ses-02_part-02_label-phase2,2020.2.10,Win32,60,,,,,right,1.197785,2,0.2895,0,71,71,41,1,stimuli/objects/flask.jpg,right,new,185,,,,,,,,,,,,,,,
,,,,,,,,14,2021-05-15_13h31.17.471,premceCat2_ses-02_part-02_label-phase2,2020.2.10,Win32,60,,,,,left,0.846055,4,0.245505,,,,,,,,,,left,0.51202,0,0,0,0,1,,,,,,,,
,,,,,,,,14,2021-05-15_13h31.17.471,premceCat2_ses-02_part-02_label-phase2,2020.2.10,Win32,60,,,,,,,,,0,72,72,97,1,stimuli/objects/tupperware03a.jpg,left,old,241,,,,,,,,,,,,,,,
,,,,,,,,14,2021-05-15_13h31.17.471,premceCat2_ses-02_part-02_label-phase2,2020.2.10,Win32,60,,,,,left,1.000855,3,0.295535,,,,,,,,,,left,0.27801,0,0,0,0,1,,,,,,,,
,,,,,,,,14,2021-05-15_13h31.17.471,premceCat2_ses-02_part-02_label-phase2,2020.2.10,Win32,60,,,,,,,,,0,73,73,32,1,stimuli/objects/rollingpin01a.jpg,left,old,176,,,,,,,,,,,,,,,
,,,,,,,,14,2021-05-15_13h31.17.471,premceCat2_ses-02_part-02_label-phase2,2020.2.10,Win32,60,,,,,left,1.69834,3,0.27369,,,,,,,,,,left,1.101815,0,0,0,0,1,,,,,,,,
,,,,,,,,14,2021-05-15_13h31.17.471,premceCat2_ses-02_part-02_label-phase2,2020.2.10,Win32,60,,,,,,,,,0,74,74,79,1,stimuli/objects/boatmotor.jpg,left,old,223,,,,,,,,,,,,,,,
,,,,,,,,14,2021-05-15_13h31.17.471,premceCat2_ses-02_part-02_label-phase2,2020.2.10,Win32,60,,,,,right,1.25847,3,0.334665,0,75,75,30,1,stimuli/objects/halogenlightbulb.jpg,right,new,174,,,,,,,,,,,,,,,
,,,,,,,,14,2021-05-15_13h31.17.471,premceCat2_ses-02_part-02_label-phase2,2020.2.10,Win32,60,,,,,left,0.979395,4,0.266385,,,,,,,,,,right,1.18062,0,0,0,0,1,,,,,,,,
,,,,,,,,14,2021-05-15_13h31.17.471,premceCat2_ses-02_part-02_label-phase2,2020.2.10,Win32,60,,,,,,,,,0,76,76,28,1,stimuli/objects/canister.jpg,left,old,172,,,,,,,,,,,,,,,
,,,,,,,,14,2021-05-15_13h31.17.471,premceCat2_ses-02_part-02_label-phase2,2020.2.10,Win32,60,,,,,right,1.222405,2,0.31431,0,77,77,123,1,stimuli/objects/jackhammer.jpg,right,new,267,,,,,,,,,,,,,,,
,,,,,,,,14,2021-05-15_13h31.17.471,premceCat2_ses-02_part-02_label-phase2,2020.2.10,Win32,60,,,,,left,1.172835,4,0.30773,,,,,,,,,,right,0.460255,0,0,0,0,1,,,,,,,,
,,,,,,,,14,2021-05-15_13h31.17.471,premceCat2_ses-02_part-02_label-phase2,2020.2.10,Win32,60,,,,,,,,,0,78,78,67,1,stimuli/objects/fan.jpg,left,old,211,,,,,,,,,,,,,,,
,,,,,,,,14,2021-05-15_13h31.17.471,premceCat2_ses-02_part-02_label-phase2,2020.2.10,Win32,60,,,,,left,0.921245,4,0.628025,,,,,,,,,,left,0.51127,0,0,0,0,1,,,,,,,,
,,,,,,,,14,2021-05-15_13h31.17.471,premceCat2_ses-02_part-02_label-phase2,2020.2.10,Win32,60,,,,,,,,,0,79,79,14,1,stimuli/objects/fishingrod.jpg,left,old,158,,,,,,,,,,,,,,,
,,,,,,,,14,2021-05-15_13h31.17.471,premceCat2_ses-02_part-02_label-phase2,2020.2.10,Win32,60,,,,,right,1.251895,3,0.445125,0,80,80,19,1,stimuli/objects/mug01.jpg,right,new,163,,,,,,,,,,,,,,,
,,,,,,,,14,2021-05-15_13h31.17.471,premceCat2_ses-02_part-02_label-phase2,2020.2.10,Win32,60,,,,,right,1.23547,2,0.33288,0,81,81,127,1,stimuli/objects/skigoggles01.jpg,right,new,271,,,,,,,,,,,,,,,
,,,,,,,,14,2021-05-15_13h31.17.471,premceCat2_ses-02_part-02_label-phase2,2020.2.10,Win32,60,,,,,right,0.953595,3,0.23166,0,82,82,5,1,stimuli/objects/pickaxe02.jpg,right,new,149,,,,,,,,,,,,,,,
,,,,,,,,14,2021-05-15_13h31.17.471,premceCat2_ses-02_part-02_label-phase2,2020.2.10,Win32,60,,,,,left,1.001705,4,0.48671,,,,,,,,,,right,0.3603,0,0,0,0,1,,,,,,,,
,,,,,,,,14,2021-05-15_13h31.17.471,premceCat2_ses-02_part-02_label-phase2,2020.2.10,Win32,60,,,,,,,,,0,83,83,89,1,stimuli/objects/cleaver01.jpg,left,old,233,,,,,,,,,,,,,,,
,,,,,,,,14,2021-05-15_13h31.17.471,premceCat2_ses-02_part-02_label-phase2,2020.2.10,Win32,60,,,,,left,1.23829,4,0.235785,,,,,,,,,,right,0.67404,0,0,0,0,1,,,,,,,,
,,,,,,,,14,2021-05-15_13h31.17.471,premceCat2_ses-02_part-02_label-phase2,2020.2.10,Win32,60,,,,,,,,,0,84,84,11,1,stimuli/objects/vhstape.jpg,left,old,155,,,,,,,,,,,,,,,
,,,,,,,,14,2021-05-15_13h31.17.471,premceCat2_ses-02_part-02_label-phase2,2020.2.10,Win32,60,,,,,right,0.864315,4,0.263515,0,85,85,2,1,stimuli/objects/wetfloorsign.jpg,right,new,146,,,,,,,,,,,,,,,
,,,,,,,,14,2021-05-15_13h31.17.471,premceCat2_ses-02_part-02_label-phase2,2020.2.10,Win32,60,,,,,left,1.016555,4,0.292015,,,,,,,,,,left,0.430825,0,0,0,0,1,,,,,,,,
,,,,,,,,14,2021-05-15_13h31.17.471,premceCat2_ses-02_part-02_label-phase2,2020.2.10,Win32,60,,,,,,,,,0,86,86,45,1,stimuli/objects/charcoalbarbecue.jpg,left,old,189,,,,,,,,,,,,,,,
,,,,,,,,14,2021-05-15_13h31.17.471,premceCat2_ses-02_part-02_label-phase2,2020.2.10,Win32,60,,,,,right,1.330585,3,0.28554,0,87,87,99,1,stimuli/objects/floodlight.jpg,right,new,243,,,,,,,,,,,,,,,
,,,,,,,,14,2021-05-15_13h31.17.471,premceCat2_ses-02_part-02_label-phase2,2020.2.10,Win32,60,,,,,left,1.45459,4,0.279425,,,,,,,,,,left,0.510415,0,0,0,0,1,,,,,,,,
,,,,,,,,14,2021-05-15_13h31.17.471,premceCat2_ses-02_part-02_label-phase2,2020.2.10,Win32,60,,,,,,,,,0,88,88,64,1,stimuli/objects/surfboard.jpg,left,old,208,,,,,,,,,,,,,,,
,,,,,,,,14,2021-05-15_13h31.17.471,premceCat2_ses-02_part-02_label-phase2,2020.2.10,Win32,60,,,,,left,1.37286,4,1.047335,,,,,,,,,,right,0.38683,0,0,0,0,1,,,,,,,,
,,,,,,,,14,2021-05-15_13h31.17.471,premceCat2_ses-02_part-02_label-phase2,2020.2.10,Win32,60,,,,,,,,,0,89,89,56,1,stimuli/objects/thermos.jpg,left,old,200,,,,,,,,,,,,,,,
,,,,,,,,14,2021-05-15_13h31.17.471,premceCat2_ses-02_part-02_label-phase2,2020.2.10,Win32,60,,,,,right,1.137885,2,0.898835,0,90,90,94,1,stimuli/objects/file.jpg,right,new,238,,,,,,,,,,,,,,,
,,,,,,,,14,2021-05-15_13h31.17.471,premceCat2_ses-02_part-02_label-phase2,2020.2.10,Win32,60,,,,,right,0.98676,3,0.227165,0,91,91,0,1,stimuli/objects/smokedetector02.jpg,right,new,144,,,,,,,,,,,,,,,
,,,,,,,,14,2021-05-15_13h31.17.471,premceCat2_ses-02_part-02_label-phase2,2020.2.10,Win32,60,,,,,right,1.56038,3,0.196315,0,92,92,49,1,stimuli/objects/cakeplatter.jpg,right,new,193,,,,,,,,,,,,,,,
,,,,,,,,14,2021-05-15_13h31.17.471,premceCat2_ses-02_part-02_label-phase2,2020.2.10,Win32,60,,,,,right,0.97239,3,0.41035,0,93,93,51,1,stimuli/objects/cheeseknife01.jpg,right,new,195,,,,,,,,,,,,,,,
,,,,,,,,14,2021-05-15_13h31.17.471,premceCat2_ses-02_part-02_label-phase2,2020.2.10,Win32,60,,,,,left,0.954975,4,0.27289,,,,,,,,,,right,0.526055,0,0,0,0,1,,,,,,,,
,,,,,,,,14,2021-05-15_13h31.17.471,premceCat2_ses-02_part-02_label-phase2,2020.2.10,Win32,60,,,,,,,,,0,94,94,129,1,stimuli/objects/hoe.jpg,left,old,273,,,,,,,,,,,,,,,
,,,,,,,,14,2021-05-15_13h31.17.471,premceCat2_ses-02_part-02_label-phase2,2020.2.10,Win32,60,,,,,left,1.738095,2,0.907395,,,,,,,,,,right,0.281885,0,0,0,0,1,,,,,,,,
,,,,,,,,14,2021-05-15_13h31.17.471,premceCat2_ses-02_part-02_label-phase2,2020.2.10,Win32,60,,,,,,,,,0,95,95,140,1,stimuli/objects/wineglass01.jpg,right,new,284,,,,,,,,,,,,,,,
,,,,,,,,14,2021-05-15_13h31.17.471,premceCat2_ses-02_part-02_label-phase2,2020.2.10,Win32,60,,,,,left,1.118305,2,1.07944,,,,,,,,,,right,0.253225,0,0,0,0,1,,,,,,,,
,,,,,,,,14,2021-05-15_13h31.17.471,premceCat2_ses-02_part-02_label-phase2,2020.2.10,Win32,60,,,,,,,,,0,96,96,8,1,stimuli/objects/hammer01.jpg,left,old,152,,,,,,,,,,,,,,,
,,,,,,,,14,2021-05-15_13h31.17.471,premceCat2_ses-02_part-02_label-phase2,2020.2.10,Win32,60,,,,,left,1.68355,4,0.678315,,,,,,,,,,left,2.347805,0,0,0,0,1,,,,,,,,
,,,,,,,,14,2021-05-15_13h31.17.471,premceCat2_ses-02_part-02_label-phase2,2020.2.10,Win32,60,,,,,,,,,0,97,97,96,1,stimuli/objects/wateringcan.jpg,left,old,240,,,,,,,,,,,,,,,
,,,,,,,,14,2021-05-15_13h31.17.471,premceCat2_ses-02_part-02_label-phase2,2020.2.10,Win32,60,,,,,right,1.56772,3,0.96762,0,98,98,124,1,stimuli/objects/basketball01.jpg,right,new,268,,,,,,,,,,,,,,,
,,,,,,,,14,2021-05-15_13h31.17.471,premceCat2_ses-02_part-02_label-phase2,2020.2.10,Win32,60,,,,,right,1.24644,2,0.22742,0,99,99,102,1,stimuli/objects/beachumbrella01.jpg,right,new,246,,,,,,,,,,,,,,,
,,,,,,,,14,2021-05-15_13h31.17.471,premceCat2_ses-02_part-02_label-phase2,2020.2.10,Win32,60,,,,,left,2.285465,2,0.250465,,,,,,,,,,right,0.67921,0,0,0,0,1,,,,,,,,
,,,,,,,,14,2021-05-15_13h31.17.471,premceCat2_ses-02_part-02_label-phase2,2020.2.10,Win32,60,,,,,,,,,0,100,100,106,1,stimuli/objects/extensioncord.jpg,left,old,250,,,,,,,,,,,,,,,
,,,,,,,,14,2021-05-15_13h31.17.471,premceCat2_ses-02_part-02_label-phase2,2020.2.10,Win32,60,,,,,right,0.998225,3,0.6921,0,101,101,81,1,stimuli/objects/grill.jpg,right,new,225,,,,,,,,,,,,,,,
,,,,,,,,14,2021-05-15_13h31.17.471,premceCat2_ses-02_part-02_label-phase2,2020.2.10,Win32,60,,,,,right,2.01794,2,0.241035,0,102,102,50,1,stimuli/objects/hockeygoaliemask.jpg,left,old,194,,,,,,,,,,,,,,,
,,,,,,,,14,2021-05-15_13h31.17.471,premceCat2_ses-02_part-02_label-phase2,2020.2.10,Win32,60,,,,,left,1.08199,3,1.3619,,,,,,,,,,right,0.448495,0,0,0,0,1,,,,,,,,
,,,,,,,,14,2021-05-15_13h31.17.471,premceCat2_ses-02_part-02_label-phase2,2020.2.10,Win32,60,,,,,,,,,0,103,103,125,1,stimuli/objects/sewingmachine01a.jpg,left,old,269,,,,,,,,,,,,,,,
,,,,,,,,14,2021-05-15_13h31.17.471,premceCat2_ses-02_part-02_label-phase2,2020.2.10,Win32,60,,,,,left,2.734725,2,0.27829,,,,,,,,,,left,0.85773,0,0,0,0,1,,,,,,,,
,,,,,,,,14,2021-05-15_13h31.17.471,premceCat2_ses-02_part-02_label-phase2,2020.2.10,Win32,60,,,,,,,,,0,104,104,43,1,stimuli/objects/bowrake.jpg,right,new,187,,,,,,,,,,,,,,,
,,,,,,,,14,2021-05-15_13h31.17.471,premceCat2_ses-02_part-02_label-phase2,2020.2.10,Win32,60,,,,,left,1.43003,2,0.899495,,,,,,,,,,right,0.28034,0,0,0,0,1,,,,,,,,
,,,,,,,,14,2021-05-15_13h31.17.471,premceCat2_ses-02_part-02_label-phase2,2020.2.10,Win32,60,,,,,,,,,0,105,105,108,1,stimuli/objects/telephone01b.jpg,left,old,252,,,,,,,,,,,,,,,
,,,,,,,,14,2021-05-15_13h31.17.471,premceCat2_ses-02_part-02_label-phase2,2020.2.10,Win32,60,,,,,right,1.798915,2,0.22921,0,106,106,80,1,stimuli/objects/barbecue03.jpg,right,new,224,,,,,,,,,,,,,,,
,,,,,,,,14,2021-05-15_13h31.17.471,premceCat2_ses-02_part-02_label-phase2,2020.2.10,Win32,60,,,,,left,1.460305,3,0.235745,,,,,,,,,,left,0.44951,0,0,0,0,1,,,,,,,,
,,,,,,,,14,2021-05-15_13h31.17.471,premceCat2_ses-02_part-02_label-phase2,2020.2.10,Win32,60,,,,,,,,,0,107,107,23,1,stimuli/objects/snowboard.jpg,left,old,167,,,,,,,,,,,,,,,
,,,,,,,,14,2021-05-15_13h31.17.471,premceCat2_ses-02_part-02_label-phase2,2020.2.10,Win32,60,,,,,right,1.77975,3,1.028795,0,108,108,116,1,stimuli/objects/lockingplier.jpg,right,new,260,,,,,,,,,,,,,,,
,,,,,,,,14,2021-05-15_13h31.17.471,premceCat2_ses-02_part-02_label-phase2,2020.2.10,Win32,60,,,,,right,2.230405,3,0.213165,0,109,109,132,1,stimuli/objects/wirestripper.jpg,right,new,276,,,,,,,,,,,,,,,
,,,,,,,,14,2021-05-15_13h31.17.471,premceCat2_ses-02_part-02_label-phase2,2020.2.10,Win32,60,,,,,right,0.992505,4,0.1866,0,110,110,128,1,stimuli/objects/spoon01.jpg,left,old,272,,,,,,,,,,,,,,,
,,,,,,,,14,2021-05-15_13h31.17.471,premceCat2_ses-02_part-02_label-phase2,2020.2.10,Win32,60,,,,,right,1.36533,3,0.293305,0,111,111,118,1,stimuli/objects/pliers02b.jpg,left,old,262,,,,,,,,,,,,,,,
,,,,,,,,14,2021-05-15_13h31.17.471,premceCat2_ses-02_part-02_label-phase2,2020.2.10,Win32,60,,,,,left,1.250135,4,0.32218,,,,,,,,,,right,2.22332,0,0,0,0,1,,,,,,,,
,,,,,,,,14,2021-05-15_13h31.17.471,premceCat2_ses-02_part-02_label-phase2,2020.2.10,Win32,60,,,,,,,,,0,112,112,77,1,stimuli/objects/contactlens.jpg,left,old,221,,,,,,,,,,,,,,,
,,,,,,,,14,2021-05-15_13h31.17.471,premceCat2_ses-02_part-02_label-phase2,2020.2.10,Win32,60,,,,,left,1.23587,3,0.220635,,,,,,,,,,right,0.9276,0,0,0,0,1,,,,,,,,
,,,,,,,,14,2021-05-15_13h31.17.471,premceCat2_ses-02_part-02_label-phase2,2020.2.10,Win32,60,,,,,,,,,0,113,113,92,1,stimuli/objects/snowshovel.jpg,left,old,236,,,,,,,,,,,,,,,
,,,,,,,,14,2021-05-15_13h31.17.471,premceCat2_ses-02_part-02_label-phase2,2020.2.10,Win32,60,,,,,left,0.951475,4,0.168225,,,,,,,,,,right,0.241995,0,0,0,0,1,,,,,,,,
,,,,,,,,14,2021-05-15_13h31.17.471,premceCat2_ses-02_part-02_label-phase2,2020.2.10,Win32,60,,,,,,,,,0,114,114,76,1,stimuli/objects/headphones02b.jpg,left,old,220,,,,,,,,,,,,,,,
,,,,,,,,14,2021-05-15_13h31.17.471,premceCat2_ses-02_part-02_label-phase2,2020.2.10,Win32,60,,,,,left,0.979975,4,0.23069,,,,,,,,,,right,0.28198,0,0,0,0,1,,,,,,,,
,,,,,,,,14,2021-05-15_13h31.17.471,premceCat2_ses-02_part-02_label-phase2,2020.2.10,Win32,60,,,,,,,,,0,115,115,13,1,stimuli/objects/bungeecord02.jpg,left,old,157,,,,,,,,,,,,,,,
,,,,,,,,14,2021-05-15_13h31.17.471,premceCat2_ses-02_part-02_label-phase2,2020.2.10,Win32,60,,,,,right,1.430405,2,0.257435,0,116,116,24,1,stimuli/objects/monitor.jpg,right,new,168,,,,,,,,,,,,,,,
,,,,,,,,14,2021-05-15_13h31.17.471,premceCat2_ses-02_part-02_label-phase2,2020.2.10,Win32,60,,,,,left,0.9579,4,0.267175,,,,,,,,,,left,0.741795,0,0,0,0,1,,,,,,,,
,,,,,,,,14,2021-05-15_13h31.17.471,premceCat2_ses-02_part-02_label-phase2,2020.2.10,Win32,60,,,,,,,,,0,117,117,74,1,stimuli/objects/shinpad.jpg,left,old,218,,,,,,,,,,,,,,,
,,,,,,,,14,2021-05-15_13h31.17.471,premceCat2_ses-02_part-02_label-phase2,2020.2.10,Win32,60,,,,,left,1.05646,3,0.229355,,,,,,,,,,right,0.313085,0,0,0,0,1,,,,,,,,
,,,,,,,,14,2021-05-15_13h31.17.471,premceCat2_ses-02_part-02_label-phase2,2020.2.10,Win32,60,,,,,,,,,0,118,118,62,1,stimuli/objects/pot01.jpg,left,old,206,,,,,,,,,,,,,,,
,,,,,,,,14,2021-05-15_13h31.17.471,premceCat2_ses-02_part-02_label-phase2,2020.2.10,Win32,60,,,,,left,1.26658,4,0.436015,,,,,,,,,,left,0.499015,0,0,0,0,1,,,,,,,,
,,,,,,,,14,2021-05-15_13h31.17.471,premceCat2_ses-02_part-02_label-phase2,2020.2.10,Win32,60,,,,,,,,,0,119,119,90,1,stimuli/objects/toyhockeystick01.jpg,left,old,234,,,,,,,,,,,,,,,
,,,,,,,,14,2021-05-15_13h31.17.471,premceCat2_ses-02_part-02_label-phase2,2020.2.10,Win32,60,,,,,left,1.342475,2,0.29543,,,,,,,,,,left,0.2883,0,0,0,0,1,,,,,,,,
,,,,,,,,14,2021-05-15_13h31.17.471,premceCat2_ses-02_part-02_label-phase2,2020.2.10,Win32,60,,,,,,,,,0,120,120,31,1,stimuli/objects/soccerball.jpg,left,old,175,,,,,,,,,,,,,,,
,,,,,,,,14,2021-05-15_13h31.17.471,premceCat2_ses-02_part-02_label-phase2,2020.2.10,Win32,60,,,,,left,0.93575,4,0.343585,,,,,,,,,,right,1.37399,0,0,0,0,1,,,,,,,,
,,,,,,,,14,2021-05-15_13h31.17.471,premceCat2_ses-02_part-02_label-phase2,2020.2.10,Win32,60,,,,,,,,,0,121,121,136,1,stimuli/objects/hockeypuck.jpg,left,old,280,,,,,,,,,,,,,,,
,,,,,,,,14,2021-05-15_13h31.17.471,premceCat2_ses-02_part-02_label-phase2,2020.2.10,Win32,60,,,,,right,1.06277,4,0.170345,0,122,122,86,1,stimuli/objects/trampoline.jpg,right,new,230,,,,,,,,,,,,,,,
,,,,,,,,14,2021-05-15_13h31.17.471,premceCat2_ses-02_part-02_label-phase2,2020.2.10,Win32,60,,,,,right,1.57379,2,0.198625,0,123,123,98,1,stimuli/objects/cameracase01a.jpg,right,new,242,,,,,,,,,,,,,,,
,,,,,,,,14,2021-05-15_13h31.17.471,premceCat2_ses-02_part-02_label-phase2,2020.2.10,Win32,60,,,,,right,1.2038,3,0.12349,0,124,124,44,1,stimuli/objects/toaster01.jpg,right,new,188,,,,,,,,,,,,,,,
,,,,,,,,14,2021-05-15_13h31.17.471,premceCat2_ses-02_part-02_label-phase2,2020.2.10,Win32,60,,,,,left,1.067235,3,0.2898,,,,,,,,,,right,0.624775,0,0,0,0,1,,,,,,,,
,,,,,,,,14,2021-05-15_13h31.17.471,premceCat2_ses-02_part-02_label-phase2,2020.2.10,Win32,60,,,,,,,,,0,125,125,18,1,stimuli/objects/fluorescentlightbulb.jpg,left,old,162,,,,,,,,,,,,,,,
,,,,,,,,14,2021-05-15_13h31.17.471,premceCat2_ses-02_part-02_label-phase2,2020.2.10,Win32,60,,,,,right,1.073715,3,0.34902,0,126,126,47,1,stimuli/objects/plate01b.jpg,right,new,191,,,,,,,,,,,,,,,
,,,,,,,,14,2021-05-15_13h31.17.471,premceCat2_ses-02_part-02_label-phase2,2020.2.10,Win32,60,,,,,left,0.891955,3,0.385775,,,,,,,,,,right,1.18009,0,0,0,0,1,,,,,,,,
,,,,,,,,14,2021-05-15_13h31.17.471,premceCat2_ses-02_part-02_label-phase2,2020.2.10,Win32,60,,,,,,,,,0,127,127,73,1,stimuli/objects/baseballglove.jpg,left,old,217,,,,,,,,,,,,,,,
,,,,,,,,14,2021-05-15_13h31.17.471,premceCat2_ses-02_part-02_label-phase2,2020.2.10,Win32,60,,,,,right,1.133355,3,0.65591,0,128,128,82,1,stimuli/objects/shopvac.jpg,right,new,226,,,,,,,,,,,,,,,
,,,,,,,,14,2021-05-15_13h31.17.471,premceCat2_ses-02_part-02_label-phase2,2020.2.10,Win32,60,,,,,left,0.95455,4,0.5468,,,,,,,,,,left,2.495365,0,0,0,0,1,,,,,,,,
,,,,,,,,14,2021-05-15_13h31.17.471,premceCat2_ses-02_part-02_label-phase2,2020.2.10,Win32,60,,,,,,,,,0,129,129,134,1,stimuli/objects/carantenna.jpg,left,old,278,,,,,,,,,,,,,,,
,,,,,,,,14,2021-05-15_13h31.17.471,premceCat2_ses-02_part-02_label-phase2,2020.2.10,Win32,60,,,,,left,1.040845,4,0.81831,,,,,,,,,,right,0.33341,0,0,0,0,1,,,,,,,,
,,,,,,,,14,2021-05-15_13h31.17.471,premceCat2_ses-02_part-02_label-phase2,2020.2.10,Win32,60,,,,,,,,,0,130,130,22,1,stimuli/objects/paintroller01.jpg,left,old,166,,,,,,,,,,,,,,,
,,,,,,,,14,2021-05-15_13h31.17.471,premceCat2_ses-02_part-02_label-phase2,2020.2.10,Win32,60,,,,,left,1.06579,4,0.45315,,,,,,,,,,right,0.307015,0,0,0,0,1,,,,,,,,
,,,,,,,,14,2021-05-15_13h31.17.471,premceCat2_ses-02_part-02_label-phase2,2020.2.10,Win32,60,,,,,,,,,0,131,131,52,1,stimuli/objects/securitycamera.jpg,left,old,196,,,,,,,,,,,,,,,
,,,,,,,,14,2021-05-15_13h31.17.471,premceCat2_ses-02_part-02_label-phase2,2020.2.10,Win32,60,,,,,right,1.575675,2,0.231045,0,132,132,122,1,stimuli/objects/hockeystick.jpg,right,new,266,,,,,,,,,,,,,,,
,,,,,,,,14,2021-05-15_13h31.17.471,premceCat2_ses-02_part-02_label-phase2,2020.2.10,Win32,60,,,,,left,2.21001,3,0.33081,,,,,,,,,,left,0.824035,0,0,0,0,1,,,,,,,,
,,,,,,,,14,2021-05-15_13h31.17.471,premceCat2_ses-02_part-02_label-phase2,2020.2.10,Win32,60,,,,,,,,,0,133,133,17,1,stimuli/objects/backpack01a.jpg,left,old,161,,,,,,,,,,,,,,,
,,,,,,,,14,2021-05-15_13h31.17.471,premceCat2_ses-02_part-02_label-phase2,2020.2.10,Win32,60,,,,,left,0.814075,3,0.31673,,,,,,,,,,left,0.207065,0,0,0,0,1,,,,,,,,
,,,,,,,,14,2021-05-15_13h31.17.471,premceCat2_ses-02_part-02_label-phase2,2020.2.10,Win32,60,,,,,,,,,0,134,134,58,1,stimuli/objects/volleyball.jpg,left,old,202,,,,,,,,,,,,,,,
,,,,,,,,14,2021-05-15_13h31.17.471,premceCat2_ses-02_part-02_label-phase2,2020.2.10,Win32,60,,,,,right,1.15564,4,0.158955,0,135,135,59,1,stimuli/objects/speedball.jpg,right,new,203,,,,,,,,,,,,,,,
,,,,,,,,14,2021-05-15_13h31.17.471,premceCat2_ses-02_part-02_label-phase2,2020.2.10,Win32,60,,,,,right,1.74959,3,0.234935,0,136,136,40,1,stimuli/objects/tablesaw.jpg,right,new,184,,,,,,,,,,,,,,,
,,,,,,,,14,2021-05-15_13h31.17.471,premceCat2_ses-02_part-02_label-phase2,2020.2.10,Win32,60,,,,,right,1.015335,4,0.20048,0,137,137,137,1,stimuli/objects/nutcracker01.jpg,right,new,281,,,,,,,,,,,,,,,
,,,,,,,,14,2021-05-15_13h31.17.471,premceCat2_ses-02_part-02_label-phase2,2020.2.10,Win32,60,,,,,left,1.70145,2,0.247895,,,,,,,,,,right,0.50189,0,0,0,0,1,,,,,,,,
,,,,,,,,14,2021-05-15_13h31.17.471,premceCat2_ses-02_part-02_label-phase2,2020.2.10,Win32,60,,,,,,,,,0,138,138,114,1,stimuli/objects/drinkshaker.jpg,right,new,258,,,,,,,,,,,,,,,
,,,,,,,,14,2021-05-15_13h31.17.471,premceCat2_ses-02_part-02_label-phase2,2020.2.10,Win32,60,,,,,right,1.08492,4,0.1649,0,139,139,39,1,stimuli/objects/wafflemaker.jpg,right,new,183,,,,,,,,,,,,,,,
,,,,,,,,14,2021-05-15_13h31.17.471,premceCat2_ses-02_part-02_label-phase2,2020.2.10,Win32,60,,,,,right,1.671415,3,0.233225,0,140,140,142,1,stimuli/objects/needlenosepliers01.jpg,right,new,286,,,,,,,,,,,,,,,
,,,,,,,,14,2021-05-15_13h31.17.471,premceCat2_ses-02_part-02_label-phase2,2020.2.10,Win32,60,,,,,left,1.449405,4,0.38064,,,,,,,,,,right,2.116905,0,0,0,0,1,,,,,,,,
,,,,,,,,14,2021-05-15_13h31.17.471,premceCat2_ses-02_part-02_label-phase2,2020.2.10,Win32,60,,,,,,,,,0,141,141,112,1,stimuli/objects/slidetray.jpg,left,old,256,,,,,,,,,,,,,,,
,,,,,,,,14,2021-05-15_13h31.17.471,premceCat2_ses-02_part-02_label-phase2,2020.2.10,Win32,60,,,,,right,1.53958,3,0.446595,0,142,142,95,1,stimuli/objects/tennisball01b.jpg,right,new,239,,,,,,,,,,,,,,,
,,,,,,,,14,2021-05-15_13h31.17.471,premceCat2_ses-02_part-02_label-phase2,2020.2.10,Win32,60,,,,,,,,,,,,,,,,,,,,,,,,,space,6.773755,0,1,1,1,1,condition_files/ImagesforRecog3_2.csv
