instructions_loop.thisRepN,instructions_loop.thisTrialN,instructions_loop.thisN,instructions_loop.thisIndex,instructions_loop.ran,text1,text2,text3,participant,date,expName,psychopyVersion,OS,frameRate,key_resp_2.keys,key_resp_2.rt,key_resp_3.keys,key_resp_3.rt,recog_resp.keys,recog_resp.rt,conf_resp.keys,conf_resp.rt,resp_assoc.keys,resp_assoc.rt,assoc_loop.thisRepN,assoc_loop.thisTrialN,assoc_loop.thisN,assoc_loop.thisIndex,assoc_loop.ran,recog_loop.thisRepN,recog_loop.thisTrialN,recog_loop.thisN,recog_loop.thisIndex,recog_loop.ran,images,corr_ans,type,order,key_resp_break.keys,key_resp_break.rt,list_loop.thisRepN,list_loop.thisTrialN,list_loop.thisN,list_loop.thisIndex,list_loop.ran,recog_list
0,0,0,0,1,Welcome to the last phase of this experiment!,.,Please press the space bar to continue,15,2021-05-05_15h30.04.526,premceCat2_ses-02_part-02_label-phase2,2020.2.10,MacIntel,60,,,,,,,,,,,,,,,,,,,,,,,,,,,,,,,,
0,1,1,1,1,.,"In this phase, you will see some objects. 

For each object, you should indicate whether you have seen it before during the experiment.

Press LEFT ARROW for YES
Press RIGHT ARROW for NO

",Please press the space bar to continue ,15,2021-05-05_15h30.04.526,premceCat2_ses-02_part-02_label-phase2,2020.2.10,MacIntel,60,,,,,,,,,,,,,,,,,,,,,,,,,,,,,,,,
0,2,2,2,1,.,"After that, you will be asked how confident you are of your choice.

Please rate the confidence in your choice with the numbers from 1 to 4 of your keyboard. 

The numbers correspond to:

1 = Very unsure
2 = Unsure
3 = Sure
4 = Very Sure",Please press the space bar to continue,15,2021-05-05_15h30.04.526,premceCat2_ses-02_part-02_label-phase2,2020.2.10,MacIntel,60,,,,,,,,,,,,,,,,,,,,,,,,,,,,,,,,
,,,,,,,,15,2021-05-05_15h30.04.526,premceCat2_ses-02_part-02_label-phase2,2020.2.10,MacIntel,60,space,8.839715,space,12.132815,left,2.493125,4,1.470975,left,6.613995,0,0,0,0,1,,,,,,,,,,,,,,,,,
,,,,,,,,15,2021-05-05_15h30.04.526,premceCat2_ses-02_part-02_label-phase2,2020.2.10,MacIntel,60,,,,,,,,,,,,,,,,0,0,0,15,1,stimuli/objects/watercooler.jpg,left,old,16,,,,,,,,
,,,,,,,,15,2021-05-05_15h30.04.526,premceCat2_ses-02_part-02_label-phase2,2020.2.10,MacIntel,60,,,,,right,1.76853,3,2.006345,,,,,,,,0,1,1,9,1,stimuli/objects/measuringtape01.jpg,right,new,10,,,,,,,,
,,,,,,,,15,2021-05-05_15h30.04.526,premceCat2_ses-02_part-02_label-phase2,2020.2.10,MacIntel,60,,,,,right,4.454805,2,2.55621,,,,,,,,0,2,2,73,1,stimuli/objects/clock01a.jpg,right,new,74,,,,,,,,
,,,,,,,,15,2021-05-05_15h30.04.526,premceCat2_ses-02_part-02_label-phase2,2020.2.10,MacIntel,60,,,,,left,1.852885,4,1.07451,right,2.33418,0,0,0,0,1,,,,,,,,,,,,,,,,,
,,,,,,,,15,2021-05-05_15h30.04.526,premceCat2_ses-02_part-02_label-phase2,2020.2.10,MacIntel,60,,,,,,,,,,,,,,,,0,3,3,0,1,stimuli/objects/ethernetcable02.jpg,left,old,1,,,,,,,,
,,,,,,,,15,2021-05-05_15h30.04.526,premceCat2_ses-02_part-02_label-phase2,2020.2.10,MacIntel,60,,,,,left,1.26841,4,1.448775,left,1.754665,0,0,0,0,1,,,,,,,,,,,,,,,,,
,,,,,,,,15,2021-05-05_15h30.04.526,premceCat2_ses-02_part-02_label-phase2,2020.2.10,MacIntel,60,,,,,,,,,,,,,,,,0,4,4,129,1,stimuli/objects/cleaver01.jpg,left,old,130,,,,,,,,
,,,,,,,,15,2021-05-05_15h30.04.526,premceCat2_ses-02_part-02_label-phase2,2020.2.10,MacIntel,60,,,,,left,2.00301,2,1.367215,left,1.67493,0,0,0,0,1,,,,,,,,,,,,,,,,,
,,,,,,,,15,2021-05-05_15h30.04.526,premceCat2_ses-02_part-02_label-phase2,2020.2.10,MacIntel,60,,,,,,,,,,,,,,,,0,5,5,130,1,stimuli/objects/soccerball.jpg,left,old,131,,,,,,,,
,,,,,,,,15,2021-05-05_15h30.04.526,premceCat2_ses-02_part-02_label-phase2,2020.2.10,MacIntel,60,,,,,left,2.22268,4,0.707415,right,1.673305,0,0,0,0,1,,,,,,,,,,,,,,,,,
,,,,,,,,15,2021-05-05_15h30.04.526,premceCat2_ses-02_part-02_label-phase2,2020.2.10,MacIntel,60,,,,,,,,,,,,,,,,0,6,6,101,1,stimuli/objects/chandelier.jpg,left,old,102,,,,,,,,
,,,,,,,,15,2021-05-05_15h30.04.526,premceCat2_ses-02_part-02_label-phase2,2020.2.10,MacIntel,60,,,,,left,1.355385,4,0.94093,right,1.95572,0,0,0,0,1,,,,,,,,,,,,,,,,,
,,,,,,,,15,2021-05-05_15h30.04.526,premceCat2_ses-02_part-02_label-phase2,2020.2.10,MacIntel,60,,,,,,,,,,,,,,,,0,7,7,48,1,stimuli/objects/breadknife.jpg,left,old,49,,,,,,,,
,,,,,,,,15,2021-05-05_15h30.04.526,premceCat2_ses-02_part-02_label-phase2,2020.2.10,MacIntel,60,,,,,left,2.32177,3,0.725965,right,0.80531,0,0,0,0,1,,,,,,,,,,,,,,,,,
,,,,,,,,15,2021-05-05_15h30.04.526,premceCat2_ses-02_part-02_label-phase2,2020.2.10,MacIntel,60,,,,,,,,,,,,,,,,0,8,8,79,1,stimuli/objects/dvdplayer.jpg,left,old,80,,,,,,,,
,,,,,,,,15,2021-05-05_15h30.04.526,premceCat2_ses-02_part-02_label-phase2,2020.2.10,MacIntel,60,,,,,left,1.30466,3,0.621795,right,1.889005,0,0,0,0,1,,,,,,,,,,,,,,,,,
,,,,,,,,15,2021-05-05_15h30.04.526,premceCat2_ses-02_part-02_label-phase2,2020.2.10,MacIntel,60,,,,,,,,,,,,,,,,0,9,9,77,1,stimuli/objects/headphones02b.jpg,left,old,78,,,,,,,,
,,,,,,,,15,2021-05-05_15h30.04.526,premceCat2_ses-02_part-02_label-phase2,2020.2.10,MacIntel,60,,,,,left,1.31952,4,0.706395,left,1.556475,0,0,0,0,1,,,,,,,,,,,,,,,,,
,,,,,,,,15,2021-05-05_15h30.04.526,premceCat2_ses-02_part-02_label-phase2,2020.2.10,MacIntel,60,,,,,,,,,,,,,,,,0,10,10,107,1,stimuli/objects/canister.jpg,left,old,108,,,,,,,,
,,,,,,,,15,2021-05-05_15h30.04.526,premceCat2_ses-02_part-02_label-phase2,2020.2.10,MacIntel,60,,,,,right,2.056875,3,1.45776,,,,,,,,0,11,11,20,1,stimuli/objects/laptop01a.jpg,right,new,21,,,,,,,,
,,,,,,,,15,2021-05-05_15h30.04.526,premceCat2_ses-02_part-02_label-phase2,2020.2.10,MacIntel,60,,,,,left,1.94378,4,1.439845,left,1.416325,0,0,0,0,1,,,,,,,,,,,,,,,,,
,,,,,,,,15,2021-05-05_15h30.04.526,premceCat2_ses-02_part-02_label-phase2,2020.2.10,MacIntel,60,,,,,,,,,,,,,,,,0,12,12,64,1,stimuli/objects/knifesharpener.jpg,left,old,65,,,,,,,,
,,,,,,,,15,2021-05-05_15h30.04.526,premceCat2_ses-02_part-02_label-phase2,2020.2.10,MacIntel,60,,,,,right,1.871925,3,0.83978,,,,,,,,0,13,13,92,1,stimuli/objects/carjack.jpg,right,new,93,,,,,,,,
,,,,,,,,15,2021-05-05_15h30.04.526,premceCat2_ses-02_part-02_label-phase2,2020.2.10,MacIntel,60,,,,,right,1.50603,3,1.38912,,,,,,,,0,14,14,96,1,stimuli/objects/golfbag.jpg,right,new,97,,,,,,,,
,,,,,,,,15,2021-05-05_15h30.04.526,premceCat2_ses-02_part-02_label-phase2,2020.2.10,MacIntel,60,,,,,left,1.137755,4,0.45069,left,1.774055,0,0,0,0,1,,,,,,,,,,,,,,,,,
,,,,,,,,15,2021-05-05_15h30.04.526,premceCat2_ses-02_part-02_label-phase2,2020.2.10,MacIntel,60,,,,,,,,,,,,,,,,0,15,15,132,1,stimuli/objects/djmixer02.jpg,left,old,133,,,,,,,,
,,,,,,,,15,2021-05-05_15h30.04.526,premceCat2_ses-02_part-02_label-phase2,2020.2.10,MacIntel,60,,,,,left,1.137495,4,0.954865,right,1.454295,0,0,0,0,1,,,,,,,,,,,,,,,,,
,,,,,,,,15,2021-05-05_15h30.04.526,premceCat2_ses-02_part-02_label-phase2,2020.2.10,MacIntel,60,,,,,,,,,,,,,,,,0,16,16,103,1,stimuli/objects/towel01.jpg,left,old,104,,,,,,,,
,,,,,,,,15,2021-05-05_15h30.04.526,premceCat2_ses-02_part-02_label-phase2,2020.2.10,MacIntel,60,,,,,right,2.286565,2,0.99043,,,,,,,,0,17,17,72,1,stimuli/objects/cclamp.jpg,right,new,73,,,,,,,,
,,,,,,,,15,2021-05-05_15h30.04.526,premceCat2_ses-02_part-02_label-phase2,2020.2.10,MacIntel,60,,,,,left,1.60813,2,1.69064,right,1.221155,0,0,0,0,1,,,,,,,,,,,,,,,,,
,,,,,,,,15,2021-05-05_15h30.04.526,premceCat2_ses-02_part-02_label-phase2,2020.2.10,MacIntel,60,,,,,,,,,,,,,,,,0,18,18,57,1,stimuli/objects/audiocablesplitter.jpg,right,new,58,,,,,,,,
,,,,,,,,15,2021-05-05_15h30.04.526,premceCat2_ses-02_part-02_label-phase2,2020.2.10,MacIntel,60,,,,,left,0.902445,4,0.90569,left,1.40809,0,0,0,0,1,,,,,,,,,,,,,,,,,
,,,,,,,,15,2021-05-05_15h30.04.526,premceCat2_ses-02_part-02_label-phase2,2020.2.10,MacIntel,60,,,,,,,,,,,,,,,,0,19,19,69,1,stimuli/objects/atm.jpg,left,old,70,,,,,,,,
,,,,,,,,15,2021-05-05_15h30.04.526,premceCat2_ses-02_part-02_label-phase2,2020.2.10,MacIntel,60,,,,,left,1.22161,4,1.451205,left,1.0566,0,0,0,0,1,,,,,,,,,,,,,,,,,
,,,,,,,,15,2021-05-05_15h30.04.526,premceCat2_ses-02_part-02_label-phase2,2020.2.10,MacIntel,60,,,,,,,,,,,,,,,,0,20,20,62,1,stimuli/objects/potatomasher03b.jpg,left,old,63,,,,,,,,
,,,,,,,,15,2021-05-05_15h30.04.526,premceCat2_ses-02_part-02_label-phase2,2020.2.10,MacIntel,60,,,,,right,1.409925,3,1.156975,,,,,,,,0,21,21,105,1,stimuli/objects/videocamera01a.jpg,left,old,106,,,,,,,,
,,,,,,,,15,2021-05-05_15h30.04.526,premceCat2_ses-02_part-02_label-phase2,2020.2.10,MacIntel,60,,,,,right,1.841575,4,1.05697,,,,,,,,0,22,22,54,1,stimuli/objects/pda.jpg,right,new,55,,,,,,,,
,,,,,,,,15,2021-05-05_15h30.04.526,premceCat2_ses-02_part-02_label-phase2,2020.2.10,MacIntel,60,,,,,left,1.25618,4,0.8235,right,0.41882,0,0,0,0,1,,,,,,,,,,,,,,,,,
,,,,,,,,15,2021-05-05_15h30.04.526,premceCat2_ses-02_part-02_label-phase2,2020.2.10,MacIntel,60,,,,,,,,,,,,,,,,0,23,23,95,1,stimuli/objects/lectern01.jpg,left,old,96,,,,,,,,
,,,,,,,,15,2021-05-05_15h30.04.526,premceCat2_ses-02_part-02_label-phase2,2020.2.10,MacIntel,60,,,,,right,12.12692,2,1.65713,,,,,,,,0,24,24,39,1,stimuli/objects/sippycup.jpg,right,new,40,,,,,,,,
,,,,,,,,15,2021-05-05_15h30.04.526,premceCat2_ses-02_part-02_label-phase2,2020.2.10,MacIntel,60,,,,,right,1.354765,4,0.83933,,,,,,,,0,25,25,8,1,stimuli/objects/basketballhoop01.jpg,right,new,9,,,,,,,,
,,,,,,,,15,2021-05-05_15h30.04.526,premceCat2_ses-02_part-02_label-phase2,2020.2.10,MacIntel,60,,,,,left,1.03904,4,0.42467,left,4.30856,0,0,0,0,1,,,,,,,,,,,,,,,,,
,,,,,,,,15,2021-05-05_15h30.04.526,premceCat2_ses-02_part-02_label-phase2,2020.2.10,MacIntel,60,,,,,,,,,,,,,,,,0,26,26,98,1,stimuli/objects/handgripper.jpg,left,old,99,,,,,,,,
,,,,,,,,15,2021-05-05_15h30.04.526,premceCat2_ses-02_part-02_label-phase2,2020.2.10,MacIntel,60,,,,,right,1.28562,4,0.766855,,,,,,,,0,27,27,139,1,stimuli/objects/frisbee.jpg,right,new,140,,,,,,,,
,,,,,,,,15,2021-05-05_15h30.04.526,premceCat2_ses-02_part-02_label-phase2,2020.2.10,MacIntel,60,,,,,right,1.671585,4,0.448975,,,,,,,,0,28,28,133,1,stimuli/objects/icebucket.jpg,right,new,134,,,,,,,,
,,,,,,,,15,2021-05-05_15h30.04.526,premceCat2_ses-02_part-02_label-phase2,2020.2.10,MacIntel,60,,,,,left,1.504645,3,1.641,left,1.65591,0,0,0,0,1,,,,,,,,,,,,,,,,,
,,,,,,,,15,2021-05-05_15h30.04.526,premceCat2_ses-02_part-02_label-phase2,2020.2.10,MacIntel,60,,,,,,,,,,,,,,,,0,29,29,106,1,stimuli/objects/minifridge.jpg,right,new,107,,,,,,,,
,,,,,,,,15,2021-05-05_15h30.04.526,premceCat2_ses-02_part-02_label-phase2,2020.2.10,MacIntel,60,,,,,right,2.17196,2,0.539615,,,,,,,,0,30,30,40,1,stimuli/objects/wateringcan.jpg,left,old,41,,,,,,,,
,,,,,,,,15,2021-05-05_15h30.04.526,premceCat2_ses-02_part-02_label-phase2,2020.2.10,MacIntel,60,,,,,right,4.9568,1,0.472235,,,,,,,,0,31,31,63,1,stimuli/objects/butterdish.jpg,right,new,64,,,,,,,,
,,,,,,,,15,2021-05-05_15h30.04.526,premceCat2_ses-02_part-02_label-phase2,2020.2.10,MacIntel,60,,,,,left,0.838665,4,0.45776,right,0.624755,0,0,0,0,1,,,,,,,,,,,,,,,,,
,,,,,,,,15,2021-05-05_15h30.04.526,premceCat2_ses-02_part-02_label-phase2,2020.2.10,MacIntel,60,,,,,,,,,,,,,,,,0,32,32,127,1,stimuli/objects/badmintonracket.jpg,left,old,128,,,,,,,,
,,,,,,,,15,2021-05-05_15h30.04.526,premceCat2_ses-02_part-02_label-phase2,2020.2.10,MacIntel,60,,,,,left,2.205435,2,0.55566,left,2.972765,0,0,0,0,1,,,,,,,,,,,,,,,,,
,,,,,,,,15,2021-05-05_15h30.04.526,premceCat2_ses-02_part-02_label-phase2,2020.2.10,MacIntel,60,,,,,,,,,,,,,,,,0,33,33,24,1,stimuli/objects/skateboard.jpg,right,new,25,,,,,,,,
,,,,,,,,15,2021-05-05_15h30.04.526,premceCat2_ses-02_part-02_label-phase2,2020.2.10,MacIntel,60,,,,,left,1.70389,4,0.539955,left,1.73339,0,0,0,0,1,,,,,,,,,,,,,,,,,
,,,,,,,,15,2021-05-05_15h30.04.526,premceCat2_ses-02_part-02_label-phase2,2020.2.10,MacIntel,60,,,,,,,,,,,,,,,,0,34,34,89,1,stimuli/objects/ducttape.jpg,right,new,90,,,,,,,,
,,,,,,,,15,2021-05-05_15h30.04.526,premceCat2_ses-02_part-02_label-phase2,2020.2.10,MacIntel,60,,,,,right,2.77201,2,0.374235,,,,,,,,0,35,35,93,1,stimuli/objects/icepack.jpg,right,new,94,,,,,,,,
,,,,,,,,15,2021-05-05_15h30.04.526,premceCat2_ses-02_part-02_label-phase2,2020.2.10,MacIntel,60,,,,,right,1.371905,3,0.669505,,,,,,,,0,36,36,55,1,stimuli/objects/toolbox02.jpg,right,new,56,,,,,,,,
,,,,,,,,15,2021-05-05_15h30.04.526,premceCat2_ses-02_part-02_label-phase2,2020.2.10,MacIntel,60,,,,,right,1.740245,3,0.425315,,,,,,,,0,37,37,46,1,stimuli/objects/walkman.jpg,right,new,47,,,,,,,,
,,,,,,,,15,2021-05-05_15h30.04.526,premceCat2_ses-02_part-02_label-phase2,2020.2.10,MacIntel,60,,,,,right,3.57038,2,0.589315,,,,,,,,0,38,38,14,1,stimuli/objects/wheelbarrow01.jpg,left,old,15,,,,,,,,
,,,,,,,,15,2021-05-05_15h30.04.526,premceCat2_ses-02_part-02_label-phase2,2020.2.10,MacIntel,60,,,,,right,1.654485,3,0.63814,,,,,,,,0,39,39,86,1,stimuli/objects/toasteroven.jpg,right,new,87,,,,,,,,
,,,,,,,,15,2021-05-05_15h30.04.526,premceCat2_ses-02_part-02_label-phase2,2020.2.10,MacIntel,60,,,,,right,0.73572,4,0.339455,,,,,,,,0,40,40,76,1,stimuli/objects/megaphone.jpg,right,new,77,,,,,,,,
,,,,,,,,15,2021-05-05_15h30.04.526,premceCat2_ses-02_part-02_label-phase2,2020.2.10,MacIntel,60,,,,,left,1.200665,4,0.406275,right,1.45548,0,0,0,0,1,,,,,,,,,,,,,,,,,
,,,,,,,,15,2021-05-05_15h30.04.526,premceCat2_ses-02_part-02_label-phase2,2020.2.10,MacIntel,60,,,,,,,,,,,,,,,,0,41,41,135,1,stimuli/objects/pressurewasher.jpg,left,old,136,,,,,,,,
,,,,,,,,15,2021-05-05_15h30.04.526,premceCat2_ses-02_part-02_label-phase2,2020.2.10,MacIntel,60,,,,,left,1.01785,4,0.37383,left,1.655945,0,0,0,0,1,,,,,,,,,,,,,,,,,
,,,,,,,,15,2021-05-05_15h30.04.526,premceCat2_ses-02_part-02_label-phase2,2020.2.10,MacIntel,60,,,,,,,,,,,,,,,,0,42,42,10,1,stimuli/objects/dvdcase01.jpg,left,old,11,,,,,,,,
,,,,,,,,15,2021-05-05_15h30.04.526,premceCat2_ses-02_part-02_label-phase2,2020.2.10,MacIntel,60,,,,,left,3.067105,1,1.64085,left,1.014875,0,0,0,0,1,,,,,,,,,,,,,,,,,
,,,,,,,,15,2021-05-05_15h30.04.526,premceCat2_ses-02_part-02_label-phase2,2020.2.10,MacIntel,60,,,,,,,,,,,,,,,,0,43,43,88,1,stimuli/objects/measuringcup01.jpg,left,old,89,,,,,,,,
,,,,,,,,15,2021-05-05_15h30.04.526,premceCat2_ses-02_part-02_label-phase2,2020.2.10,MacIntel,60,,,,,left,1.068095,4,1.489665,right,0.47206,0,0,0,0,1,,,,,,,,,,,,,,,,,
,,,,,,,,15,2021-05-05_15h30.04.526,premceCat2_ses-02_part-02_label-phase2,2020.2.10,MacIntel,60,,,,,,,,,,,,,,,,0,44,44,104,1,stimuli/objects/carantenna.jpg,left,old,105,,,,,,,,
,,,,,,,,15,2021-05-05_15h30.04.526,premceCat2_ses-02_part-02_label-phase2,2020.2.10,MacIntel,60,,,,,left,0.969055,3,0.389505,right,0.46565,0,0,0,0,1,,,,,,,,,,,,,,,,,
,,,,,,,,15,2021-05-05_15h30.04.526,premceCat2_ses-02_part-02_label-phase2,2020.2.10,MacIntel,60,,,,,,,,,,,,,,,,0,45,45,81,1,stimuli/objects/avcable.jpg,right,new,82,,,,,,,,
,,,,,,,,15,2021-05-05_15h30.04.526,premceCat2_ses-02_part-02_label-phase2,2020.2.10,MacIntel,60,,,,,left,1.485925,3,0.10706,left,0.92363,0,0,0,0,1,,,,,,,,,,,,,,,,,
,,,,,,,,15,2021-05-05_15h30.04.526,premceCat2_ses-02_part-02_label-phase2,2020.2.10,MacIntel,60,,,,,,,,,,,,,,,,0,46,46,34,1,stimuli/objects/hockeygoaliemask.jpg,left,old,35,,,,,,,,
,,,,,,,,15,2021-05-05_15h30.04.526,premceCat2_ses-02_part-02_label-phase2,2020.2.10,MacIntel,60,,,,,right,1.78401,2,0.57602,,,,,,,,0,47,47,83,1,stimuli/objects/kitchenscale01a.jpg,right,new,84,,,,,,,,
,,,,,,,,15,2021-05-05_15h30.04.526,premceCat2_ses-02_part-02_label-phase2,2020.2.10,MacIntel,60,,,,,left,1.019805,2,1.259665,left,1.889465,0,0,0,0,1,,,,,,,,,,,,,,,,,
,,,,,,,,15,2021-05-05_15h30.04.526,premceCat2_ses-02_part-02_label-phase2,2020.2.10,MacIntel,60,,,,,,,,,,,,,,,,0,48,48,44,1,stimuli/objects/pliers02b.jpg,left,old,45,,,,,,,,
,,,,,,,,15,2021-05-05_15h30.04.526,premceCat2_ses-02_part-02_label-phase2,2020.2.10,MacIntel,60,,,,,left,1.200755,3,1.25626,right,1.105995,0,0,0,0,1,,,,,,,,,,,,,,,,,
,,,,,,,,15,2021-05-05_15h30.04.526,premceCat2_ses-02_part-02_label-phase2,2020.2.10,MacIntel,60,,,,,,,,,,,,,,,,0,49,49,113,1,stimuli/objects/powercable.jpg,right,new,114,,,,,,,,
,,,,,,,,15,2021-05-05_15h30.04.526,premceCat2_ses-02_part-02_label-phase2,2020.2.10,MacIntel,60,,,,,left,2.334805,3,0.873485,right,0.52252,0,0,0,0,1,,,,,,,,,,,,,,,,,
,,,,,,,,15,2021-05-05_15h30.04.526,premceCat2_ses-02_part-02_label-phase2,2020.2.10,MacIntel,60,,,,,,,,,,,,,,,,0,50,50,1,1,stimuli/objects/photocopier.jpg,left,old,2,,,,,,,,
,,,,,,,,15,2021-05-05_15h30.04.526,premceCat2_ses-02_part-02_label-phase2,2020.2.10,MacIntel,60,,,,,right,1.319825,3,0.55911,,,,,,,,0,51,51,19,1,stimuli/objects/peppermill02b.jpg,right,new,20,,,,,,,,
,,,,,,,,15,2021-05-05_15h30.04.526,premceCat2_ses-02_part-02_label-phase2,2020.2.10,MacIntel,60,,,,,left,0.92082,3,1.876015,left,1.930675,0,0,0,0,1,,,,,,,,,,,,,,,,,
,,,,,,,,15,2021-05-05_15h30.04.526,premceCat2_ses-02_part-02_label-phase2,2020.2.10,MacIntel,60,,,,,,,,,,,,,,,,0,52,52,87,1,stimuli/objects/fluorescentlightbulb.jpg,left,old,88,,,,,,,,
,,,,,,,,15,2021-05-05_15h30.04.526,premceCat2_ses-02_part-02_label-phase2,2020.2.10,MacIntel,60,,,,,right,1.233015,4,0.316685,,,,,,,,0,53,53,51,1,stimuli/objects/webcam.jpg,right,new,52,,,,,,,,
,,,,,,,,15,2021-05-05_15h30.04.526,premceCat2_ses-02_part-02_label-phase2,2020.2.10,MacIntel,60,,,,,left,2.187455,2,0.45577,left,0.76966,0,0,0,0,1,,,,,,,,,,,,,,,,,
,,,,,,,,15,2021-05-05_15h30.04.526,premceCat2_ses-02_part-02_label-phase2,2020.2.10,MacIntel,60,,,,,,,,,,,,,,,,0,54,54,78,1,stimuli/objects/tupperware03a.jpg,left,old,79,,,,,,,,
,,,,,,,,15,2021-05-05_15h30.04.526,premceCat2_ses-02_part-02_label-phase2,2020.2.10,MacIntel,60,,,,,left,2.75374,1,0.391285,left,0.3718,0,0,0,0,1,,,,,,,,,,,,,,,,,
,,,,,,,,15,2021-05-05_15h30.04.526,premceCat2_ses-02_part-02_label-phase2,2020.2.10,MacIntel,60,,,,,,,,,,,,,,,,0,55,55,126,1,stimuli/objects/tableknife02.jpg,right,new,127,,,,,,,,
,,,,,,,,15,2021-05-05_15h30.04.526,premceCat2_ses-02_part-02_label-phase2,2020.2.10,MacIntel,60,,,,,left,1.818295,2,0.89367,right,1.022165,0,0,0,0,1,,,,,,,,,,,,,,,,,
,,,,,,,,15,2021-05-05_15h30.04.526,premceCat2_ses-02_part-02_label-phase2,2020.2.10,MacIntel,60,,,,,,,,,,,,,,,,0,56,56,117,1,stimuli/objects/videotape01b.jpg,right,new,118,,,,,,,,
,,,,,,,,15,2021-05-05_15h30.04.526,premceCat2_ses-02_part-02_label-phase2,2020.2.10,MacIntel,60,,,,,left,1.169325,4,0.73897,left,2.255775,0,0,0,0,1,,,,,,,,,,,,,,,,,
,,,,,,,,15,2021-05-05_15h30.04.526,premceCat2_ses-02_part-02_label-phase2,2020.2.10,MacIntel,60,,,,,,,,,,,,,,,,0,57,57,97,1,stimuli/objects/coffeemachine.jpg,left,old,98,,,,,,,,
,,,,,,,,15,2021-05-05_15h30.04.526,premceCat2_ses-02_part-02_label-phase2,2020.2.10,MacIntel,60,,,,,left,1.502745,2,0.55709,right,0.404695,0,0,0,0,1,,,,,,,,,,,,,,,,,
,,,,,,,,15,2021-05-05_15h30.04.526,premceCat2_ses-02_part-02_label-phase2,2020.2.10,MacIntel,60,,,,,,,,,,,,,,,,0,58,58,116,1,stimuli/objects/radio01.jpg,right,new,117,,,,,,,,
,,,,,,,,15,2021-05-05_15h30.04.526,premceCat2_ses-02_part-02_label-phase2,2020.2.10,MacIntel,60,,,,,right,1.488895,3,1.875245,,,,,,,,0,59,59,13,1,stimuli/objects/bastingbrush.jpg,right,new,14,,,,,,,,
,,,,,,,,15,2021-05-05_15h30.04.526,premceCat2_ses-02_part-02_label-phase2,2020.2.10,MacIntel,60,,,,,right,1.037065,3,0.351995,,,,,,,,0,60,60,111,1,stimuli/objects/speaker04.jpg,right,new,112,,,,,,,,
,,,,,,,,15,2021-05-05_15h30.04.526,premceCat2_ses-02_part-02_label-phase2,2020.2.10,MacIntel,60,,,,,right,2.40588,2,0.29311,,,,,,,,0,61,61,134,1,stimuli/objects/screwdriver04b.jpg,right,new,135,,,,,,,,
,,,,,,,,15,2021-05-05_15h30.04.526,premceCat2_ses-02_part-02_label-phase2,2020.2.10,MacIntel,60,,,,,left,0.801945,4,1.243815,left,0.47339,0,0,0,0,1,,,,,,,,,,,,,,,,,
,,,,,,,,15,2021-05-05_15h30.04.526,premceCat2_ses-02_part-02_label-phase2,2020.2.10,MacIntel,60,,,,,,,,,,,,,,,,0,62,62,142,1,stimuli/objects/spoon01.jpg,left,old,143,,,,,,,,
,,,,,,,,15,2021-05-05_15h30.04.526,premceCat2_ses-02_part-02_label-phase2,2020.2.10,MacIntel,60,,,,,right,1.60322,2,1.073705,,,,,,,,0,63,63,119,1,stimuli/objects/tongs01b.jpg,right,new,120,,,,,,,,
,,,,,,,,15,2021-05-05_15h30.04.526,premceCat2_ses-02_part-02_label-phase2,2020.2.10,MacIntel,60,,,,,left,2.070105,4,0.922425,left,0.77228,0,0,0,0,1,,,,,,,,,,,,,,,,,
,,,,,,,,15,2021-05-05_15h30.04.526,premceCat2_ses-02_part-02_label-phase2,2020.2.10,MacIntel,60,,,,,,,,,,,,,,,,0,64,64,11,1,stimuli/objects/telephone01b.jpg,left,old,12,,,,,,,,
,,,,,,,,15,2021-05-05_15h30.04.526,premceCat2_ses-02_part-02_label-phase2,2020.2.10,MacIntel,60,,,,,right,2.486675,2,0.538645,,,,,,,,0,65,65,94,1,stimuli/objects/electricmixer.jpg,right,new,95,,,,,,,,
,,,,,,,,15,2021-05-05_15h30.04.526,premceCat2_ses-02_part-02_label-phase2,2020.2.10,MacIntel,60,,,,,left,1.316615,4,0.90658,right,0.80423,0,0,0,0,1,,,,,,,,,,,,,,,,,
,,,,,,,,15,2021-05-05_15h30.04.526,premceCat2_ses-02_part-02_label-phase2,2020.2.10,MacIntel,60,,,,,,,,,,,,,,,,0,66,66,47,1,stimuli/objects/hoe.jpg,left,old,48,,,,,,,,
,,,,,,,,15,2021-05-05_15h30.04.526,premceCat2_ses-02_part-02_label-phase2,2020.2.10,MacIntel,60,,,,,right,2.31968,2,1.258705,,,,,,,,0,67,67,18,1,stimuli/objects/cashregister01.jpg,right,new,19,,,,,,,,
,,,,,,,,15,2021-05-05_15h30.04.526,premceCat2_ses-02_part-02_label-phase2,2020.2.10,MacIntel,60,,,,,right,1.12042,4,1.356245,,,,,,,,0,68,68,85,1,stimuli/objects/golfball.jpg,right,new,86,,,,,,,,
,,,,,,,,15,2021-05-05_15h30.04.526,premceCat2_ses-02_part-02_label-phase2,2020.2.10,MacIntel,60,,,,,left,1.09837,4,0.70695,left,2.22419,0,0,0,0,1,,,,,,,,,,,,,,,,,
,,,,,,,,15,2021-05-05_15h30.04.526,premceCat2_ses-02_part-02_label-phase2,2020.2.10,MacIntel,60,,,,,,,,,,,,,,,,0,69,69,49,1,stimuli/objects/volleyball.jpg,left,old,50,,,,,,,,
,,,,,,,,15,2021-05-05_15h30.04.526,premceCat2_ses-02_part-02_label-phase2,2020.2.10,MacIntel,60,,,,,right,1.534305,4,0.59058,,,,,,,,0,70,70,131,1,stimuli/objects/spotlight.jpg,right,new,132,,,,,,,,
,,,,,,,,15,2021-05-05_15h30.04.526,premceCat2_ses-02_part-02_label-phase2,2020.2.10,MacIntel,60,,,,,right,1.190005,4,0.406145,,,,,,,,0,71,71,108,1,stimuli/objects/metalscissors.jpg,right,new,109,,,,,,,,
,,,,,,,,15,2021-05-05_15h30.04.526,premceCat2_ses-02_part-02_label-phase2,2020.2.10,MacIntel,60,,,,,right,1.10498,3,2.371975,,,,,,,,0,72,72,141,1,stimuli/objects/generator.jpg,right,new,142,,,,,,,,
,,,,,,,,15,2021-05-05_15h30.04.526,premceCat2_ses-02_part-02_label-phase2,2020.2.10,MacIntel,60,,,,,left,1.97019,4,0.48922,right,2.324235,0,0,0,0,1,,,,,,,,,,,,,,,,,
,,,,,,,,15,2021-05-05_15h30.04.526,premceCat2_ses-02_part-02_label-phase2,2020.2.10,MacIntel,60,,,,,,,,,,,,,,,,0,73,73,56,1,stimuli/objects/thermos.jpg,left,old,57,,,,,,,,
,,,,,,,,15,2021-05-05_15h30.04.526,premceCat2_ses-02_part-02_label-phase2,2020.2.10,MacIntel,60,,,,,right,2.75231,2,0.473895,,,,,,,,0,74,74,66,1,stimuli/objects/nailgun.jpg,right,new,67,,,,,,,,
,,,,,,,,15,2021-05-05_15h30.04.526,premceCat2_ses-02_part-02_label-phase2,2020.2.10,MacIntel,60,,,,,left,1.30286,4,0.387855,right,4.535205,0,0,0,0,1,,,,,,,,,,,,,,,,,
,,,,,,,,15,2021-05-05_15h30.04.526,premceCat2_ses-02_part-02_label-phase2,2020.2.10,MacIntel,60,,,,,,,,,,,,,,,,0,75,75,31,1,stimuli/objects/mallet01b.jpg,left,old,32,,,,,,,,
,,,,,,,,15,2021-05-05_15h30.04.526,premceCat2_ses-02_part-02_label-phase2,2020.2.10,MacIntel,60,,,,,left,2.321865,3,0.439965,left,0.42157,0,0,0,0,1,,,,,,,,,,,,,,,,,
,,,,,,,,15,2021-05-05_15h30.04.526,premceCat2_ses-02_part-02_label-phase2,2020.2.10,MacIntel,60,,,,,,,,,,,,,,,,0,76,76,137,1,stimuli/objects/exercisebike.jpg,left,old,138,,,,,,,,
,,,,,,,,15,2021-05-05_15h30.04.526,premceCat2_ses-02_part-02_label-phase2,2020.2.10,MacIntel,60,,,,,right,1.10125,4,0.85779,,,,,,,,0,77,77,25,1,stimuli/objects/bowlingball.jpg,right,new,26,,,,,,,,
,,,,,,,,15,2021-05-05_15h30.04.526,premceCat2_ses-02_part-02_label-phase2,2020.2.10,MacIntel,60,,,,,right,1.22272,4,0.556735,,,,,,,,0,78,78,112,1,stimuli/objects/gymnasticring.jpg,right,new,113,,,,,,,,
,,,,,,,,15,2021-05-05_15h30.04.526,premceCat2_ses-02_part-02_label-phase2,2020.2.10,MacIntel,60,,,,,left,1.505445,2,0.971475,left,4.538915,0,0,0,0,1,,,,,,,,,,,,,,,,,
,,,,,,,,15,2021-05-05_15h30.04.526,premceCat2_ses-02_part-02_label-phase2,2020.2.10,MacIntel,60,,,,,,,,,,,,,,,,0,79,79,21,1,stimuli/objects/paintbrush01.jpg,right,new,22,,,,,,,,
,,,,,,,,15,2021-05-05_15h30.04.526,premceCat2_ses-02_part-02_label-phase2,2020.2.10,MacIntel,60,,,,,left,1.21611,4,1.17619,right,0.357495,0,0,0,0,1,,,,,,,,,,,,,,,,,
,,,,,,,,15,2021-05-05_15h30.04.526,premceCat2_ses-02_part-02_label-phase2,2020.2.10,MacIntel,60,,,,,,,,,,,,,,,,0,80,80,58,1,stimuli/objects/toyhardhat.jpg,left,old,59,,,,,,,,
,,,,,,,,15,2021-05-05_15h30.04.526,premceCat2_ses-02_part-02_label-phase2,2020.2.10,MacIntel,60,,,,,right,1.153705,4,0.318635,,,,,,,,0,81,81,110,1,stimuli/objects/lock03a.jpg,right,new,111,,,,,,,,
,,,,,,,,15,2021-05-05_15h30.04.526,premceCat2_ses-02_part-02_label-phase2,2020.2.10,MacIntel,60,,,,,right,1.20435,2,0.27268,,,,,,,,0,82,82,100,1,stimuli/objects/remotecontrol04.jpg,right,new,101,,,,,,,,
,,,,,,,,15,2021-05-05_15h30.04.526,premceCat2_ses-02_part-02_label-phase2,2020.2.10,MacIntel,60,,,,,right,1.73665,1,3.775885,,,,,,,,0,83,83,16,1,stimuli/objects/stubbywrench01a.jpg,left,old,17,,,,,,,,
,,,,,,,,15,2021-05-05_15h30.04.526,premceCat2_ses-02_part-02_label-phase2,2020.2.10,MacIntel,60,,,,,right,2.382435,1,0.57099,,,,,,,,0,84,84,38,1,stimuli/objects/soundmixer.jpg,right,new,39,,,,,,,,
,,,,,,,,15,2021-05-05_15h30.04.526,premceCat2_ses-02_part-02_label-phase2,2020.2.10,MacIntel,60,,,,,left,1.054285,4,0.48837,right,2.10463,0,0,0,0,1,,,,,,,,,,,,,,,,,
,,,,,,,,15,2021-05-05_15h30.04.526,premceCat2_ses-02_part-02_label-phase2,2020.2.10,MacIntel,60,,,,,,,,,,,,,,,,0,85,85,2,1,stimuli/objects/filmnegative.jpg,left,old,3,,,,,,,,
,,,,,,,,15,2021-05-05_15h30.04.526,premceCat2_ses-02_part-02_label-phase2,2020.2.10,MacIntel,60,,,,,left,1.16398,4,0.338295,right,0.315975,0,0,0,0,1,,,,,,,,,,,,,,,,,
,,,,,,,,15,2021-05-05_15h30.04.526,premceCat2_ses-02_part-02_label-phase2,2020.2.10,MacIntel,60,,,,,,,,,,,,,,,,0,86,86,102,1,stimuli/objects/propanetank01.jpg,left,old,103,,,,,,,,
,,,,,,,,15,2021-05-05_15h30.04.526,premceCat2_ses-02_part-02_label-phase2,2020.2.10,MacIntel,60,,,,,left,1.532195,4,0.555675,right,0.35807,0,0,0,0,1,,,,,,,,,,,,,,,,,
,,,,,,,,15,2021-05-05_15h30.04.526,premceCat2_ses-02_part-02_label-phase2,2020.2.10,MacIntel,60,,,,,,,,,,,,,,,,0,87,87,67,1,stimuli/objects/bikelock.jpg,left,old,68,,,,,,,,
,,,,,,,,15,2021-05-05_15h30.04.526,premceCat2_ses-02_part-02_label-phase2,2020.2.10,MacIntel,60,,,,,right,1.368845,4,0.287815,,,,,,,,0,88,88,17,1,stimuli/objects/exercisebench.jpg,right,new,18,,,,,,,,
,,,,,,,,15,2021-05-05_15h30.04.526,premceCat2_ses-02_part-02_label-phase2,2020.2.10,MacIntel,60,,,,,right,1.95359,2,0.40045,,,,,,,,0,89,89,23,1,stimuli/objects/football.jpg,right,new,24,,,,,,,,
,,,,,,,,15,2021-05-05_15h30.04.526,premceCat2_ses-02_part-02_label-phase2,2020.2.10,MacIntel,60,,,,,left,0.919905,4,0.238035,left,0.28825,0,0,0,0,1,,,,,,,,,,,,,,,,,
,,,,,,,,15,2021-05-05_15h30.04.526,premceCat2_ses-02_part-02_label-phase2,2020.2.10,MacIntel,60,,,,,,,,,,,,,,,,0,90,90,52,1,stimuli/objects/spatula04.jpg,left,old,53,,,,,,,,
,,,,,,,,15,2021-05-05_15h30.04.526,premceCat2_ses-02_part-02_label-phase2,2020.2.10,MacIntel,60,,,,,left,1.597585,4,0.30534,right,0.356895,0,0,0,0,1,,,,,,,,,,,,,,,,,
,,,,,,,,15,2021-05-05_15h30.04.526,premceCat2_ses-02_part-02_label-phase2,2020.2.10,MacIntel,60,,,,,,,,,,,,,,,,0,91,91,3,1,stimuli/objects/dishrack.jpg,left,old,4,,,,,,,,
,,,,,,,,15,2021-05-05_15h30.04.526,premceCat2_ses-02_part-02_label-phase2,2020.2.10,MacIntel,60,,,,,left,1.003165,4,0.756285,right,0.19841,0,0,0,0,1,,,,,,,,,,,,,,,,,
,,,,,,,,15,2021-05-05_15h30.04.526,premceCat2_ses-02_part-02_label-phase2,2020.2.10,MacIntel,60,,,,,,,,,,,,,,,,0,92,92,37,1,stimuli/objects/bungeecord02.jpg,left,old,38,,,,,,,,
,,,,,,,,15,2021-05-05_15h30.04.526,premceCat2_ses-02_part-02_label-phase2,2020.2.10,MacIntel,60,,,,,right,1.186825,4,0.30501,,,,,,,,0,93,93,109,1,stimuli/objects/winerack.jpg,right,new,110,,,,,,,,
,,,,,,,,15,2021-05-05_15h30.04.526,premceCat2_ses-02_part-02_label-phase2,2020.2.10,MacIntel,60,,,,,right,1.331555,3,0.28694,,,,,,,,0,94,94,125,1,stimuli/objects/shoulderpad.jpg,right,new,126,,,,,,,,
,,,,,,,,15,2021-05-05_15h30.04.526,premceCat2_ses-02_part-02_label-phase2,2020.2.10,MacIntel,60,,,,,left,1.168965,4,0.455,right,0.392135,0,0,0,0,1,,,,,,,,,,,,,,,,,
,,,,,,,,15,2021-05-05_15h30.04.526,premceCat2_ses-02_part-02_label-phase2,2020.2.10,MacIntel,60,,,,,,,,,,,,,,,,0,95,95,122,1,stimuli/objects/extensioncord.jpg,left,old,123,,,,,,,,
,,,,,,,,15,2021-05-05_15h30.04.526,premceCat2_ses-02_part-02_label-phase2,2020.2.10,MacIntel,60,,,,,right,1.9539,3,0.388465,,,,,,,,0,96,96,4,1,stimuli/objects/microphone01.jpg,right,new,5,,,,,,,,
,,,,,,,,15,2021-05-05_15h30.04.526,premceCat2_ses-02_part-02_label-phase2,2020.2.10,MacIntel,60,,,,,right,1.237445,4,0.956235,,,,,,,,0,97,97,26,1,stimuli/objects/boogieboard.jpg,right,new,27,,,,,,,,
,,,,,,,,15,2021-05-05_15h30.04.526,premceCat2_ses-02_part-02_label-phase2,2020.2.10,MacIntel,60,,,,,right,3.25155,3,1.157205,,,,,,,,0,98,98,33,1,stimuli/objects/microwave.jpg,right,new,34,,,,,,,,
,,,,,,,,15,2021-05-05_15h30.04.526,premceCat2_ses-02_part-02_label-phase2,2020.2.10,MacIntel,60,,,,,left,1.45343,2,0.40678,right,2.822035,0,0,0,0,1,,,,,,,,,,,,,,,,,
,,,,,,,,15,2021-05-05_15h30.04.526,premceCat2_ses-02_part-02_label-phase2,2020.2.10,MacIntel,60,,,,,,,,,,,,,,,,0,99,99,138,1,stimuli/objects/taperecorder.jpg,right,new,139,,,,,,,,
,,,,,,,,15,2021-05-05_15h30.04.526,premceCat2_ses-02_part-02_label-phase2,2020.2.10,MacIntel,60,,,,,left,1.36735,4,0.740775,left,1.555025,0,0,0,0,1,,,,,,,,,,,,,,,,,
,,,,,,,,15,2021-05-05_15h30.04.526,premceCat2_ses-02_part-02_label-phase2,2020.2.10,MacIntel,60,,,,,,,,,,,,,,,,0,100,100,124,1,stimuli/objects/reflector.jpg,left,old,125,,,,,,,,
,,,,,,,,15,2021-05-05_15h30.04.526,premceCat2_ses-02_part-02_label-phase2,2020.2.10,MacIntel,60,,,,,right,1.854075,2,1.29004,,,,,,,,0,101,101,99,1,stimuli/objects/snowblower.jpg,left,old,100,,,,,,,,
,,,,,,,,15,2021-05-05_15h30.04.526,premceCat2_ses-02_part-02_label-phase2,2020.2.10,MacIntel,60,,,,,right,1.5356,3,0.273005,,,,,,,,0,102,102,71,1,stimuli/objects/faxmachine.jpg,right,new,72,,,,,,,,
,,,,,,,,15,2021-05-05_15h30.04.526,premceCat2_ses-02_part-02_label-phase2,2020.2.10,MacIntel,60,,,,,left,1.1873,4,0.438575,right,0.305305,0,0,0,0,1,,,,,,,,,,,,,,,,,
,,,,,,,,15,2021-05-05_15h30.04.526,premceCat2_ses-02_part-02_label-phase2,2020.2.10,MacIntel,60,,,,,,,,,,,,,,,,0,103,103,36,1,stimuli/objects/gps.jpg,left,old,37,,,,,,,,
,,,,,,,,15,2021-05-05_15h30.04.526,premceCat2_ses-02_part-02_label-phase2,2020.2.10,MacIntel,60,,,,,right,0.907245,3,0.323965,,,,,,,,0,104,104,53,1,stimuli/objects/binoculars01b.jpg,right,new,54,,,,,,,,
,,,,,,,,15,2021-05-05_15h30.04.526,premceCat2_ses-02_part-02_label-phase2,2020.2.10,MacIntel,60,,,,,left,1.08828,3,0.488505,left,1.43934,0,0,0,0,1,,,,,,,,,,,,,,,,,
,,,,,,,,15,2021-05-05_15h30.04.526,premceCat2_ses-02_part-02_label-phase2,2020.2.10,MacIntel,60,,,,,,,,,,,,,,,,0,105,105,27,1,stimuli/objects/baseballglove.jpg,left,old,28,,,,,,,,
,,,,,,,,15,2021-05-05_15h30.04.526,premceCat2_ses-02_part-02_label-phase2,2020.2.10,MacIntel,60,,,,,right,1.13541,3,0.39074,,,,,,,,0,106,106,82,1,stimuli/objects/snowbrush.jpg,right,new,83,,,,,,,,
,,,,,,,,15,2021-05-05_15h30.04.526,premceCat2_ses-02_part-02_label-phase2,2020.2.10,MacIntel,60,,,,,right,0.787825,3,0.6017,,,,,,,,0,107,107,121,1,stimuli/objects/ceilingspeaker.jpg,right,new,122,,,,,,,,
,,,,,,,,15,2021-05-05_15h30.04.526,premceCat2_ses-02_part-02_label-phase2,2020.2.10,MacIntel,60,,,,,right,2.038935,3,0.349245,,,,,,,,0,108,108,128,1,stimuli/objects/tripod01.jpg,right,new,129,,,,,,,,
,,,,,,,,15,2021-05-05_15h30.04.526,premceCat2_ses-02_part-02_label-phase2,2020.2.10,MacIntel,60,,,,,right,4.57157,2,1.040265,,,,,,,,0,109,109,68,1,stimuli/objects/leafblower01.jpg,right,new,69,,,,,,,,
,,,,,,,,15,2021-05-05_15h30.04.526,premceCat2_ses-02_part-02_label-phase2,2020.2.10,MacIntel,60,,,,,left,1.150795,4,0.338405,left,2.39343,0,0,0,0,1,,,,,,,,,,,,,,,,,
,,,,,,,,15,2021-05-05_15h30.04.526,premceCat2_ses-02_part-02_label-phase2,2020.2.10,MacIntel,60,,,,,,,,,,,,,,,,0,110,110,5,1,stimuli/objects/fan.jpg,left,old,6,,,,,,,,
,,,,,,,,15,2021-05-05_15h30.04.526,premceCat2_ses-02_part-02_label-phase2,2020.2.10,MacIntel,60,,,,,left,1.570445,4,0.42344,right,0.388655,0,0,0,0,1,,,,,,,,,,,,,,,,,
,,,,,,,,15,2021-05-05_15h30.04.526,premceCat2_ses-02_part-02_label-phase2,2020.2.10,MacIntel,60,,,,,,,,,,,,,,,,0,111,111,65,1,stimuli/objects/squeegee01b.jpg,left,old,66,,,,,,,,
,,,,,,,,15,2021-05-05_15h30.04.526,premceCat2_ses-02_part-02_label-phase2,2020.2.10,MacIntel,60,,,,,left,1.053725,4,0.748995,left,2.79032,0,0,0,0,1,,,,,,,,,,,,,,,,,
,,,,,,,,15,2021-05-05_15h30.04.526,premceCat2_ses-02_part-02_label-phase2,2020.2.10,MacIntel,60,,,,,,,,,,,,,,,,0,112,112,61,1,stimuli/objects/metalbrush.jpg,left,old,62,,,,,,,,
,,,,,,,,15,2021-05-05_15h30.04.526,premceCat2_ses-02_part-02_label-phase2,2020.2.10,MacIntel,60,,,,,right,6.26974,2,1.10798,,,,,,,,0,113,113,32,1,stimuli/objects/mitresaw.jpg,right,new,33,,,,,,,,
,,,,,,,,15,2021-05-05_15h30.04.526,premceCat2_ses-02_part-02_label-phase2,2020.2.10,MacIntel,60,,,,,right,1.2547,4,0.25615,,,,,,,,0,114,114,22,1,stimuli/objects/umbrella04.jpg,right,new,23,,,,,,,,
,,,,,,,,15,2021-05-05_15h30.04.526,premceCat2_ses-02_part-02_label-phase2,2020.2.10,MacIntel,60,,,,,left,1.32331,3,0.45031,right,0.98824,0,0,0,0,1,,,,,,,,,,,,,,,,,
,,,,,,,,15,2021-05-05_15h30.04.526,premceCat2_ses-02_part-02_label-phase2,2020.2.10,MacIntel,60,,,,,,,,,,,,,,,,0,115,115,35,1,stimuli/objects/crocodileclips.jpg,left,old,36,,,,,,,,
,,,,,,,,15,2021-05-05_15h30.04.526,premceCat2_ses-02_part-02_label-phase2,2020.2.10,MacIntel,60,,,,,right,1.31962,2,1.371225,,,,,,,,0,116,116,136,1,stimuli/objects/battery02b.jpg,right,new,137,,,,,,,,
,,,,,,,,15,2021-05-05_15h30.04.526,premceCat2_ses-02_part-02_label-phase2,2020.2.10,MacIntel,60,,,,,right,1.03587,3,0.27425,,,,,,,,0,117,117,42,1,stimuli/objects/snowshoe.jpg,right,new,43,,,,,,,,
,,,,,,,,15,2021-05-05_15h30.04.526,premceCat2_ses-02_part-02_label-phase2,2020.2.10,MacIntel,60,,,,,right,0.95355,1,0.43523,,,,,,,,0,118,118,115,1,stimuli/objects/pipewrench.jpg,left,old,116,,,,,,,,
,,,,,,,,15,2021-05-05_15h30.04.526,premceCat2_ses-02_part-02_label-phase2,2020.2.10,MacIntel,60,,,,,left,1.771535,2,0.55735,right,1.197945,0,0,0,0,1,,,,,,,,,,,,,,,,,
,,,,,,,,15,2021-05-05_15h30.04.526,premceCat2_ses-02_part-02_label-phase2,2020.2.10,MacIntel,60,,,,,,,,,,,,,,,,0,119,119,50,1,stimuli/objects/chisel02b.jpg,right,new,51,,,,,,,,
,,,,,,,,15,2021-05-05_15h30.04.526,premceCat2_ses-02_part-02_label-phase2,2020.2.10,MacIntel,60,,,,,left,1.066445,4,0.472775,left,0.449,0,0,0,0,1,,,,,,,,,,,,,,,,,
,,,,,,,,15,2021-05-05_15h30.04.526,premceCat2_ses-02_part-02_label-phase2,2020.2.10,MacIntel,60,,,,,,,,,,,,,,,,0,120,120,6,1,stimuli/objects/corkscrew03a.jpg,left,old,7,,,,,,,,
,,,,,,,,15,2021-05-05_15h30.04.526,premceCat2_ses-02_part-02_label-phase2,2020.2.10,MacIntel,60,,,,,right,2.971395,1,0.507995,,,,,,,,0,121,121,70,1,stimuli/objects/martiniglass01b.jpg,left,old,71,,,,,,,,
,,,,,,,,15,2021-05-05_15h30.04.526,premceCat2_ses-02_part-02_label-phase2,2020.2.10,MacIntel,60,,,,,right,0.953875,4,0.423785,,,,,,,,0,122,122,80,1,stimuli/objects/snowman.jpg,right,new,81,,,,,,,,
,,,,,,,,15,2021-05-05_15h30.04.526,premceCat2_ses-02_part-02_label-phase2,2020.2.10,MacIntel,60,,,,,left,1.35354,4,0.288365,left,0.87236,0,0,0,0,1,,,,,,,,,,,,,,,,,
,,,,,,,,15,2021-05-05_15h30.04.526,premceCat2_ses-02_part-02_label-phase2,2020.2.10,MacIntel,60,,,,,,,,,,,,,,,,0,123,123,74,1,stimuli/objects/toyhockeystick01.jpg,left,old,75,,,,,,,,
,,,,,,,,15,2021-05-05_15h30.04.526,premceCat2_ses-02_part-02_label-phase2,2020.2.10,MacIntel,60,,,,,left,1.70168,2,0.3731,right,0.256305,0,0,0,0,1,,,,,,,,,,,,,,,,,
,,,,,,,,15,2021-05-05_15h30.04.526,premceCat2_ses-02_part-02_label-phase2,2020.2.10,MacIntel,60,,,,,,,,,,,,,,,,0,124,124,90,1,stimuli/objects/carlighter02.jpg,right,new,91,,,,,,,,
,,,,,,,,15,2021-05-05_15h30.04.526,premceCat2_ses-02_part-02_label-phase2,2020.2.10,MacIntel,60,,,,,right,0.820345,3,0.35331,,,,,,,,0,125,125,43,1,stimuli/objects/punchingball.jpg,right,new,44,,,,,,,,
,,,,,,,,15,2021-05-05_15h30.04.526,premceCat2_ses-02_part-02_label-phase2,2020.2.10,MacIntel,60,,,,,right,0.95239,3,0.0572,,,,,,,,0,126,126,7,1,stimuli/objects/puttyknife.jpg,left,old,8,,,,,,,,
,,,,,,,,15,2021-05-05_15h30.04.526,premceCat2_ses-02_part-02_label-phase2,2020.2.10,MacIntel,60,,,,,left,0.94913,4,0.35544,left,0.58869,0,0,0,0,1,,,,,,,,,,,,,,,,,
,,,,,,,,15,2021-05-05_15h30.04.526,premceCat2_ses-02_part-02_label-phase2,2020.2.10,MacIntel,60,,,,,,,,,,,,,,,,0,127,127,45,1,stimuli/objects/aluminiumfoil.jpg,left,old,46,,,,,,,,
,,,,,,,,15,2021-05-05_15h30.04.526,premceCat2_ses-02_part-02_label-phase2,2020.2.10,MacIntel,60,,,,,left,1.816015,2,0.35651,left,0.337975,0,0,0,0,1,,,,,,,,,,,,,,,,,
,,,,,,,,15,2021-05-05_15h30.04.526,premceCat2_ses-02_part-02_label-phase2,2020.2.10,MacIntel,60,,,,,,,,,,,,,,,,0,128,128,60,1,stimuli/objects/glass02a.jpg,right,new,61,,,,,,,,
,,,,,,,,15,2021-05-05_15h30.04.526,premceCat2_ses-02_part-02_label-phase2,2020.2.10,MacIntel,60,,,,,left,1.60197,1,1.22225,right,0.28854,0,0,0,0,1,,,,,,,,,,,,,,,,,
,,,,,,,,15,2021-05-05_15h30.04.526,premceCat2_ses-02_part-02_label-phase2,2020.2.10,MacIntel,60,,,,,,,,,,,,,,,,0,129,129,30,1,stimuli/objects/printer02.jpg,right,new,31,,,,,,,,
,,,,,,,,15,2021-05-05_15h30.04.526,premceCat2_ses-02_part-02_label-phase2,2020.2.10,MacIntel,60,,,,,left,2.448115,3,0.60631,right,0.347735,0,0,0,0,1,,,,,,,,,,,,,,,,,
,,,,,,,,15,2021-05-05_15h30.04.526,premceCat2_ses-02_part-02_label-phase2,2020.2.10,MacIntel,60,,,,,,,,,,,,,,,,0,130,130,29,1,stimuli/objects/computerkeyboard02.jpg,left,old,30,,,,,,,,
,,,,,,,,15,2021-05-05_15h30.04.526,premceCat2_ses-02_part-02_label-phase2,2020.2.10,MacIntel,60,,,,,left,0.785735,2,0.90754,left,0.30625,0,0,0,0,1,,,,,,,,,,,,,,,,,
,,,,,,,,15,2021-05-05_15h30.04.526,premceCat2_ses-02_part-02_label-phase2,2020.2.10,MacIntel,60,,,,,,,,,,,,,,,,0,131,131,120,1,stimuli/objects/pot01.jpg,left,old,121,,,,,,,,
,,,,,,,,15,2021-05-05_15h30.04.526,premceCat2_ses-02_part-02_label-phase2,2020.2.10,MacIntel,60,,,,,right,1.054035,4,0.287725,,,,,,,,0,132,132,41,1,stimuli/objects/pylon01.jpg,right,new,42,,,,,,,,
,,,,,,,,15,2021-05-05_15h30.04.526,premceCat2_ses-02_part-02_label-phase2,2020.2.10,MacIntel,60,,,,,left,0.924205,3,0.29044,right,0.93808,0,0,0,0,1,,,,,,,,,,,,,,,,,
,,,,,,,,15,2021-05-05_15h30.04.526,premceCat2_ses-02_part-02_label-phase2,2020.2.10,MacIntel,60,,,,,,,,,,,,,,,,0,133,133,28,1,stimuli/objects/anchor.jpg,left,old,29,,,,,,,,
,,,,,,,,15,2021-05-05_15h30.04.526,premceCat2_ses-02_part-02_label-phase2,2020.2.10,MacIntel,60,,,,,right,0.984265,2,0.28864,,,,,,,,0,134,134,118,1,stimuli/objects/sledgehammer.jpg,left,old,119,,,,,,,,
,,,,,,,,15,2021-05-05_15h30.04.526,premceCat2_ses-02_part-02_label-phase2,2020.2.10,MacIntel,60,,,,,left,1.071485,4,0.289415,right,0.23801,0,0,0,0,1,,,,,,,,,,,,,,,,,
,,,,,,,,15,2021-05-05_15h30.04.526,premceCat2_ses-02_part-02_label-phase2,2020.2.10,MacIntel,60,,,,,,,,,,,,,,,,0,135,135,84,1,stimuli/objects/hockeypuck.jpg,left,old,85,,,,,,,,
,,,,,,,,15,2021-05-05_15h30.04.526,premceCat2_ses-02_part-02_label-phase2,2020.2.10,MacIntel,60,,,,,left,0.88519,3,0.25523,left,0.67212,0,0,0,0,1,,,,,,,,,,,,,,,,,
,,,,,,,,15,2021-05-05_15h30.04.526,premceCat2_ses-02_part-02_label-phase2,2020.2.10,MacIntel,60,,,,,,,,,,,,,,,,0,136,136,91,1,stimuli/objects/chainsaw.jpg,left,old,92,,,,,,,,
,,,,,,,,15,2021-05-05_15h30.04.526,premceCat2_ses-02_part-02_label-phase2,2020.2.10,MacIntel,60,,,,,right,1.17206,2,0.31752,,,,,,,,0,137,137,59,1,stimuli/objects/studiolight.jpg,right,new,60,,,,,,,,
,,,,,,,,15,2021-05-05_15h30.04.526,premceCat2_ses-02_part-02_label-phase2,2020.2.10,MacIntel,60,,,,,right,0.821655,2,0.54765,,,,,,,,0,138,138,75,1,stimuli/objects/stepladder.jpg,right,new,76,,,,,,,,
,,,,,,,,15,2021-05-05_15h30.04.526,premceCat2_ses-02_part-02_label-phase2,2020.2.10,MacIntel,60,,,,,left,1.251865,3,0.32079,left,0.25392,0,0,0,0,1,,,,,,,,,,,,,,,,,
,,,,,,,,15,2021-05-05_15h30.04.526,premceCat2_ses-02_part-02_label-phase2,2020.2.10,MacIntel,60,,,,,,,,,,,,,,,,0,139,139,114,1,stimuli/objects/butterknife.jpg,left,old,115,,,,,,,,
,,,,,,,,15,2021-05-05_15h30.04.526,premceCat2_ses-02_part-02_label-phase2,2020.2.10,MacIntel,60,,,,,left,1.420425,4,0.42174,left,0.73208,0,0,0,0,1,,,,,,,,,,,,,,,,,
,,,,,,,,15,2021-05-05_15h30.04.526,premceCat2_ses-02_part-02_label-phase2,2020.2.10,MacIntel,60,,,,,,,,,,,,,,,,0,140,140,140,1,stimuli/objects/catchermask.jpg,left,old,141,,,,,,,,
,,,,,,,,15,2021-05-05_15h30.04.526,premceCat2_ses-02_part-02_label-phase2,2020.2.10,MacIntel,60,,,,,right,1.768395,3,0.424295,,,,,,,,0,141,141,12,1,stimuli/objects/garlicpress02a.jpg,right,new,13,,,,,,,,
,,,,,,,,15,2021-05-05_15h30.04.526,premceCat2_ses-02_part-02_label-phase2,2020.2.10,MacIntel,60,,,,,right,1.10393,3,0.54023,,,,,,,,0,142,142,123,1,stimuli/objects/gasburner.jpg,left,old,124,,,,,,,,
,,,,,,,,15,2021-05-05_15h30.04.526,premceCat2_ses-02_part-02_label-phase2,2020.2.10,MacIntel,60,,,,,,,,,,,,,,,,,,,,,,,,,space,208.385125,0,0,0,0,1,condition_files/ImagesforRecog4_1.csv
,,,,,,,,15,2021-05-05_15h30.04.526,premceCat2_ses-02_part-02_label-phase2,2020.2.10,MacIntel,60,,,,,left,2.734305,4,0.44528,left,2.296305,0,0,0,0,1,,,,,,,,,,,,,,,,,
,,,,,,,,15,2021-05-05_15h30.04.526,premceCat2_ses-02_part-02_label-phase2,2020.2.10,MacIntel,60,,,,,,,,,,,,,,,,0,0,0,106,1,stimuli/objects/phonejack.jpg,left,old,250,,,,,,,,
,,,,,,,,15,2021-05-05_15h30.04.526,premceCat2_ses-02_part-02_label-phase2,2020.2.10,MacIntel,60,,,,,left,1.2507,4,0.506475,left,0.50569,0,0,0,0,1,,,,,,,,,,,,,,,,,
,,,,,,,,15,2021-05-05_15h30.04.526,premceCat2_ses-02_part-02_label-phase2,2020.2.10,MacIntel,60,,,,,,,,,,,,,,,,0,1,1,73,1,stimuli/objects/shinpad.jpg,left,old,217,,,,,,,,
,,,,,,,,15,2021-05-05_15h30.04.526,premceCat2_ses-02_part-02_label-phase2,2020.2.10,MacIntel,60,,,,,left,0.93368,4,0.43913,left,0.38799,0,0,0,0,1,,,,,,,,,,,,,,,,,
,,,,,,,,15,2021-05-05_15h30.04.526,premceCat2_ses-02_part-02_label-phase2,2020.2.10,MacIntel,60,,,,,,,,,,,,,,,,0,2,2,38,1,stimuli/objects/contactlens.jpg,left,old,182,,,,,,,,
,,,,,,,,15,2021-05-05_15h30.04.526,premceCat2_ses-02_part-02_label-phase2,2020.2.10,MacIntel,60,,,,,left,0.86834,4,0.472415,right,1.611085,0,0,0,0,1,,,,,,,,,,,,,,,,,
,,,,,,,,15,2021-05-05_15h30.04.526,premceCat2_ses-02_part-02_label-phase2,2020.2.10,MacIntel,60,,,,,,,,,,,,,,,,0,3,3,130,1,stimuli/objects/ipad02.jpg,left,old,274,,,,,,,,
,,,,,,,,15,2021-05-05_15h30.04.526,premceCat2_ses-02_part-02_label-phase2,2020.2.10,MacIntel,60,,,,,right,1.163525,2,1.52314,,,,,,,,0,4,4,51,1,stimuli/objects/cheeseknife01.jpg,right,new,195,,,,,,,,
,,,,,,,,15,2021-05-05_15h30.04.526,premceCat2_ses-02_part-02_label-phase2,2020.2.10,MacIntel,60,,,,,right,2.617895,4,0.391105,,,,,,,,0,5,5,102,1,stimuli/objects/beachumbrella01.jpg,right,new,246,,,,,,,,
,,,,,,,,15,2021-05-05_15h30.04.526,premceCat2_ses-02_part-02_label-phase2,2020.2.10,MacIntel,60,,,,,right,0.86513,3,0.20786,,,,,,,,0,6,6,127,1,stimuli/objects/skigoggles01.jpg,right,new,271,,,,,,,,
,,,,,,,,15,2021-05-05_15h30.04.526,premceCat2_ses-02_part-02_label-phase2,2020.2.10,MacIntel,60,,,,,left,0.767625,4,0.19113,right,0.77043,0,0,0,0,1,,,,,,,,,,,,,,,,,
,,,,,,,,15,2021-05-05_15h30.04.526,premceCat2_ses-02_part-02_label-phase2,2020.2.10,MacIntel,60,,,,,,,,,,,,,,,,0,7,7,32,1,stimuli/objects/travelmug.jpg,left,old,176,,,,,,,,
,,,,,,,,15,2021-05-05_15h30.04.526,premceCat2_ses-02_part-02_label-phase2,2020.2.10,MacIntel,60,,,,,right,1.56901,2,1.140025,,,,,,,,0,8,8,124,1,stimuli/objects/basketball01.jpg,right,new,268,,,,,,,,
,,,,,,,,15,2021-05-05_15h30.04.526,premceCat2_ses-02_part-02_label-phase2,2020.2.10,MacIntel,60,,,,,left,0.936385,4,0.29138,right,0.2385,0,0,0,0,1,,,,,,,,,,,,,,,,,
,,,,,,,,15,2021-05-05_15h30.04.526,premceCat2_ses-02_part-02_label-phase2,2020.2.10,MacIntel,60,,,,,,,,,,,,,,,,0,9,9,33,1,stimuli/objects/scanner.jpg,left,old,177,,,,,,,,
,,,,,,,,15,2021-05-05_15h30.04.526,premceCat2_ses-02_part-02_label-phase2,2020.2.10,MacIntel,60,,,,,left,0.986485,4,0.46034,left,1.08968,0,0,0,0,1,,,,,,,,,,,,,,,,,
,,,,,,,,15,2021-05-05_15h30.04.526,premceCat2_ses-02_part-02_label-phase2,2020.2.10,MacIntel,60,,,,,,,,,,,,,,,,0,10,10,50,1,stimuli/objects/boatmotor.jpg,left,old,194,,,,,,,,
,,,,,,,,15,2021-05-05_15h30.04.526,premceCat2_ses-02_part-02_label-phase2,2020.2.10,MacIntel,60,,,,,left,1.119315,4,0.390535,right,0.63905,0,0,0,0,1,,,,,,,,,,,,,,,,,
,,,,,,,,15,2021-05-05_15h30.04.526,premceCat2_ses-02_part-02_label-phase2,2020.2.10,MacIntel,60,,,,,,,,,,,,,,,,0,11,11,129,1,stimuli/objects/bucket02.jpg,left,old,273,,,,,,,,
,,,,,,,,15,2021-05-05_15h30.04.526,premceCat2_ses-02_part-02_label-phase2,2020.2.10,MacIntel,60,,,,,left,1.88624,1,0.455475,left,0.37382,0,0,0,0,1,,,,,,,,,,,,,,,,,
,,,,,,,,15,2021-05-05_15h30.04.526,premceCat2_ses-02_part-02_label-phase2,2020.2.10,MacIntel,60,,,,,,,,,,,,,,,,0,12,12,136,1,stimuli/objects/skihelmet01.jpg,left,old,280,,,,,,,,
,,,,,,,,15,2021-05-05_15h30.04.526,premceCat2_ses-02_part-02_label-phase2,2020.2.10,MacIntel,60,,,,,left,1.301975,4,0.191465,left,0.121755,0,0,0,0,1,,,,,,,,,,,,,,,,,
,,,,,,,,15,2021-05-05_15h30.04.526,premceCat2_ses-02_part-02_label-phase2,2020.2.10,MacIntel,60,,,,,,,,,,,,,,,,0,13,13,88,1,stimuli/objects/iceskate.jpg,left,old,232,,,,,,,,
,,,,,,,,15,2021-05-05_15h30.04.526,premceCat2_ses-02_part-02_label-phase2,2020.2.10,MacIntel,60,,,,,right,1.535735,3,0.29012,,,,,,,,0,14,14,59,1,stimuli/objects/speedball.jpg,right,new,203,,,,,,,,
,,,,,,,,15,2021-05-05_15h30.04.526,premceCat2_ses-02_part-02_label-phase2,2020.2.10,MacIntel,60,,,,,left,1.05318,4,0.2743,right,0.28772,0,0,0,0,1,,,,,,,,,,,,,,,,,
,,,,,,,,15,2021-05-05_15h30.04.526,premceCat2_ses-02_part-02_label-phase2,2020.2.10,MacIntel,60,,,,,,,,,,,,,,,,0,15,15,90,1,stimuli/objects/fishinghook03.jpg,left,old,234,,,,,,,,
,,,,,,,,15,2021-05-05_15h30.04.526,premceCat2_ses-02_part-02_label-phase2,2020.2.10,MacIntel,60,,,,,right,4.9873,2,1.222355,,,,,,,,0,16,16,40,1,stimuli/objects/tablesaw.jpg,right,new,184,,,,,,,,
,,,,,,,,15,2021-05-05_15h30.04.526,premceCat2_ses-02_part-02_label-phase2,2020.2.10,MacIntel,60,,,,,left,0.83376,4,1.32359,left,1.290325,0,0,0,0,1,,,,,,,,,,,,,,,,,
,,,,,,,,15,2021-05-05_15h30.04.526,premceCat2_ses-02_part-02_label-phase2,2020.2.10,MacIntel,60,,,,,,,,,,,,,,,,0,17,17,79,1,stimuli/objects/bikehelmet.jpg,left,old,223,,,,,,,,
,,,,,,,,15,2021-05-05_15h30.04.526,premceCat2_ses-02_part-02_label-phase2,2020.2.10,MacIntel,60,,,,,left,2.053535,4,0.45838,left,0.25612,0,0,0,0,1,,,,,,,,,,,,,,,,,
,,,,,,,,15,2021-05-05_15h30.04.526,premceCat2_ses-02_part-02_label-phase2,2020.2.10,MacIntel,60,,,,,,,,,,,,,,,,0,18,18,71,1,stimuli/objects/swimgoggles.jpg,left,old,215,,,,,,,,
,,,,,,,,15,2021-05-05_15h30.04.526,premceCat2_ses-02_part-02_label-phase2,2020.2.10,MacIntel,60,,,,,right,5.704705,1,0.25819,,,,,,,,0,19,19,53,1,stimuli/objects/staplegun.jpg,left,old,197,,,,,,,,
,,,,,,,,15,2021-05-05_15h30.04.526,premceCat2_ses-02_part-02_label-phase2,2020.2.10,MacIntel,60,,,,,left,0.73638,4,0.222965,right,0.20723,0,0,0,0,1,,,,,,,,,,,,,,,,,
,,,,,,,,15,2021-05-05_15h30.04.526,premceCat2_ses-02_part-02_label-phase2,2020.2.10,MacIntel,60,,,,,,,,,,,,,,,,0,20,20,77,1,stimuli/objects/bowl02a.jpg,left,old,221,,,,,,,,
,,,,,,,,15,2021-05-05_15h30.04.526,premceCat2_ses-02_part-02_label-phase2,2020.2.10,MacIntel,60,,,,,right,1.17033,4,0.405525,,,,,,,,0,21,21,116,1,stimuli/objects/lockingplier.jpg,right,new,260,,,,,,,,
,,,,,,,,15,2021-05-05_15h30.04.526,premceCat2_ses-02_part-02_label-phase2,2020.2.10,MacIntel,60,,,,,right,1.703965,2,0.324245,,,,,,,,0,22,22,132,1,stimuli/objects/wirestripper.jpg,right,new,276,,,,,,,,
,,,,,,,,15,2021-05-05_15h30.04.526,premceCat2_ses-02_part-02_label-phase2,2020.2.10,MacIntel,60,,,,,left,0.927475,4,0.29039,right,0.23754,0,0,0,0,1,,,,,,,,,,,,,,,,,
,,,,,,,,15,2021-05-05_15h30.04.526,premceCat2_ses-02_part-02_label-phase2,2020.2.10,MacIntel,60,,,,,,,,,,,,,,,,0,23,23,11,1,stimuli/objects/airconditioner.jpg,left,old,155,,,,,,,,
,,,,,,,,15,2021-05-05_15h30.04.526,premceCat2_ses-02_part-02_label-phase2,2020.2.10,MacIntel,60,,,,,right,2.11893,3,0.49042,,,,,,,,0,24,24,49,1,stimuli/objects/cakeplatter.jpg,right,new,193,,,,,,,,
,,,,,,,,15,2021-05-05_15h30.04.526,premceCat2_ses-02_part-02_label-phase2,2020.2.10,MacIntel,60,,,,,right,1.321915,3,0.30644,,,,,,,,0,25,25,68,1,stimuli/objects/ladle02a.jpg,right,new,212,,,,,,,,
,,,,,,,,15,2021-05-05_15h30.04.526,premceCat2_ses-02_part-02_label-phase2,2020.2.10,MacIntel,60,,,,,right,1.25192,4,0.323945,,,,,,,,0,26,26,2,1,stimuli/objects/wetfloorsign.jpg,right,new,146,,,,,,,,
,,,,,,,,15,2021-05-05_15h30.04.526,premceCat2_ses-02_part-02_label-phase2,2020.2.10,MacIntel,60,,,,,left,1.10074,4,0.188225,left,0.70495,0,0,0,0,1,,,,,,,,,,,,,,,,,
,,,,,,,,15,2021-05-05_15h30.04.526,premceCat2_ses-02_part-02_label-phase2,2020.2.10,MacIntel,60,,,,,,,,,,,,,,,,0,27,27,19,1,stimuli/objects/mug01.jpg,right,new,163,,,,,,,,
,,,,,,,,15,2021-05-05_15h30.04.526,premceCat2_ses-02_part-02_label-phase2,2020.2.10,MacIntel,60,,,,,right,2.680445,3,0.17422,,,,,,,,0,28,28,45,1,stimuli/objects/charcoalbarbecue.jpg,left,old,189,,,,,,,,
,,,,,,,,15,2021-05-05_15h30.04.526,premceCat2_ses-02_part-02_label-phase2,2020.2.10,MacIntel,60,,,,,right,1.015875,3,0.37363,,,,,,,,0,29,29,99,1,stimuli/objects/floodlight.jpg,right,new,243,,,,,,,,
,,,,,,,,15,2021-05-05_15h30.04.526,premceCat2_ses-02_part-02_label-phase2,2020.2.10,MacIntel,60,,,,,left,0.901805,4,0.289305,right,0.322595,0,0,0,0,1,,,,,,,,,,,,,,,,,
,,,,,,,,15,2021-05-05_15h30.04.526,premceCat2_ses-02_part-02_label-phase2,2020.2.10,MacIntel,60,,,,,,,,,,,,,,,,0,30,30,10,1,stimuli/objects/sportbag.jpg,left,old,154,,,,,,,,
,,,,,,,,15,2021-05-05_15h30.04.526,premceCat2_ses-02_part-02_label-phase2,2020.2.10,MacIntel,60,,,,,right,2.184165,3,0.60406,,,,,,,,0,31,31,9,1,stimuli/objects/alarmsystem.jpg,right,new,153,,,,,,,,
,,,,,,,,15,2021-05-05_15h30.04.526,premceCat2_ses-02_part-02_label-phase2,2020.2.10,MacIntel,60,,,,,right,0.935605,3,0.321865,,,,,,,,0,32,32,12,1,stimuli/objects/fanheater.jpg,right,new,156,,,,,,,,
,,,,,,,,15,2021-05-05_15h30.04.526,premceCat2_ses-02_part-02_label-phase2,2020.2.10,MacIntel,60,,,,,left,0.933635,4,0.12325,right,0.3678,0,0,0,0,1,,,,,,,,,,,,,,,,,
,,,,,,,,15,2021-05-05_15h30.04.526,premceCat2_ses-02_part-02_label-phase2,2020.2.10,MacIntel,60,,,,,,,,,,,,,,,,0,33,33,52,1,stimuli/objects/usbkey.jpg,left,old,196,,,,,,,,
,,,,,,,,15,2021-05-05_15h30.04.526,premceCat2_ses-02_part-02_label-phase2,2020.2.10,MacIntel,60,,,,,left,0.98308,4,0.222315,right,0.22225,0,0,0,0,1,,,,,,,,,,,,,,,,,
,,,,,,,,15,2021-05-05_15h30.04.526,premceCat2_ses-02_part-02_label-phase2,2020.2.10,MacIntel,60,,,,,,,,,,,,,,,,0,34,34,118,1,stimuli/objects/caulking.jpg,left,old,262,,,,,,,,
,,,,,,,,15,2021-05-05_15h30.04.526,premceCat2_ses-02_part-02_label-phase2,2020.2.10,MacIntel,60,,,,,left,3.4686,2,1.040235,right,0.174525,0,0,0,0,1,,,,,,,,,,,,,,,,,
,,,,,,,,15,2021-05-05_15h30.04.526,premceCat2_ses-02_part-02_label-phase2,2020.2.10,MacIntel,60,,,,,,,,,,,,,,,,0,35,35,94,1,stimuli/objects/file.jpg,right,new,238,,,,,,,,
,,,,,,,,15,2021-05-05_15h30.04.526,premceCat2_ses-02_part-02_label-phase2,2020.2.10,MacIntel,60,,,,,right,2.49953,1,0.186565,,,,,,,,0,36,36,72,1,stimuli/objects/paintroller01.jpg,left,old,216,,,,,,,,
,,,,,,,,15,2021-05-05_15h30.04.526,premceCat2_ses-02_part-02_label-phase2,2020.2.10,MacIntel,60,,,,,right,0.96651,3,0.321695,,,,,,,,0,37,37,107,1,stimuli/objects/dolly01.jpg,right,new,251,,,,,,,,
,,,,,,,,15,2021-05-05_15h30.04.526,premceCat2_ses-02_part-02_label-phase2,2020.2.10,MacIntel,60,,,,,left,1.436205,4,0.272725,right,0.25334,0,0,0,0,1,,,,,,,,,,,,,,,,,
,,,,,,,,15,2021-05-05_15h30.04.526,premceCat2_ses-02_part-02_label-phase2,2020.2.10,MacIntel,60,,,,,,,,,,,,,,,,0,38,38,105,1,stimuli/objects/spicerack.jpg,left,old,249,,,,,,,,
,,,,,,,,15,2021-05-05_15h30.04.526,premceCat2_ses-02_part-02_label-phase2,2020.2.10,MacIntel,60,,,,,left,1.10393,2,0.28892,left,0.314495,0,0,0,0,1,,,,,,,,,,,,,,,,,
,,,,,,,,15,2021-05-05_15h30.04.526,premceCat2_ses-02_part-02_label-phase2,2020.2.10,MacIntel,60,,,,,,,,,,,,,,,,0,39,39,140,1,stimuli/objects/wineglass01.jpg,right,new,284,,,,,,,,
,,,,,,,,15,2021-05-05_15h30.04.526,premceCat2_ses-02_part-02_label-phase2,2020.2.10,MacIntel,60,,,,,left,1.35406,3,0.48993,right,0.30505,0,0,0,0,1,,,,,,,,,,,,,,,,,
,,,,,,,,15,2021-05-05_15h30.04.526,premceCat2_ses-02_part-02_label-phase2,2020.2.10,MacIntel,60,,,,,,,,,,,,,,,,0,40,40,64,1,stimuli/objects/exercisemachine.jpg,left,old,208,,,,,,,,
,,,,,,,,15,2021-05-05_15h30.04.526,premceCat2_ses-02_part-02_label-phase2,2020.2.10,MacIntel,60,,,,,left,0.837215,4,0.27356,right,0.122635,0,0,0,0,1,,,,,,,,,,,,,,,,,
,,,,,,,,15,2021-05-05_15h30.04.526,premceCat2_ses-02_part-02_label-phase2,2020.2.10,MacIntel,60,,,,,,,,,,,,,,,,0,41,41,115,1,stimuli/objects/toothpick02.jpg,left,old,259,,,,,,,,
,,,,,,,,15,2021-05-05_15h30.04.526,premceCat2_ses-02_part-02_label-phase2,2020.2.10,MacIntel,60,,,,,right,1.039515,3,0.95511,,,,,,,,0,42,42,75,1,stimuli/objects/painttray.jpg,left,old,219,,,,,,,,
,,,,,,,,15,2021-05-05_15h30.04.526,premceCat2_ses-02_part-02_label-phase2,2020.2.10,MacIntel,60,,,,,right,1.136645,3,0.45652,,,,,,,,0,43,43,66,1,stimuli/objects/heatpump.jpg,right,new,210,,,,,,,,
,,,,,,,,15,2021-05-05_15h30.04.526,premceCat2_ses-02_part-02_label-phase2,2020.2.10,MacIntel,60,,,,,right,1.539275,2,0.405635,,,,,,,,0,44,44,96,1,stimuli/objects/boltcutter.jpg,left,old,240,,,,,,,,
,,,,,,,,15,2021-05-05_15h30.04.526,premceCat2_ses-02_part-02_label-phase2,2020.2.10,MacIntel,60,,,,,right,1.853465,3,0.255695,,,,,,,,0,45,45,44,1,stimuli/objects/toaster01.jpg,right,new,188,,,,,,,,
,,,,,,,,15,2021-05-05_15h30.04.526,premceCat2_ses-02_part-02_label-phase2,2020.2.10,MacIntel,60,,,,,left,0.90213,4,0.23893,right,0.23905,0,0,0,0,1,,,,,,,,,,,,,,,,,
,,,,,,,,15,2021-05-05_15h30.04.526,premceCat2_ses-02_part-02_label-phase2,2020.2.10,MacIntel,60,,,,,,,,,,,,,,,,0,46,46,14,1,stimuli/objects/weight01.jpg,left,old,158,,,,,,,,
,,,,,,,,15,2021-05-05_15h30.04.526,premceCat2_ses-02_part-02_label-phase2,2020.2.10,MacIntel,60,,,,,right,0.77044,4,0.173415,,,,,,,,0,47,47,5,1,stimuli/objects/pickaxe02.jpg,right,new,149,,,,,,,,
,,,,,,,,15,2021-05-05_15h30.04.526,premceCat2_ses-02_part-02_label-phase2,2020.2.10,MacIntel,60,,,,,right,2.151215,3,1.95626,,,,,,,,0,48,48,137,1,stimuli/objects/nutcracker01.jpg,right,new,281,,,,,,,,
,,,,,,,,15,2021-05-05_15h30.04.526,premceCat2_ses-02_part-02_label-phase2,2020.2.10,MacIntel,60,,,,,left,2.28274,3,0.440095,left,0.356675,0,0,0,0,1,,,,,,,,,,,,,,,,,
,,,,,,,,15,2021-05-05_15h30.04.526,premceCat2_ses-02_part-02_label-phase2,2020.2.10,MacIntel,60,,,,,,,,,,,,,,,,0,49,49,119,1,stimuli/objects/servingspoon01.jpg,left,old,263,,,,,,,,
,,,,,,,,15,2021-05-05_15h30.04.526,premceCat2_ses-02_part-02_label-phase2,2020.2.10,MacIntel,60,,,,,left,1.138075,2,0.72223,right,0.288535,0,0,0,0,1,,,,,,,,,,,,,,,,,
,,,,,,,,15,2021-05-05_15h30.04.526,premceCat2_ses-02_part-02_label-phase2,2020.2.10,MacIntel,60,,,,,,,,,,,,,,,,0,50,50,36,1,stimuli/objects/loppingshears.jpg,right,new,180,,,,,,,,
,,,,,,,,15,2021-05-05_15h30.04.526,premceCat2_ses-02_part-02_label-phase2,2020.2.10,MacIntel,60,,,,,left,2.252165,3,1.106925,right,0.307575,0,0,0,0,1,,,,,,,,,,,,,,,,,
,,,,,,,,15,2021-05-05_15h30.04.526,premceCat2_ses-02_part-02_label-phase2,2020.2.10,MacIntel,60,,,,,,,,,,,,,,,,0,51,51,84,1,stimuli/objects/hockeygoalieglove.jpg,left,old,228,,,,,,,,
,,,,,,,,15,2021-05-05_15h30.04.526,premceCat2_ses-02_part-02_label-phase2,2020.2.10,MacIntel,60,,,,,left,0.839,4,0.123625,right,0.108025,0,0,0,0,1,,,,,,,,,,,,,,,,,
,,,,,,,,15,2021-05-05_15h30.04.526,premceCat2_ses-02_part-02_label-phase2,2020.2.10,MacIntel,60,,,,,,,,,,,,,,,,0,52,52,113,1,stimuli/objects/sewingmachine01a.jpg,left,old,257,,,,,,,,
,,,,,,,,15,2021-05-05_15h30.04.526,premceCat2_ses-02_part-02_label-phase2,2020.2.10,MacIntel,60,,,,,left,3.100575,2,0.30788,right,0.849695,0,0,0,0,1,,,,,,,,,,,,,,,,,
,,,,,,,,15,2021-05-05_15h30.04.526,premceCat2_ses-02_part-02_label-phase2,2020.2.10,MacIntel,60,,,,,,,,,,,,,,,,0,53,53,74,1,stimuli/objects/patioumbrella.jpg,left,old,218,,,,,,,,
,,,,,,,,15,2021-05-05_15h30.04.526,premceCat2_ses-02_part-02_label-phase2,2020.2.10,MacIntel,60,,,,,left,0.786135,4,0.174495,right,0.115655,0,0,0,0,1,,,,,,,,,,,,,,,,,
,,,,,,,,15,2021-05-05_15h30.04.526,premceCat2_ses-02_part-02_label-phase2,2020.2.10,MacIntel,60,,,,,,,,,,,,,,,,0,54,54,37,1,stimuli/objects/expansioncard.jpg,left,old,181,,,,,,,,
,,,,,,,,15,2021-05-05_15h30.04.526,premceCat2_ses-02_part-02_label-phase2,2020.2.10,MacIntel,60,,,,,right,1.200265,3,0.24055,,,,,,,,0,55,55,95,1,stimuli/objects/tennisball01b.jpg,right,new,239,,,,,,,,
,,,,,,,,15,2021-05-05_15h30.04.526,premceCat2_ses-02_part-02_label-phase2,2020.2.10,MacIntel,60,,,,,right,3.92077,2,0.35003,,,,,,,,0,56,56,27,1,stimuli/objects/level03a.jpg,left,old,171,,,,,,,,
,,,,,,,,15,2021-05-05_15h30.04.526,premceCat2_ses-02_part-02_label-phase2,2020.2.10,MacIntel,60,,,,,right,2.15275,3,0.18969,,,,,,,,0,57,57,48,1,stimuli/objects/eggslicer.jpg,right,new,192,,,,,,,,
,,,,,,,,15,2021-05-05_15h30.04.526,premceCat2_ses-02_part-02_label-phase2,2020.2.10,MacIntel,60,,,,,right,1.61742,3,0.26996,,,,,,,,0,58,58,55,1,stimuli/objects/fonduefork01.jpg,right,new,199,,,,,,,,
,,,,,,,,15,2021-05-05_15h30.04.526,premceCat2_ses-02_part-02_label-phase2,2020.2.10,MacIntel,60,,,,,left,1.018085,3,0.337015,left,1.58951,0,0,0,0,1,,,,,,,,,,,,,,,,,
,,,,,,,,15,2021-05-05_15h30.04.526,premceCat2_ses-02_part-02_label-phase2,2020.2.10,MacIntel,60,,,,,,,,,,,,,,,,0,59,59,42,1,stimuli/objects/tennisracket.jpg,right,new,186,,,,,,,,
,,,,,,,,15,2021-05-05_15h30.04.526,premceCat2_ses-02_part-02_label-phase2,2020.2.10,MacIntel,60,,,,,left,1.250725,2,0.68373,left,0.27296,0,0,0,0,1,,,,,,,,,,,,,,,,,
,,,,,,,,15,2021-05-05_15h30.04.526,premceCat2_ses-02_part-02_label-phase2,2020.2.10,MacIntel,60,,,,,,,,,,,,,,,,0,60,60,93,1,stimuli/objects/lawnmower.jpg,left,old,237,,,,,,,,
,,,,,,,,15,2021-05-05_15h30.04.526,premceCat2_ses-02_part-02_label-phase2,2020.2.10,MacIntel,60,,,,,left,1.534625,1,0.171265,right,0.173875,0,0,0,0,1,,,,,,,,,,,,,,,,,
,,,,,,,,15,2021-05-05_15h30.04.526,premceCat2_ses-02_part-02_label-phase2,2020.2.10,MacIntel,60,,,,,,,,,,,,,,,,0,61,61,15,1,stimuli/objects/computermouse06.jpg,right,new,159,,,,,,,,
,,,,,,,,15,2021-05-05_15h30.04.526,premceCat2_ses-02_part-02_label-phase2,2020.2.10,MacIntel,60,,,,,right,2.421135,1,0.93869,,,,,,,,0,62,62,91,1,stimuli/objects/cuttingpliers02.jpg,right,new,235,,,,,,,,
,,,,,,,,15,2021-05-05_15h30.04.526,premceCat2_ses-02_part-02_label-phase2,2020.2.10,MacIntel,60,,,,,right,1.83555,4,0.55544,,,,,,,,0,63,63,69,1,stimuli/objects/straw.jpg,right,new,213,,,,,,,,
,,,,,,,,15,2021-05-05_15h30.04.526,premceCat2_ses-02_part-02_label-phase2,2020.2.10,MacIntel,60,,,,,left,1.135225,3,0.97261,right,1.280265,0,0,0,0,1,,,,,,,,,,,,,,,,,
,,,,,,,,15,2021-05-05_15h30.04.526,premceCat2_ses-02_part-02_label-phase2,2020.2.10,MacIntel,60,,,,,,,,,,,,,,,,0,64,64,100,1,stimuli/objects/setsquare.jpg,left,old,244,,,,,,,,
,,,,,,,,15,2021-05-05_15h30.04.526,premceCat2_ses-02_part-02_label-phase2,2020.2.10,MacIntel,60,,,,,right,0.900975,4,0.307215,,,,,,,,0,65,65,126,1,stimuli/objects/bikewheel.jpg,left,old,270,,,,,,,,
,,,,,,,,15,2021-05-05_15h30.04.526,premceCat2_ses-02_part-02_label-phase2,2020.2.10,MacIntel,60,,,,,right,0.918125,4,0.09073,,,,,,,,0,66,66,121,1,stimuli/objects/parachute.jpg,right,new,265,,,,,,,,
,,,,,,,,15,2021-05-05_15h30.04.526,premceCat2_ses-02_part-02_label-phase2,2020.2.10,MacIntel,60,,,,,right,0.802875,4,0.16912,,,,,,,,0,67,67,83,1,stimuli/objects/icecubetray01a.jpg,right,new,227,,,,,,,,
,,,,,,,,15,2021-05-05_15h30.04.526,premceCat2_ses-02_part-02_label-phase2,2020.2.10,MacIntel,60,,,,,right,0.633285,4,0.191165,,,,,,,,0,68,68,120,1,stimuli/objects/tent.jpg,right,new,264,,,,,,,,
,,,,,,,,15,2021-05-05_15h30.04.526,premceCat2_ses-02_part-02_label-phase2,2020.2.10,MacIntel,60,,,,,left,3.134235,3,0.27339,right,0.248715,0,0,0,0,1,,,,,,,,,,,,,,,,,
,,,,,,,,15,2021-05-05_15h30.04.526,premceCat2_ses-02_part-02_label-phase2,2020.2.10,MacIntel,60,,,,,,,,,,,,,,,,0,69,69,104,1,stimuli/objects/securitycamera.jpg,left,old,248,,,,,,,,
,,,,,,,,15,2021-05-05_15h30.04.526,premceCat2_ses-02_part-02_label-phase2,2020.2.10,MacIntel,60,,,,,left,0.853455,4,0.153505,right,0.56665,0,0,0,0,1,,,,,,,,,,,,,,,,,
,,,,,,,,15,2021-05-05_15h30.04.526,premceCat2_ses-02_part-02_label-phase2,2020.2.10,MacIntel,60,,,,,,,,,,,,,,,,0,70,70,85,1,stimuli/objects/lamp04a.jpg,left,old,229,,,,,,,,
,,,,,,,,15,2021-05-05_15h30.04.526,premceCat2_ses-02_part-02_label-phase2,2020.2.10,MacIntel,60,,,,,left,1.630685,2,0.70594,left,1.10625,0,0,0,0,1,,,,,,,,,,,,,,,,,
,,,,,,,,15,2021-05-05_15h30.04.526,premceCat2_ses-02_part-02_label-phase2,2020.2.10,MacIntel,60,,,,,,,,,,,,,,,,0,71,71,25,1,stimuli/objects/cowbell.jpg,left,old,169,,,,,,,,
,,,,,,,,15,2021-05-05_15h30.04.526,premceCat2_ses-02_part-02_label-phase2,2020.2.10,MacIntel,60,,,,,left,1.399815,2,0.45375,left,0.286785,0,0,0,0,1,,,,,,,,,,,,,,,,,
,,,,,,,,15,2021-05-05_15h30.04.526,premceCat2_ses-02_part-02_label-phase2,2020.2.10,MacIntel,60,,,,,,,,,,,,,,,,0,72,72,125,1,stimuli/objects/leafrake.jpg,left,old,269,,,,,,,,
,,,,,,,,15,2021-05-05_15h30.04.526,premceCat2_ses-02_part-02_label-phase2,2020.2.10,MacIntel,60,,,,,left,1.51805,2,0.25577,right,0.220035,0,0,0,0,1,,,,,,,,,,,,,,,,,
,,,,,,,,15,2021-05-05_15h30.04.526,premceCat2_ses-02_part-02_label-phase2,2020.2.10,MacIntel,60,,,,,,,,,,,,,,,,0,73,73,61,1,stimuli/objects/flooringstapler.jpg,left,old,205,,,,,,,,
,,,,,,,,15,2021-05-05_15h30.04.526,premceCat2_ses-02_part-02_label-phase2,2020.2.10,MacIntel,60,,,,,left,2.03816,2,0.13948,right,0.13847,0,0,0,0,1,,,,,,,,,,,,,,,,,
,,,,,,,,15,2021-05-05_15h30.04.526,premceCat2_ses-02_part-02_label-phase2,2020.2.10,MacIntel,60,,,,,,,,,,,,,,,,0,74,74,54,1,stimuli/objects/ladder.jpg,left,old,198,,,,,,,,
,,,,,,,,15,2021-05-05_15h30.04.526,premceCat2_ses-02_part-02_label-phase2,2020.2.10,MacIntel,60,,,,,left,2.119415,2,1.206325,right,0.253345,0,0,0,0,1,,,,,,,,,,,,,,,,,
,,,,,,,,15,2021-05-05_15h30.04.526,premceCat2_ses-02_part-02_label-phase2,2020.2.10,MacIntel,60,,,,,,,,,,,,,,,,0,75,75,13,1,stimuli/objects/gardenshears01a.jpg,left,old,157,,,,,,,,
,,,,,,,,15,2021-05-05_15h30.04.526,premceCat2_ses-02_part-02_label-phase2,2020.2.10,MacIntel,60,,,,,right,0.9345,3,0.28798,,,,,,,,0,76,76,81,1,stimuli/objects/grill.jpg,right,new,225,,,,,,,,
,,,,,,,,15,2021-05-05_15h30.04.526,premceCat2_ses-02_part-02_label-phase2,2020.2.10,MacIntel,60,,,,,right,0.703225,3,0.321555,,,,,,,,0,77,77,1,1,stimuli/objects/satellitedish01.jpg,left,old,145,,,,,,,,
,,,,,,,,15,2021-05-05_15h30.04.526,premceCat2_ses-02_part-02_label-phase2,2020.2.10,MacIntel,60,,,,,left,0.91952,4,0.272095,left,0.52343,0,0,0,0,1,,,,,,,,,,,,,,,,,
,,,,,,,,15,2021-05-05_15h30.04.526,premceCat2_ses-02_part-02_label-phase2,2020.2.10,MacIntel,60,,,,,,,,,,,,,,,,0,78,78,76,1,stimuli/objects/papershredder.jpg,left,old,220,,,,,,,,
,,,,,,,,15,2021-05-05_15h30.04.526,premceCat2_ses-02_part-02_label-phase2,2020.2.10,MacIntel,60,,,,,left,0.77007,3,1.305545,right,1.19752,0,0,0,0,1,,,,,,,,,,,,,,,,,
,,,,,,,,15,2021-05-05_15h30.04.526,premceCat2_ses-02_part-02_label-phase2,2020.2.10,MacIntel,60,,,,,,,,,,,,,,,,0,79,79,21,1,stimuli/objects/gluetube.jpg,left,old,165,,,,,,,,
,,,,,,,,15,2021-05-05_15h30.04.526,premceCat2_ses-02_part-02_label-phase2,2020.2.10,MacIntel,60,,,,,right,1.051415,2,0.489095,,,,,,,,0,80,80,16,1,stimuli/objects/bottleopener01.jpg,right,new,160,,,,,,,,
,,,,,,,,15,2021-05-05_15h30.04.526,premceCat2_ses-02_part-02_label-phase2,2020.2.10,MacIntel,60,,,,,right,2.049635,3,0.823875,,,,,,,,0,81,81,135,1,stimuli/objects/mortarandpestle.jpg,right,new,279,,,,,,,,
,,,,,,,,15,2021-05-05_15h30.04.526,premceCat2_ses-02_part-02_label-phase2,2020.2.10,MacIntel,60,,,,,left,9.134145,4,0.64044,left,1.165215,0,0,0,0,1,,,,,,,,,,,,,,,,,
,,,,,,,,15,2021-05-05_15h30.04.526,premceCat2_ses-02_part-02_label-phase2,2020.2.10,MacIntel,60,,,,,,,,,,,,,,,,0,82,82,23,1,stimuli/objects/surfboard.jpg,left,old,167,,,,,,,,
,,,,,,,,15,2021-05-05_15h30.04.526,premceCat2_ses-02_part-02_label-phase2,2020.2.10,MacIntel,60,,,,,right,1.53021,2,0.70647,,,,,,,,0,83,83,34,1,stimuli/objects/kneepad01c.jpg,right,new,178,,,,,,,,
,,,,,,,,15,2021-05-05_15h30.04.526,premceCat2_ses-02_part-02_label-phase2,2020.2.10,MacIntel,60,,,,,left,1.25583,4,0.65109,left,0.654255,0,0,0,0,1,,,,,,,,,,,,,,,,,
,,,,,,,,15,2021-05-05_15h30.04.526,premceCat2_ses-02_part-02_label-phase2,2020.2.10,MacIntel,60,,,,,,,,,,,,,,,,0,84,84,56,1,stimuli/objects/cork02.jpg,left,old,200,,,,,,,,
,,,,,,,,15,2021-05-05_15h30.04.526,premceCat2_ses-02_part-02_label-phase2,2020.2.10,MacIntel,60,,,,,left,0.888025,4,0.472045,left,0.473375,0,0,0,0,1,,,,,,,,,,,,,,,,,
,,,,,,,,15,2021-05-05_15h30.04.526,premceCat2_ses-02_part-02_label-phase2,2020.2.10,MacIntel,60,,,,,,,,,,,,,,,,0,85,85,47,1,stimuli/objects/plate01b.jpg,right,new,191,,,,,,,,
,,,,,,,,15,2021-05-05_15h30.04.526,premceCat2_ses-02_part-02_label-phase2,2020.2.10,MacIntel,60,,,,,right,1.18576,3,0.32301,,,,,,,,0,86,86,131,1,stimuli/objects/handblender.jpg,right,new,275,,,,,,,,
,,,,,,,,15,2021-05-05_15h30.04.526,premceCat2_ses-02_part-02_label-phase2,2020.2.10,MacIntel,60,,,,,left,0.95321,4,0.198545,left,0.453895,0,0,0,0,1,,,,,,,,,,,,,,,,,
,,,,,,,,15,2021-05-05_15h30.04.526,premceCat2_ses-02_part-02_label-phase2,2020.2.10,MacIntel,60,,,,,,,,,,,,,,,,0,87,87,128,1,stimuli/objects/hourglass.jpg,left,old,272,,,,,,,,
,,,,,,,,15,2021-05-05_15h30.04.526,premceCat2_ses-02_part-02_label-phase2,2020.2.10,MacIntel,60,,,,,right,0.820575,4,0.121995,,,,,,,,0,88,88,35,1,stimuli/objects/stroller.jpg,right,new,179,,,,,,,,
,,,,,,,,15,2021-05-05_15h30.04.526,premceCat2_ses-02_part-02_label-phase2,2020.2.10,MacIntel,60,,,,,right,2.388085,2,0.339765,,,,,,,,0,89,89,67,1,stimuli/objects/desktopcomputer.jpg,left,old,211,,,,,,,,
,,,,,,,,15,2021-05-05_15h30.04.526,premceCat2_ses-02_part-02_label-phase2,2020.2.10,MacIntel,60,,,,,left,4.973495,4,0.233745,right,0.288245,0,0,0,0,1,,,,,,,,,,,,,,,,,
,,,,,,,,15,2021-05-05_15h30.04.526,premceCat2_ses-02_part-02_label-phase2,2020.2.10,MacIntel,60,,,,,,,,,,,,,,,,0,90,90,97,1,stimuli/objects/peeler01.jpg,left,old,241,,,,,,,,
,,,,,,,,15,2021-05-05_15h30.04.526,premceCat2_ses-02_part-02_label-phase2,2020.2.10,MacIntel,60,,,,,right,1.08971,3,0.873045,,,,,,,,0,91,91,78,1,stimuli/objects/lightswitch01.jpg,right,new,222,,,,,,,,
,,,,,,,,15,2021-05-05_15h30.04.526,premceCat2_ses-02_part-02_label-phase2,2020.2.10,MacIntel,60,,,,,right,1.95118,2,1.489705,,,,,,,,0,92,92,18,1,stimuli/objects/fanblades.jpg,left,old,162,,,,,,,,
,,,,,,,,15,2021-05-05_15h30.04.526,premceCat2_ses-02_part-02_label-phase2,2020.2.10,MacIntel,60,,,,,right,0.901065,3,0.22439,,,,,,,,0,93,93,4,1,stimuli/objects/cassettetape01a.jpg,right,new,148,,,,,,,,
,,,,,,,,15,2021-05-05_15h30.04.526,premceCat2_ses-02_part-02_label-phase2,2020.2.10,MacIntel,60,,,,,right,1.370045,4,0.27142,,,,,,,,0,94,94,82,1,stimuli/objects/shopvac.jpg,right,new,226,,,,,,,,
,,,,,,,,15,2021-05-05_15h30.04.526,premceCat2_ses-02_part-02_label-phase2,2020.2.10,MacIntel,60,,,,,right,0.917685,4,0.30741,,,,,,,,0,95,95,46,1,stimuli/objects/waterbottleholder.jpg,right,new,190,,,,,,,,
,,,,,,,,15,2021-05-05_15h30.04.526,premceCat2_ses-02_part-02_label-phase2,2020.2.10,MacIntel,60,,,,,left,1.517125,2,1.10501,left,1.28847,0,0,0,0,1,,,,,,,,,,,,,,,,,
,,,,,,,,15,2021-05-05_15h30.04.526,premceCat2_ses-02_part-02_label-phase2,2020.2.10,MacIntel,60,,,,,,,,,,,,,,,,0,96,96,89,1,stimuli/objects/rollingpin01a.jpg,left,old,233,,,,,,,,
,,,,,,,,15,2021-05-05_15h30.04.526,premceCat2_ses-02_part-02_label-phase2,2020.2.10,MacIntel,60,,,,,right,1.250715,3,1.507965,,,,,,,,0,97,97,3,1,stimuli/objects/boxingglove01.jpg,right,new,147,,,,,,,,
,,,,,,,,15,2021-05-05_15h30.04.526,premceCat2_ses-02_part-02_label-phase2,2020.2.10,MacIntel,60,,,,,left,0.899975,4,0.52208,left,0.55606,0,0,0,0,1,,,,,,,,,,,,,,,,,
,,,,,,,,15,2021-05-05_15h30.04.526,premceCat2_ses-02_part-02_label-phase2,2020.2.10,MacIntel,60,,,,,,,,,,,,,,,,0,98,98,58,1,stimuli/objects/skiboot01a.jpg,left,old,202,,,,,,,,
,,,,,,,,15,2021-05-05_15h30.04.526,premceCat2_ses-02_part-02_label-phase2,2020.2.10,MacIntel,60,,,,,right,0.80406,4,0.15715,,,,,,,,0,99,99,60,1,stimuli/objects/kite.jpg,right,new,204,,,,,,,,
,,,,,,,,15,2021-05-05_15h30.04.526,premceCat2_ses-02_part-02_label-phase2,2020.2.10,MacIntel,60,,,,,right,0.886805,3,0.158605,,,,,,,,0,100,100,6,1,stimuli/objects/solderingwire.jpg,right,new,150,,,,,,,,
,,,,,,,,15,2021-05-05_15h30.04.526,premceCat2_ses-02_part-02_label-phase2,2020.2.10,MacIntel,60,,,,,left,2.00137,3,0.82395,right,0.749275,0,0,0,0,1,,,,,,,,,,,,,,,,,
,,,,,,,,15,2021-05-05_15h30.04.526,premceCat2_ses-02_part-02_label-phase2,2020.2.10,MacIntel,60,,,,,,,,,,,,,,,,0,101,101,142,1,stimuli/objects/needlenosepliers01.jpg,right,new,286,,,,,,,,
,,,,,,,,15,2021-05-05_15h30.04.526,premceCat2_ses-02_part-02_label-phase2,2020.2.10,MacIntel,60,,,,,right,5.815425,3,0.620395,,,,,,,,0,102,102,138,1,stimuli/objects/beermug01a.jpg,right,new,282,,,,,,,,
,,,,,,,,15,2021-05-05_15h30.04.526,premceCat2_ses-02_part-02_label-phase2,2020.2.10,MacIntel,60,,,,,left,1.138645,2,0.32148,right,0.35341,0,0,0,0,1,,,,,,,,,,,,,,,,,
,,,,,,,,15,2021-05-05_15h30.04.526,premceCat2_ses-02_part-02_label-phase2,2020.2.10,MacIntel,60,,,,,,,,,,,,,,,,0,103,103,26,1,stimuli/objects/flashlight02b.jpg,right,new,170,,,,,,,,
,,,,,,,,15,2021-05-05_15h30.04.526,premceCat2_ses-02_part-02_label-phase2,2020.2.10,MacIntel,60,,,,,right,3.619125,1,1.354555,,,,,,,,0,104,104,139,1,stimuli/objects/pitcher02b.jpg,left,old,283,,,,,,,,
,,,,,,,,15,2021-05-05_15h30.04.526,premceCat2_ses-02_part-02_label-phase2,2020.2.10,MacIntel,60,,,,,right,1.270835,2,0.222075,,,,,,,,0,105,105,123,1,stimuli/objects/jackhammer.jpg,right,new,267,,,,,,,,
,,,,,,,,15,2021-05-05_15h30.04.526,premceCat2_ses-02_part-02_label-phase2,2020.2.10,MacIntel,60,,,,,right,0.968755,3,0.14002,,,,,,,,0,106,106,30,1,stimuli/objects/halogenlightbulb.jpg,right,new,174,,,,,,,,
,,,,,,,,15,2021-05-05_15h30.04.526,premceCat2_ses-02_part-02_label-phase2,2020.2.10,MacIntel,60,,,,,left,1.370375,3,0.48868,right,0.58953,0,0,0,0,1,,,,,,,,,,,,,,,,,
,,,,,,,,15,2021-05-05_15h30.04.526,premceCat2_ses-02_part-02_label-phase2,2020.2.10,MacIntel,60,,,,,,,,,,,,,,,,0,107,107,65,1,stimuli/objects/gastank.jpg,left,old,209,,,,,,,,
,,,,,,,,15,2021-05-05_15h30.04.526,premceCat2_ses-02_part-02_label-phase2,2020.2.10,MacIntel,60,,,,,left,0.81997,4,0.324445,left,0.082475,0,0,0,0,1,,,,,,,,,,,,,,,,,
,,,,,,,,15,2021-05-05_15h30.04.526,premceCat2_ses-02_part-02_label-phase2,2020.2.10,MacIntel,60,,,,,,,,,,,,,,,,0,108,108,110,1,stimuli/objects/fishingrod.jpg,left,old,254,,,,,,,,
,,,,,,,,15,2021-05-05_15h30.04.526,premceCat2_ses-02_part-02_label-phase2,2020.2.10,MacIntel,60,,,,,right,4.004525,2,0.32156,,,,,,,,0,109,109,70,1,stimuli/objects/shovel01.jpg,right,new,214,,,,,,,,
,,,,,,,,15,2021-05-05_15h30.04.526,premceCat2_ses-02_part-02_label-phase2,2020.2.10,MacIntel,60,,,,,left,0.95357,4,0.224475,left,0.304355,0,0,0,0,1,,,,,,,,,,,,,,,,,
,,,,,,,,15,2021-05-05_15h30.04.526,premceCat2_ses-02_part-02_label-phase2,2020.2.10,MacIntel,60,,,,,,,,,,,,,,,,0,110,110,57,1,stimuli/objects/kiddiepool.jpg,left,old,201,,,,,,,,
,,,,,,,,15,2021-05-05_15h30.04.526,premceCat2_ses-02_part-02_label-phase2,2020.2.10,MacIntel,60,,,,,right,1.03404,3,0.47164,,,,,,,,0,111,111,0,1,stimuli/objects/smokedetector02.jpg,right,new,144,,,,,,,,
,,,,,,,,15,2021-05-05_15h30.04.526,premceCat2_ses-02_part-02_label-phase2,2020.2.10,MacIntel,60,,,,,right,0.998835,4,0.27024,,,,,,,,0,112,112,41,1,stimuli/objects/flask.jpg,right,new,185,,,,,,,,
,,,,,,,,15,2021-05-05_15h30.04.526,premceCat2_ses-02_part-02_label-phase2,2020.2.10,MacIntel,60,,,,,right,1.485125,3,0.221705,,,,,,,,0,113,113,39,1,stimuli/objects/wafflemaker.jpg,right,new,183,,,,,,,,
,,,,,,,,15,2021-05-05_15h30.04.526,premceCat2_ses-02_part-02_label-phase2,2020.2.10,MacIntel,60,,,,,left,1.34979,1,0.655595,right,0.523205,0,0,0,0,1,,,,,,,,,,,,,,,,,
,,,,,,,,15,2021-05-05_15h30.04.526,premceCat2_ses-02_part-02_label-phase2,2020.2.10,MacIntel,60,,,,,,,,,,,,,,,,0,114,114,98,1,stimuli/objects/cameracase01a.jpg,right,new,242,,,,,,,,
,,,,,,,,15,2021-05-05_15h30.04.526,premceCat2_ses-02_part-02_label-phase2,2020.2.10,MacIntel,60,,,,,right,1.15223,3,0.23863,,,,,,,,0,115,115,103,1,stimuli/objects/swissarmyknife01a.jpg,right,new,247,,,,,,,,
,,,,,,,,15,2021-05-05_15h30.04.526,premceCat2_ses-02_part-02_label-phase2,2020.2.10,MacIntel,60,,,,,right,1.17008,3,0.98779,,,,,,,,0,116,116,63,1,stimuli/objects/coffeepot03a.jpg,left,old,207,,,,,,,,
,,,,,,,,15,2021-05-05_15h30.04.526,premceCat2_ses-02_part-02_label-phase2,2020.2.10,MacIntel,60,,,,,left,2.2039,3,0.77109,left,0.63819,0,0,0,0,1,,,,,,,,,,,,,,,,,
,,,,,,,,15,2021-05-05_15h30.04.526,premceCat2_ses-02_part-02_label-phase2,2020.2.10,MacIntel,60,,,,,,,,,,,,,,,,0,117,117,122,1,stimuli/objects/hockeystick.jpg,right,new,266,,,,,,,,
,,,,,,,,15,2021-05-05_15h30.04.526,premceCat2_ses-02_part-02_label-phase2,2020.2.10,MacIntel,60,,,,,right,1.51809,2,0.32323,,,,,,,,0,118,118,101,1,stimuli/objects/lifejacket.jpg,right,new,245,,,,,,,,
,,,,,,,,15,2021-05-05_15h30.04.526,premceCat2_ses-02_part-02_label-phase2,2020.2.10,MacIntel,60,,,,,right,3.28784,3,0.424435,,,,,,,,0,119,119,114,1,stimuli/objects/drinkshaker.jpg,right,new,258,,,,,,,,
,,,,,,,,15,2021-05-05_15h30.04.526,premceCat2_ses-02_part-02_label-phase2,2020.2.10,MacIntel,60,,,,,right,2.573355,3,0.23597,,,,,,,,0,120,120,20,1,stimuli/objects/treadmill.jpg,left,old,164,,,,,,,,
,,,,,,,,15,2021-05-05_15h30.04.526,premceCat2_ses-02_part-02_label-phase2,2020.2.10,MacIntel,60,,,,,right,0.953785,3,0.3216,,,,,,,,0,121,121,133,1,stimuli/objects/birdie.jpg,right,new,277,,,,,,,,
,,,,,,,,15,2021-05-05_15h30.04.526,premceCat2_ses-02_part-02_label-phase2,2020.2.10,MacIntel,60,,,,,left,1.13647,2,0.323865,left,0.337405,0,0,0,0,1,,,,,,,,,,,,,,,,,
,,,,,,,,15,2021-05-05_15h30.04.526,premceCat2_ses-02_part-02_label-phase2,2020.2.10,MacIntel,60,,,,,,,,,,,,,,,,0,122,122,117,1,stimuli/objects/snowboard.jpg,left,old,261,,,,,,,,
,,,,,,,,15,2021-05-05_15h30.04.526,premceCat2_ses-02_part-02_label-phase2,2020.2.10,MacIntel,60,,,,,right,1.17012,3,0.537785,,,,,,,,0,123,123,29,1,stimuli/objects/slidetray.jpg,left,old,173,,,,,,,,
,,,,,,,,15,2021-05-05_15h30.04.526,premceCat2_ses-02_part-02_label-phase2,2020.2.10,MacIntel,60,,,,,left,1.639,2,0.14114,left,1.123605,0,0,0,0,1,,,,,,,,,,,,,,,,,
,,,,,,,,15,2021-05-05_15h30.04.526,premceCat2_ses-02_part-02_label-phase2,2020.2.10,MacIntel,60,,,,,,,,,,,,,,,,0,124,124,92,1,stimuli/objects/axe01.jpg,left,old,236,,,,,,,,
,,,,,,,,15,2021-05-05_15h30.04.526,premceCat2_ses-02_part-02_label-phase2,2020.2.10,MacIntel,60,,,,,left,2.11682,2,0.49115,left,0.146655,0,0,0,0,1,,,,,,,,,,,,,,,,,
,,,,,,,,15,2021-05-05_15h30.04.526,premceCat2_ses-02_part-02_label-phase2,2020.2.10,MacIntel,60,,,,,,,,,,,,,,,,0,125,125,17,1,stimuli/objects/baseball01a.jpg,left,old,161,,,,,,,,
,,,,,,,,15,2021-05-05_15h30.04.526,premceCat2_ses-02_part-02_label-phase2,2020.2.10,MacIntel,60,,,,,right,0.80091,3,0.253855,,,,,,,,0,126,126,24,1,stimuli/objects/monitor.jpg,right,new,168,,,,,,,,
,,,,,,,,15,2021-05-05_15h30.04.526,premceCat2_ses-02_part-02_label-phase2,2020.2.10,MacIntel,60,,,,,right,9.404895,3,1.49061,,,,,,,,0,127,127,108,1,stimuli/objects/outletadapter.jpg,left,old,252,,,,,,,,
,,,,,,,,15,2021-05-05_15h30.04.526,premceCat2_ses-02_part-02_label-phase2,2020.2.10,MacIntel,60,,,,,right,0.91761,4,0.57417,,,,,,,,0,128,128,87,1,stimuli/objects/wiicontroller.jpg,right,new,231,,,,,,,,
,,,,,,,,15,2021-05-05_15h30.04.526,premceCat2_ses-02_part-02_label-phase2,2020.2.10,MacIntel,60,,,,,left,1.903105,3,0.282065,right,0.130345,0,0,0,0,1,,,,,,,,,,,,,,,,,
,,,,,,,,15,2021-05-05_15h30.04.526,premceCat2_ses-02_part-02_label-phase2,2020.2.10,MacIntel,60,,,,,,,,,,,,,,,,0,129,129,22,1,stimuli/objects/aircompressor.jpg,left,old,166,,,,,,,,
,,,,,,,,15,2021-05-05_15h30.04.526,premceCat2_ses-02_part-02_label-phase2,2020.2.10,MacIntel,60,,,,,left,1.487155,1,0.455765,right,0.9567,0,0,0,0,1,,,,,,,,,,,,,,,,,
,,,,,,,,15,2021-05-05_15h30.04.526,premceCat2_ses-02_part-02_label-phase2,2020.2.10,MacIntel,60,,,,,,,,,,,,,,,,0,130,130,43,1,stimuli/objects/bowrake.jpg,right,new,187,,,,,,,,
,,,,,,,,15,2021-05-05_15h30.04.526,premceCat2_ses-02_part-02_label-phase2,2020.2.10,MacIntel,60,,,,,right,0.835265,4,0.18984,,,,,,,,0,131,131,86,1,stimuli/objects/trampoline.jpg,right,new,230,,,,,,,,
,,,,,,,,15,2021-05-05_15h30.04.526,premceCat2_ses-02_part-02_label-phase2,2020.2.10,MacIntel,60,,,,,right,1.40447,4,0.288345,,,,,,,,0,132,132,111,1,stimuli/objects/diaperbag.jpg,right,new,255,,,,,,,,
,,,,,,,,15,2021-05-05_15h30.04.526,premceCat2_ses-02_part-02_label-phase2,2020.2.10,MacIntel,60,,,,,left,0.9016,4,0.172705,right,0.072385,0,0,0,0,1,,,,,,,,,,,,,,,,,
,,,,,,,,15,2021-05-05_15h30.04.526,premceCat2_ses-02_part-02_label-phase2,2020.2.10,MacIntel,60,,,,,,,,,,,,,,,,0,133,133,8,1,stimuli/objects/tape02a.jpg,left,old,152,,,,,,,,
,,,,,,,,15,2021-05-05_15h30.04.526,premceCat2_ses-02_part-02_label-phase2,2020.2.10,MacIntel,60,,,,,left,1.468945,2,0.256825,right,0.27118,0,0,0,0,1,,,,,,,,,,,,,,,,,
,,,,,,,,15,2021-05-05_15h30.04.526,premceCat2_ses-02_part-02_label-phase2,2020.2.10,MacIntel,60,,,,,,,,,,,,,,,,0,134,134,112,1,stimuli/objects/wire.jpg,left,old,256,,,,,,,,
,,,,,,,,15,2021-05-05_15h30.04.526,premceCat2_ses-02_part-02_label-phase2,2020.2.10,MacIntel,60,,,,,right,1.31185,2,0.105965,,,,,,,,0,135,135,141,1,stimuli/objects/waterbottle03.jpg,left,old,285,,,,,,,,
,,,,,,,,15,2021-05-05_15h30.04.526,premceCat2_ses-02_part-02_label-phase2,2020.2.10,MacIntel,60,,,,,right,3.87121,2,0.221645,,,,,,,,0,136,136,80,1,stimuli/objects/barbecue03.jpg,right,new,224,,,,,,,,
,,,,,,,,15,2021-05-05_15h30.04.526,premceCat2_ses-02_part-02_label-phase2,2020.2.10,MacIntel,60,,,,,right,2.24961,3,1.156805,,,,,,,,0,137,137,31,1,stimuli/objects/cooler01.jpg,left,old,175,,,,,,,,
,,,,,,,,15,2021-05-05_15h30.04.526,premceCat2_ses-02_part-02_label-phase2,2020.2.10,MacIntel,60,,,,,left,0.844565,3,0.01228,left,0.674185,0,0,0,0,1,,,,,,,,,,,,,,,,,
,,,,,,,,15,2021-05-05_15h30.04.526,premceCat2_ses-02_part-02_label-phase2,2020.2.10,MacIntel,60,,,,,,,,,,,,,,,,0,138,138,28,1,stimuli/objects/oven.jpg,left,old,172,,,,,,,,
,,,,,,,,15,2021-05-05_15h30.04.526,premceCat2_ses-02_part-02_label-phase2,2020.2.10,MacIntel,60,,,,,left,1.015965,4,0.34194,right,0.137995,0,0,0,0,1,,,,,,,,,,,,,,,,,
,,,,,,,,15,2021-05-05_15h30.04.526,premceCat2_ses-02_part-02_label-phase2,2020.2.10,MacIntel,60,,,,,,,,,,,,,,,,0,139,139,7,1,stimuli/objects/bottlecap.jpg,left,old,151,,,,,,,,
,,,,,,,,15,2021-05-05_15h30.04.526,premceCat2_ses-02_part-02_label-phase2,2020.2.10,MacIntel,60,,,,,left,0.98346,3,0.221665,right,0.286655,0,0,0,0,1,,,,,,,,,,,,,,,,,
,,,,,,,,15,2021-05-05_15h30.04.526,premceCat2_ses-02_part-02_label-phase2,2020.2.10,MacIntel,60,,,,,,,,,,,,,,,,0,140,140,62,1,stimuli/objects/shotglass.jpg,left,old,206,,,,,,,,
,,,,,,,,15,2021-05-05_15h30.04.526,premceCat2_ses-02_part-02_label-phase2,2020.2.10,MacIntel,60,,,,,left,0.96929,3,1.055425,left,0.24008,0,0,0,0,1,,,,,,,,,,,,,,,,,
,,,,,,,,15,2021-05-05_15h30.04.526,premceCat2_ses-02_part-02_label-phase2,2020.2.10,MacIntel,60,,,,,,,,,,,,,,,,0,141,141,134,1,stimuli/objects/electricoutlet.jpg,left,old,278,,,,,,,,
,,,,,,,,15,2021-05-05_15h30.04.526,premceCat2_ses-02_part-02_label-phase2,2020.2.10,MacIntel,60,,,,,right,1.534585,2,0.30524,,,,,,,,0,142,142,109,1,stimuli/objects/saladspinner.jpg,left,old,253,,,,,,,,
,,,,,,,,15,2021-05-05_15h30.04.526,premceCat2_ses-02_part-02_label-phase2,2020.2.10,MacIntel,60,,,,,,,,,,,,,,,,,,,,,,,,,space,3.99709,0,1,1,1,1,condition_files/ImagesforRecog4_2.csv
