myownaccuracy,respcorrs,minNrPractice,considerNrTrials,Instr_resp.keys,Instr_resp.rt,taskGoresp.keys,taskGoresp.rt,warmup_resp.keys,warmup_resp.corr,warmup_resp.rt,myownaccuracyCORR,trials.thisRepN,trials.thisTrialN,trials.thisN,trials.thisIndex,trials.ran,first_character,second_character,Cue,left_categ,centleft_categ,centright_categ,right_categ,corr_ans,trial_cond,switch_cond,cuedCharacter,obj_category,image,participant,date,expName,psychopyVersion,OS,frameRate,task_resp.keys,task_resp.corr,task_resp.rt,task_loop.thisRepN,task_loop.thisTrialN,task_loop.thisN,task_loop.thisIndex,task_loop.ran,list_loop.thisRepN,list_loop.thisTrialN,list_loop.thisN,list_loop.thisIndex,list_loop.ran,conditions
0,[],10,10,space,15.938065,space,5.53634,1,0,1.387755,0,0,0,0,0,1,stimuli/m5.jpg,stimuli/m2.jpg,1,stimuli/Outdoor activity & sport item.png,stimuli/Hand labour tool & accessory.png,stimuli/Kitchen & utensil.png,stimuli/Electronic device & accessory.png,2,1,1,stimuli/m5.jpg,Hand labour tool & accessory,stimuli/objects/handrake01a.jpg,15,2021-05-05_15h01.08.350,premceCat2_ses-02_part-01_label-phase1,2020.2.9,MacIntel,60,,,,,,,,,,,,,,
0,[],,,,,,,1,0,2.000505,0,0,1,1,1,1,stimuli/m2.jpg,stimuli/m5.jpg,2,stimuli/Outdoor activity & sport item.png,stimuli/Electronic device & accessory.png,stimuli/Kitchen & utensil.png,stimuli/Hand labour tool & accessory.png,4,1,1,stimuli/m5.jpg,Hand labour tool & accessory,stimuli/objects/jumpingjack.jpg,15,2021-05-05_15h01.08.350,premceCat2_ses-02_part-01_label-phase1,2020.2.9,MacIntel,60,,,,,,,,,,,,,,
0,[],,,,,,,1,0,2.61673,0,0,2,2,2,1,stimuli/m2.jpg,stimuli/m5.jpg,1,stimuli/Kitchen & utensil.png,stimuli/Hand labour tool & accessory.png,stimuli/Outdoor activity & sport item.png,stimuli/Electronic device & accessory.png,3,1,1,stimuli/m2.jpg,Outdoor activity & sport item,stimuli/objects/racquetballracket.jpg,15,2021-05-05_15h01.08.350,premceCat2_ses-02_part-01_label-phase1,2020.2.9,MacIntel,60,,,,,,,,,,,,,,
1,[],,,,,,,4,1,1.08288,1,0,3,3,3,1,stimuli/m2.jpg,stimuli/m5.jpg,1,stimuli/Electronic device & accessory.png,stimuli/Hand labour tool & accessory.png,stimuli/Kitchen & utensil.png,stimuli/Outdoor activity & sport item.png,4,1,1,stimuli/m2.jpg,Outdoor activity & sport item,stimuli/objects/racquetballracket.jpg,15,2021-05-05_15h01.08.350,premceCat2_ses-02_part-01_label-phase1,2020.2.9,MacIntel,60,,,,,,,,,,,,,,
1,[],,,,,,,1,1,2.53435,1,0,4,4,4,1,stimuli/m2.jpg,stimuli/m5.jpg,1,stimuli/Outdoor activity & sport item.png,stimuli/Kitchen & utensil.png,stimuli/Hand labour tool & accessory.png,stimuli/Electronic device & accessory.png,1,1,1,stimuli/m2.jpg,Outdoor activity & sport item,stimuli/objects/crosscountryski.jpg,15,2021-05-05_15h01.08.350,premceCat2_ses-02_part-01_label-phase1,2020.2.9,MacIntel,60,,,,,,,,,,,,,,
1,[],,,,,,,1,1,1.08257,1,0,5,5,5,1,stimuli/m2.jpg,stimuli/m5.jpg,1,stimuli/Outdoor activity & sport item.png,stimuli/Electronic device & accessory.png,stimuli/Hand labour tool & accessory.png,stimuli/Kitchen & utensil.png,1,1,1,stimuli/m2.jpg,Outdoor activity & sport item,stimuli/objects/crosscountryski.jpg,15,2021-05-05_15h01.08.350,premceCat2_ses-02_part-01_label-phase1,2020.2.9,MacIntel,60,,,,,,,,,,,,,,
1,[],,,,,,,3,1,1.3334,1,0,6,6,6,1,stimuli/m5.jpg,stimuli/m2.jpg,1,stimuli/Outdoor activity & sport item.png,stimuli/Electronic device & accessory.png,stimuli/Hand labour tool & accessory.png,stimuli/Kitchen & utensil.png,3,1,1,stimuli/m5.jpg,Hand labour tool & accessory,stimuli/objects/jumpingjack.jpg,15,2021-05-05_15h01.08.350,premceCat2_ses-02_part-01_label-phase1,2020.2.9,MacIntel,60,,,,,,,,,,,,,,
0,[],,,,,,,2,0,1.31139,1,0,7,7,7,1,stimuli/m2.jpg,stimuli/m5.jpg,2,stimuli/Outdoor activity & sport item.png,stimuli/Electronic device & accessory.png,stimuli/Hand labour tool & accessory.png,stimuli/Kitchen & utensil.png,4,0,1,stimuli/m5.jpg,Kitchen & utensil,stimuli/objects/jug.jpg,15,2021-05-05_15h01.08.350,premceCat2_ses-02_part-01_label-phase1,2020.2.9,MacIntel,60,,,,,,,,,,,,,,
0,[],,,,,,,4,0,0.90002,0,0,8,8,8,1,stimuli/m5.jpg,stimuli/m2.jpg,1,stimuli/Outdoor activity & sport item.png,stimuli/Hand labour tool & accessory.png,stimuli/Electronic device & accessory.png,stimuli/Kitchen & utensil.png,2,1,1,stimuli/m5.jpg,Hand labour tool & accessory,stimuli/objects/pitchfork.jpg,15,2021-05-05_15h01.08.350,premceCat2_ses-02_part-01_label-phase1,2020.2.9,MacIntel,60,,,,,,,,,,,,,,
0,[],,,,,,,4,0,1.70026,0,0,9,9,9,1,stimuli/m5.jpg,stimuli/m2.jpg,2,stimuli/Kitchen & utensil.png,stimuli/Hand labour tool & accessory.png,stimuli/Electronic device & accessory.png,stimuli/Outdoor activity & sport item.png,2,0,1,stimuli/m2.jpg,Hand labour tool & accessory,stimuli/objects/boxcutter03a.jpg,15,2021-05-05_15h01.08.350,premceCat2_ses-02_part-01_label-phase1,2020.2.9,MacIntel,60,,,,,,,,,,,,,,
1,[],,,,,,,4,1,2.551935,1,0,10,10,10,1,stimuli/m5.jpg,stimuli/m2.jpg,1,stimuli/Kitchen & utensil.png,stimuli/Outdoor activity & sport item.png,stimuli/Electronic device & accessory.png,stimuli/Hand labour tool & accessory.png,4,1,1,stimuli/m5.jpg,Hand labour tool & accessory,stimuli/objects/gavel.jpg,15,2021-05-05_15h01.08.350,premceCat2_ses-02_part-01_label-phase1,2020.2.9,MacIntel,60,,,,,,,,,,,,,,
0,[],,,,,,,2,0,1.750435,1,0,11,11,11,1,stimuli/m5.jpg,stimuli/m2.jpg,1,stimuli/Kitchen & utensil.png,stimuli/Hand labour tool & accessory.png,stimuli/Electronic device & accessory.png,stimuli/Outdoor activity & sport item.png,4,0,1,stimuli/m5.jpg,Outdoor activity & sport item,stimuli/objects/swing.jpg,15,2021-05-05_15h01.08.350,premceCat2_ses-02_part-01_label-phase1,2020.2.9,MacIntel,60,,,,,,,,,,,,,,
1,[],,,,,,,1,1,1.516015,1,0,12,12,12,1,stimuli/m5.jpg,stimuli/m2.jpg,2,stimuli/Outdoor activity & sport item.png,stimuli/Electronic device & accessory.png,stimuli/Kitchen & utensil.png,stimuli/Hand labour tool & accessory.png,1,1,1,stimuli/m2.jpg,Outdoor activity & sport item,stimuli/objects/bicycle.jpg,15,2021-05-05_15h01.08.350,premceCat2_ses-02_part-01_label-phase1,2020.2.9,MacIntel,60,,,,,,,,,,,,,,
0,[],,,,,,,3,0,1.43365,0,0,13,13,13,1,stimuli/m2.jpg,stimuli/m5.jpg,1,stimuli/Electronic device & accessory.png,stimuli/Outdoor activity & sport item.png,stimuli/Hand labour tool & accessory.png,stimuli/Kitchen & utensil.png,2,1,1,stimuli/m2.jpg,Outdoor activity & sport item,stimuli/objects/racquetballracket.jpg,15,2021-05-05_15h01.08.350,premceCat2_ses-02_part-01_label-phase1,2020.2.9,MacIntel,60,,,,,,,,,,,,,,
0,[],,,,,,,1,0,1.83471,0,0,14,14,14,1,stimuli/m5.jpg,stimuli/m2.jpg,1,stimuli/Hand labour tool & accessory.png,stimuli/Outdoor activity & sport item.png,stimuli/Kitchen & utensil.png,stimuli/Electronic device & accessory.png,3,0,1,stimuli/m5.jpg,Kitchen & utensil,stimuli/objects/freezer02.jpg,15,2021-05-05_15h01.08.350,premceCat2_ses-02_part-01_label-phase1,2020.2.9,MacIntel,60,,,,,,,,,,,,,,
0,[],,,,,,,4,0,1.283585,0,0,15,15,15,1,stimuli/m2.jpg,stimuli/m5.jpg,1,stimuli/Kitchen & utensil.png,stimuli/Hand labour tool & accessory.png,stimuli/Electronic device & accessory.png,stimuli/Outdoor activity & sport item.png,2,0,1,stimuli/m2.jpg,Hand labour tool & accessory,stimuli/objects/handrake01a.jpg,15,2021-05-05_15h01.08.350,premceCat2_ses-02_part-01_label-phase1,2020.2.9,MacIntel,60,,,,,,,,,,,,,,
1,[],,,,,,,2,1,1.56619,1,0,16,16,16,1,stimuli/m5.jpg,stimuli/m2.jpg,2,stimuli/Hand labour tool & accessory.png,stimuli/Outdoor activity & sport item.png,stimuli/Kitchen & utensil.png,stimuli/Electronic device & accessory.png,2,1,1,stimuli/m2.jpg,Outdoor activity & sport item,stimuli/objects/rollerblade.jpg,15,2021-05-05_15h01.08.350,premceCat2_ses-02_part-01_label-phase1,2020.2.9,MacIntel,60,,,,,,,,,,,,,,
1,[],,,,,,,1,1,2.06804,1,0,17,17,17,1,stimuli/m2.jpg,stimuli/m5.jpg,2,stimuli/Hand labour tool & accessory.png,stimuli/Kitchen & utensil.png,stimuli/Electronic device & accessory.png,stimuli/Outdoor activity & sport item.png,1,1,1,stimuli/m5.jpg,Hand labour tool & accessory,stimuli/objects/hedgetrimmer.jpg,15,2021-05-05_15h01.08.350,premceCat2_ses-02_part-01_label-phase1,2020.2.9,MacIntel,60,,,,,,,,,,,,,,
0,[],,,,,,,2,0,1.39994,0,0,18,18,18,1,stimuli/m5.jpg,stimuli/m2.jpg,1,stimuli/Hand labour tool & accessory.png,stimuli/Outdoor activity & sport item.png,stimuli/Electronic device & accessory.png,stimuli/Kitchen & utensil.png,1,1,1,stimuli/m5.jpg,Hand labour tool & accessory,stimuli/objects/jumpingjack.jpg,15,2021-05-05_15h01.08.350,premceCat2_ses-02_part-01_label-phase1,2020.2.9,MacIntel,60,,,,,,,,,,,,,,
0,[],,,,,,,,,,0,,,,,,stimuli/m2.jpg,stimuli/m5.jpg,2,stimuli/Electronic device & accessory.png,stimuli/Kitchen & utensil.png,stimuli/Hand labour tool & accessory.png,stimuli/Outdoor activity & sport item.png,2,0,2,stimuli/m5.jpg,Kitchen & utensil,stimuli/objects/jar02.jpg,15,2021-05-05_15h01.08.350,premceCat2_ses-02_part-01_label-phase1,2020.2.9,MacIntel,60,4,0,1.67843,0,0,0,0,1,,,,,,
1,[],,,,,,,,,,1,,,,,,stimuli/m2.jpg,stimuli/m5.jpg,1,stimuli/Kitchen & utensil.png,stimuli/Outdoor activity & sport item.png,stimuli/Electronic device & accessory.png,stimuli/Hand labour tool & accessory.png,2,1,2,stimuli/m2.jpg,Outdoor activity & sport item,stimuli/objects/skiboot01a.jpg,15,2021-05-05_15h01.08.350,premceCat2_ses-02_part-01_label-phase1,2020.2.9,MacIntel,60,2,1,0.749325,0,1,1,1,1,,,,,,
0,[1],,,,,,,,,,1,,,,,,stimuli/m2.jpg,stimuli/m5.jpg,2,stimuli/Electronic device & accessory.png,stimuli/Hand labour tool & accessory.png,stimuli/Outdoor activity & sport item.png,stimuli/Kitchen & utensil.png,3,0,2,stimuli/m5.jpg,Outdoor activity & sport item,stimuli/objects/bikepump01.jpg,15,2021-05-05_15h01.08.350,premceCat2_ses-02_part-01_label-phase1,2020.2.9,MacIntel,60,4,0,1.19313,0,2,2,2,1,,,,,,
0,[1],,,,,,,,,,0,,,,,,stimuli/m2.jpg,stimuli/m5.jpg,2,stimuli/Kitchen & utensil.png,stimuli/Hand labour tool & accessory.png,stimuli/Electronic device & accessory.png,stimuli/Outdoor activity & sport item.png,2,1,2,stimuli/m5.jpg,Hand labour tool & accessory,stimuli/objects/sledgehammer.jpg,15,2021-05-05_15h01.08.350,premceCat2_ses-02_part-01_label-phase1,2020.2.9,MacIntel,60,4,0,1.884015,0,3,3,3,1,,,,,,
0,"[1,0]",,,,,,,,,,0,,,,,,stimuli/m2.jpg,stimuli/m5.jpg,1,stimuli/Kitchen & utensil.png,stimuli/Hand labour tool & accessory.png,stimuli/Electronic device & accessory.png,stimuli/Outdoor activity & sport item.png,3,0,2,stimuli/m2.jpg,Electronic device & accessory,stimuli/objects/fuse.jpg,15,2021-05-05_15h01.08.350,premceCat2_ses-02_part-01_label-phase1,2020.2.9,MacIntel,60,4,0,1.21726,0,4,4,4,1,,,,,,
1,"[1,0]",,,,,,,,,,1,,,,,,stimuli/m5.jpg,stimuli/m2.jpg,2,stimuli/Hand labour tool & accessory.png,stimuli/Electronic device & accessory.png,stimuli/Kitchen & utensil.png,stimuli/Outdoor activity & sport item.png,4,1,2,stimuli/m2.jpg,Outdoor activity & sport item,stimuli/objects/hockeygoalieglove.jpg,15,2021-05-05_15h01.08.350,premceCat2_ses-02_part-01_label-phase1,2020.2.9,MacIntel,60,4,1,0.732895,0,5,5,5,1,,,,,,
0,"[1,0,1]",,,,,,,,,,1,,,,,,stimuli/m5.jpg,stimuli/m2.jpg,1,stimuli/Electronic device & accessory.png,stimuli/Outdoor activity & sport item.png,stimuli/Kitchen & utensil.png,stimuli/Hand labour tool & accessory.png,1,0,2,stimuli/m5.jpg,Electronic device & accessory,stimuli/objects/vhstape.jpg,15,2021-05-05_15h01.08.350,premceCat2_ses-02_part-01_label-phase1,2020.2.9,MacIntel,60,4,0,3.051495,0,6,6,6,1,,,,,,
0,"[1,0,1]",,,,,,,,,,1,,,,,,stimuli/m2.jpg,stimuli/m5.jpg,2,stimuli/Electronic device & accessory.png,stimuli/Kitchen & utensil.png,stimuli/Outdoor activity & sport item.png,stimuli/Hand labour tool & accessory.png,2,0,2,stimuli/m5.jpg,Kitchen & utensil,stimuli/objects/handmixer01d.jpg,15,2021-05-05_15h01.08.350,premceCat2_ses-02_part-01_label-phase1,2020.2.9,MacIntel,60,1,0,1.28398,0,7,7,7,1,,,,,,
0,"[1,0,1]",,,,,,,,,,0,,,,,,stimuli/m5.jpg,stimuli/m2.jpg,2,stimuli/Outdoor activity & sport item.png,stimuli/Hand labour tool & accessory.png,stimuli/Kitchen & utensil.png,stimuli/Electronic device & accessory.png,1,1,2,stimuli/m2.jpg,Outdoor activity & sport item,stimuli/objects/handgripper.jpg,15,2021-05-05_15h01.08.350,premceCat2_ses-02_part-01_label-phase1,2020.2.9,MacIntel,60,2,0,0.685025,0,8,8,8,1,,,,,,
0,"[1,0,1,0]",,,,,,,,,,0,,,,,,stimuli/m2.jpg,stimuli/m5.jpg,1,stimuli/Electronic device & accessory.png,stimuli/Hand labour tool & accessory.png,stimuli/Kitchen & utensil.png,stimuli/Outdoor activity & sport item.png,4,1,2,stimuli/m2.jpg,Outdoor activity & sport item,stimuli/objects/treadmill.jpg,15,2021-05-05_15h01.08.350,premceCat2_ses-02_part-01_label-phase1,2020.2.9,MacIntel,60,3,0,1.115805,0,9,9,9,1,,,,,,
1,"[1,0,1,0,0]",,,,,,,,,,1,,,,,,stimuli/m2.jpg,stimuli/m5.jpg,1,stimuli/Electronic device & accessory.png,stimuli/Outdoor activity & sport item.png,stimuli/Hand labour tool & accessory.png,stimuli/Kitchen & utensil.png,2,1,2,stimuli/m2.jpg,Outdoor activity & sport item,stimuli/objects/catchermask.jpg,15,2021-05-05_15h01.08.350,premceCat2_ses-02_part-01_label-phase1,2020.2.9,MacIntel,60,2,1,1.40139,0,10,10,10,1,,,,,,
0,"[1,0,1,0,0,1]",,,,,,,,,,0,,,,,,stimuli/m5.jpg,stimuli/m2.jpg,1,stimuli/Electronic device & accessory.png,stimuli/Outdoor activity & sport item.png,stimuli/Hand labour tool & accessory.png,stimuli/Kitchen & utensil.png,3,1,2,stimuli/m5.jpg,Hand labour tool & accessory,stimuli/objects/axe01.jpg,15,2021-05-05_15h01.08.350,premceCat2_ses-02_part-01_label-phase1,2020.2.9,MacIntel,60,2,0,1.334135,0,11,11,11,1,,,,,,
0,"[1,0,1,0,0,1,0]",,,,,,,,,,0,,,,,,stimuli/m2.jpg,stimuli/m5.jpg,2,stimuli/Kitchen & utensil.png,stimuli/Hand labour tool & accessory.png,stimuli/Outdoor activity & sport item.png,stimuli/Electronic device & accessory.png,2,1,2,stimuli/m5.jpg,Hand labour tool & accessory,stimuli/objects/pliers02b.jpg,15,2021-05-05_15h01.08.350,premceCat2_ses-02_part-01_label-phase1,2020.2.9,MacIntel,60,3,0,1.50038,0,12,12,12,1,,,,,,
1,"[1,0,1,0,0,1,0,0]",,,,,,,,,,1,,,,,,stimuli/m5.jpg,stimuli/m2.jpg,2,stimuli/Kitchen & utensil.png,stimuli/Outdoor activity & sport item.png,stimuli/Hand labour tool & accessory.png,stimuli/Electronic device & accessory.png,2,1,2,stimuli/m2.jpg,Outdoor activity & sport item,stimuli/objects/badmintonracket.jpg,15,2021-05-05_15h01.08.350,premceCat2_ses-02_part-01_label-phase1,2020.2.9,MacIntel,60,2,1,0.75013,0,13,13,13,1,,,,,,
0,"[1,0,1,0,0,1,0,0,1]",,,,,,,,,,1,,,,,,stimuli/m2.jpg,stimuli/m5.jpg,1,stimuli/Outdoor activity & sport item.png,stimuli/Kitchen & utensil.png,stimuli/Hand labour tool & accessory.png,stimuli/Electronic device & accessory.png,2,0,2,stimuli/m2.jpg,Kitchen & utensil,stimuli/objects/cookiecutter.jpg,15,2021-05-05_15h01.08.350,premceCat2_ses-02_part-01_label-phase1,2020.2.9,MacIntel,60,1,0,1.36768,0,14,14,14,1,,,,,,
1,"[1,0,1,0,0,1,0,0,1]",,,,,,,,,,1,,,,,,stimuli/m2.jpg,stimuli/m5.jpg,1,stimuli/Electronic device & accessory.png,stimuli/Hand labour tool & accessory.png,stimuli/Outdoor activity & sport item.png,stimuli/Kitchen & utensil.png,4,0,2,stimuli/m2.jpg,Kitchen & utensil,stimuli/objects/espressomachine.jpg,15,2021-05-05_15h01.08.350,premceCat2_ses-02_part-01_label-phase1,2020.2.9,MacIntel,60,4,1,1.548285,0,15,15,15,1,,,,,,
1,"[1,0,1,0,0,1,0,0,1]",,,,,,,,,,1,,,,,,stimuli/m5.jpg,stimuli/m2.jpg,1,stimuli/Kitchen & utensil.png,stimuli/Outdoor activity & sport item.png,stimuli/Hand labour tool & accessory.png,stimuli/Electronic device & accessory.png,3,1,2,stimuli/m5.jpg,Hand labour tool & accessory,stimuli/objects/leafrake.jpg,15,2021-05-05_15h01.08.350,premceCat2_ses-02_part-01_label-phase1,2020.2.9,MacIntel,60,3,1,0.915885,0,16,16,16,1,,,,,,
0,"[1,0,1,0,0,1,0,0,1,1]",,,,,,,,,,1,,,,,,stimuli/m2.jpg,stimuli/m5.jpg,2,stimuli/Outdoor activity & sport item.png,stimuli/Electronic device & accessory.png,stimuli/Hand labour tool & accessory.png,stimuli/Kitchen & utensil.png,2,0,2,stimuli/m5.jpg,Electronic device & accessory,stimuli/objects/payphone.jpg,15,2021-05-05_15h01.08.350,premceCat2_ses-02_part-01_label-phase1,2020.2.9,MacIntel,60,1,0,1.335055,0,17,17,17,1,,,,,,
0,"[1,0,1,0,0,1,0,0,1,1]",,,,,,,,,,0,,,,,,stimuli/m5.jpg,stimuli/m2.jpg,2,stimuli/Electronic device & accessory.png,stimuli/Outdoor activity & sport item.png,stimuli/Kitchen & utensil.png,stimuli/Hand labour tool & accessory.png,2,1,2,stimuli/m2.jpg,Outdoor activity & sport item,stimuli/objects/weight01.jpg,15,2021-05-05_15h01.08.350,premceCat2_ses-02_part-01_label-phase1,2020.2.9,MacIntel,60,3,0,1.433405,0,18,18,18,1,,,,,,
1,"[1,0,1,0,0,1,0,0,1,1,0]",,,,,,,,,,1,,,,,,stimuli/m2.jpg,stimuli/m5.jpg,2,stimuli/Hand labour tool & accessory.png,stimuli/Outdoor activity & sport item.png,stimuli/Kitchen & utensil.png,stimuli/Electronic device & accessory.png,1,1,2,stimuli/m5.jpg,Hand labour tool & accessory,stimuli/objects/knifesharpener.jpg,15,2021-05-05_15h01.08.350,premceCat2_ses-02_part-01_label-phase1,2020.2.9,MacIntel,60,1,1,0.860585,0,19,19,19,1,,,,,,
1,"[1,0,1,0,0,1,0,0,1,1,0,1]",,,,,,,,,,1,,,,,,stimuli/m2.jpg,stimuli/m5.jpg,1,stimuli/Hand labour tool & accessory.png,stimuli/Electronic device & accessory.png,stimuli/Outdoor activity & sport item.png,stimuli/Kitchen & utensil.png,3,1,2,stimuli/m2.jpg,Outdoor activity & sport item,stimuli/objects/hockeygoaliemask.jpg,15,2021-05-05_15h01.08.350,premceCat2_ses-02_part-01_label-phase1,2020.2.9,MacIntel,60,3,1,1.100295,0,20,20,20,1,,,,,,
1,"[1,0,1,0,0,1,0,0,1,1,0,1,1]",,,,,,,,,,1,,,,,,stimuli/m5.jpg,stimuli/m2.jpg,1,stimuli/Electronic device & accessory.png,stimuli/Kitchen & utensil.png,stimuli/Outdoor activity & sport item.png,stimuli/Hand labour tool & accessory.png,4,1,2,stimuli/m5.jpg,Hand labour tool & accessory,stimuli/objects/staplegun.jpg,15,2021-05-05_15h01.08.350,premceCat2_ses-02_part-01_label-phase1,2020.2.9,MacIntel,60,4,1,1.3511,0,21,21,21,1,,,,,,
1,"[1,0,1,0,0,1,0,0,1,1,0,1,1,1]",,,,,,,,,,1,,,,,,stimuli/m2.jpg,stimuli/m5.jpg,1,stimuli/Hand labour tool & accessory.png,stimuli/Kitchen & utensil.png,stimuli/Electronic device & accessory.png,stimuli/Outdoor activity & sport item.png,4,1,2,stimuli/m2.jpg,Outdoor activity & sport item,stimuli/objects/charcoalbarbecue.jpg,15,2021-05-05_15h01.08.350,premceCat2_ses-02_part-01_label-phase1,2020.2.9,MacIntel,60,4,1,1.450035,0,22,22,22,1,,,,,,
1,"[1,0,1,0,0,1,0,0,1,1,0,1,1,1,1]",,,,,,,,,,1,,,,,,stimuli/m2.jpg,stimuli/m5.jpg,2,stimuli/Kitchen & utensil.png,stimuli/Electronic device & accessory.png,stimuli/Hand labour tool & accessory.png,stimuli/Outdoor activity & sport item.png,3,1,2,stimuli/m5.jpg,Hand labour tool & accessory,stimuli/objects/setsquare.jpg,15,2021-05-05_15h01.08.350,premceCat2_ses-02_part-01_label-phase1,2020.2.9,MacIntel,60,3,1,1.26658,0,23,23,23,1,,,,,,
0,"[1,0,1,0,0,1,0,0,1,1,0,1,1,1,1,1]",,,,,,,,,,1,,,,,,stimuli/m5.jpg,stimuli/m2.jpg,2,stimuli/Electronic device & accessory.png,stimuli/Hand labour tool & accessory.png,stimuli/Kitchen & utensil.png,stimuli/Outdoor activity & sport item.png,1,0,2,stimuli/m2.jpg,Electronic device & accessory,stimuli/objects/alarmclock01.jpg,15,2021-05-05_15h01.08.350,premceCat2_ses-02_part-01_label-phase1,2020.2.9,MacIntel,60,4,0,1.24987,0,24,24,24,1,,,,,,
0,"[1,0,1,0,0,1,0,0,1,1,0,1,1,1,1,1]",,,,,,,,,,0,,,,,,stimuli/m2.jpg,stimuli/m5.jpg,2,stimuli/Hand labour tool & accessory.png,stimuli/Outdoor activity & sport item.png,stimuli/Electronic device & accessory.png,stimuli/Kitchen & utensil.png,1,1,2,stimuli/m5.jpg,Hand labour tool & accessory,stimuli/objects/gluetube.jpg,15,2021-05-05_15h01.08.350,premceCat2_ses-02_part-01_label-phase1,2020.2.9,MacIntel,60,3,0,0.99953,0,25,25,25,1,,,,,,
1,"[1,0,1,0,0,1,0,0,1,1,0,1,1,1,1,1,0]",,,,,,,,,,1,,,,,,stimuli/m5.jpg,stimuli/m2.jpg,1,stimuli/Kitchen & utensil.png,stimuli/Hand labour tool & accessory.png,stimuli/Outdoor activity & sport item.png,stimuli/Electronic device & accessory.png,2,1,2,stimuli/m5.jpg,Hand labour tool & accessory,stimuli/objects/sewingmachine01a.jpg,15,2021-05-05_15h01.08.350,premceCat2_ses-02_part-01_label-phase1,2020.2.9,MacIntel,60,2,1,0.900075,0,26,26,26,1,,,,,,
0,"[1,0,1,0,0,1,0,0,1,1,0,1,1,1,1,1,0,1]",,,,,,,,,,0,,,,,,stimuli/m5.jpg,stimuli/m2.jpg,2,stimuli/Kitchen & utensil.png,stimuli/Hand labour tool & accessory.png,stimuli/Electronic device & accessory.png,stimuli/Outdoor activity & sport item.png,4,1,2,stimuli/m2.jpg,Outdoor activity & sport item,stimuli/objects/exercisemachine.jpg,15,2021-05-05_15h01.08.350,premceCat2_ses-02_part-01_label-phase1,2020.2.9,MacIntel,60,1,0,1.55279,0,27,27,27,1,,,,,,
1,"[1,0,1,0,0,1,0,0,1,1,0,1,1,1,1,1,0,1,0]",,,,,,,,,,1,,,,,,stimuli/m2.jpg,stimuli/m5.jpg,1,stimuli/Hand labour tool & accessory.png,stimuli/Kitchen & utensil.png,stimuli/Outdoor activity & sport item.png,stimuli/Electronic device & accessory.png,3,1,2,stimuli/m2.jpg,Outdoor activity & sport item,stimuli/objects/hockeypuck.jpg,15,2021-05-05_15h01.08.350,premceCat2_ses-02_part-01_label-phase1,2020.2.9,MacIntel,60,3,1,1.3998,0,28,28,28,1,,,,,,
1,"[1,0,1,0,0,1,0,0,1,1,0,1,1,1,1,1,0,1,0,1]",,,,,,,,,,1,,,,,,stimuli/m5.jpg,stimuli/m2.jpg,2,stimuli/Electronic device & accessory.png,stimuli/Outdoor activity & sport item.png,stimuli/Hand labour tool & accessory.png,stimuli/Kitchen & utensil.png,2,1,2,stimuli/m2.jpg,Outdoor activity & sport item,stimuli/objects/cooler01.jpg,15,2021-05-05_15h01.08.350,premceCat2_ses-02_part-01_label-phase1,2020.2.9,MacIntel,60,2,1,0.79848,0,29,29,29,1,,,,,,
1,"[1,0,1,0,0,1,0,0,1,1,0,1,1,1,1,1,0,1,0,1,1]",,,,,,,,,,1,,,,,,stimuli/m2.jpg,stimuli/m5.jpg,2,stimuli/Kitchen & utensil.png,stimuli/Outdoor activity & sport item.png,stimuli/Electronic device & accessory.png,stimuli/Hand labour tool & accessory.png,4,1,2,stimuli/m5.jpg,Hand labour tool & accessory,stimuli/objects/bungeecord02.jpg,15,2021-05-05_15h01.08.350,premceCat2_ses-02_part-01_label-phase1,2020.2.9,MacIntel,60,4,1,1.31929,0,30,30,30,1,,,,,,
1,"[1,0,1,0,0,1,0,0,1,1,0,1,1,1,1,1,0,1,0,1,1,1]",,,,,,,,,,1,,,,,,stimuli/m2.jpg,stimuli/m5.jpg,2,stimuli/Hand labour tool & accessory.png,stimuli/Kitchen & utensil.png,stimuli/Outdoor activity & sport item.png,stimuli/Electronic device & accessory.png,1,1,2,stimuli/m5.jpg,Hand labour tool & accessory,stimuli/objects/pipewrench.jpg,15,2021-05-05_15h01.08.350,premceCat2_ses-02_part-01_label-phase1,2020.2.9,MacIntel,60,1,1,0.983545,0,31,31,31,1,,,,,,
0,"[1,0,1,0,0,1,0,0,1,1,0,1,1,1,1,1,0,1,0,1,1,1,1]",,,,,,,,,,1,,,,,,stimuli/m5.jpg,stimuli/m2.jpg,2,stimuli/Kitchen & utensil.png,stimuli/Hand labour tool & accessory.png,stimuli/Outdoor activity & sport item.png,stimuli/Electronic device & accessory.png,2,0,2,stimuli/m2.jpg,Hand labour tool & accessory,stimuli/objects/jumpercables.jpg,15,2021-05-05_15h01.08.350,premceCat2_ses-02_part-01_label-phase1,2020.2.9,MacIntel,60,3,0,1.03322,0,32,32,32,1,,,,,,
1,"[1,0,1,0,0,1,0,0,1,1,0,1,1,1,1,1,0,1,0,1,1,1,1]",,,,,,,,,,1,,,,,,stimuli/m5.jpg,stimuli/m2.jpg,1,stimuli/Outdoor activity & sport item.png,stimuli/Hand labour tool & accessory.png,stimuli/Kitchen & utensil.png,stimuli/Electronic device & accessory.png,2,1,2,stimuli/m5.jpg,Hand labour tool & accessory,stimuli/objects/tape02a.jpg,15,2021-05-05_15h01.08.350,premceCat2_ses-02_part-01_label-phase1,2020.2.9,MacIntel,60,2,1,1.033365,0,33,33,33,1,,,,,,
1,"[1,0,1,0,0,1,0,0,1,1,0,1,1,1,1,1,0,1,0,1,1,1,1,1]",,,,,,,,,,1,,,,,,stimuli/m5.jpg,stimuli/m2.jpg,1,stimuli/Electronic device & accessory.png,stimuli/Hand labour tool & accessory.png,stimuli/Kitchen & utensil.png,stimuli/Outdoor activity & sport item.png,2,1,2,stimuli/m5.jpg,Hand labour tool & accessory,stimuli/objects/wheelbarrow01.jpg,15,2021-05-05_15h01.08.350,premceCat2_ses-02_part-01_label-phase1,2020.2.9,MacIntel,60,2,1,0.566205,0,34,34,34,1,,,,,,
1,"[1,0,1,0,0,1,0,0,1,1,0,1,1,1,1,1,0,1,0,1,1,1,1,1,1]",,,,,,,,,,1,,,,,,stimuli/m5.jpg,stimuli/m2.jpg,1,stimuli/Outdoor activity & sport item.png,stimuli/Hand labour tool & accessory.png,stimuli/Electronic device & accessory.png,stimuli/Kitchen & utensil.png,1,0,2,stimuli/m5.jpg,Outdoor activity & sport item,stimuli/objects/baseballbat.jpg,15,2021-05-05_15h01.08.350,premceCat2_ses-02_part-01_label-phase1,2020.2.9,MacIntel,60,1,1,1.083985,0,35,35,35,1,,,,,,
1,"[1,0,1,0,0,1,0,0,1,1,0,1,1,1,1,1,0,1,0,1,1,1,1,1,1]",,,,,,,,,,1,,,,,,stimuli/m2.jpg,stimuli/m5.jpg,1,stimuli/Outdoor activity & sport item.png,stimuli/Electronic device & accessory.png,stimuli/Kitchen & utensil.png,stimuli/Hand labour tool & accessory.png,1,1,2,stimuli/m2.jpg,Outdoor activity & sport item,stimuli/objects/volleyball.jpg,15,2021-05-05_15h01.08.350,premceCat2_ses-02_part-01_label-phase1,2020.2.9,MacIntel,60,1,1,1.101945,0,36,36,36,1,,,,,,
1,"[1,0,1,0,0,1,0,0,1,1,0,1,1,1,1,1,0,1,0,1,1,1,1,1,1,1]",,,,,,,,,,1,,,,,,stimuli/m5.jpg,stimuli/m2.jpg,2,stimuli/Hand labour tool & accessory.png,stimuli/Outdoor activity & sport item.png,stimuli/Kitchen & utensil.png,stimuli/Electronic device & accessory.png,2,1,2,stimuli/m2.jpg,Outdoor activity & sport item,stimuli/objects/baseball01a.jpg,15,2021-05-05_15h01.08.350,premceCat2_ses-02_part-01_label-phase1,2020.2.9,MacIntel,60,2,1,1.049635,0,37,37,37,1,,,,,,
1,"[1,0,1,0,0,1,0,0,1,1,0,1,1,1,1,1,0,1,0,1,1,1,1,1,1,1,1]",,,,,,,,,,1,,,,,,stimuli/m5.jpg,stimuli/m2.jpg,2,stimuli/Outdoor activity & sport item.png,stimuli/Electronic device & accessory.png,stimuli/Hand labour tool & accessory.png,stimuli/Kitchen & utensil.png,1,1,2,stimuli/m2.jpg,Outdoor activity & sport item,stimuli/objects/skihelmet01.jpg,15,2021-05-05_15h01.08.350,premceCat2_ses-02_part-01_label-phase1,2020.2.9,MacIntel,60,1,1,0.95043,0,38,38,38,1,,,,,,
1,"[1,0,1,0,0,1,0,0,1,1,0,1,1,1,1,1,0,1,0,1,1,1,1,1,1,1,1,1]",,,,,,,,,,1,,,,,,stimuli/m2.jpg,stimuli/m5.jpg,1,stimuli/Hand labour tool & accessory.png,stimuli/Outdoor activity & sport item.png,stimuli/Electronic device & accessory.png,stimuli/Kitchen & utensil.png,2,1,2,stimuli/m2.jpg,Outdoor activity & sport item,stimuli/objects/shinpad.jpg,15,2021-05-05_15h01.08.350,premceCat2_ses-02_part-01_label-phase1,2020.2.9,MacIntel,60,2,1,0.91663,0,39,39,39,1,,,,,,
0,"[1,0,1,0,0,1,0,0,1,1,0,1,1,1,1,1,0,1,0,1,1,1,1,1,1,1,1,1,1]",,,,,,,,,,0,,,,,,stimuli/m5.jpg,stimuli/m2.jpg,1,stimuli/Outdoor activity & sport item.png,stimuli/Electronic device & accessory.png,stimuli/Kitchen & utensil.png,stimuli/Hand labour tool & accessory.png,4,1,2,stimuli/m5.jpg,Hand labour tool & accessory,stimuli/objects/chainsaw.jpg,15,2021-05-05_15h01.08.350,premceCat2_ses-02_part-01_label-phase1,2020.2.9,MacIntel,60,1,0,0.94875,0,40,40,40,1,,,,,,
0,"[1,0,1,0,0,1,0,0,1,1,0,1,1,1,1,1,0,1,0,1,1,1,1,1,1,1,1,1,1,0]",,,,,,,,,,0,,,,,,stimuli/m2.jpg,stimuli/m5.jpg,1,stimuli/Kitchen & utensil.png,stimuli/Hand labour tool & accessory.png,stimuli/Outdoor activity & sport item.png,stimuli/Electronic device & accessory.png,2,0,2,stimuli/m2.jpg,Hand labour tool & accessory,stimuli/objects/hedgeshears.jpg,15,2021-05-05_15h01.08.350,premceCat2_ses-02_part-01_label-phase1,2020.2.9,MacIntel,60,3,0,1.083375,0,41,41,41,1,,,,,,
0,"[1,0,1,0,0,1,0,0,1,1,0,1,1,1,1,1,0,1,0,1,1,1,1,1,1,1,1,1,1,0]",,,,,,,,,,0,,,,,,stimuli/m2.jpg,stimuli/m5.jpg,2,stimuli/Outdoor activity & sport item.png,stimuli/Hand labour tool & accessory.png,stimuli/Kitchen & utensil.png,stimuli/Electronic device & accessory.png,2,1,2,stimuli/m5.jpg,Hand labour tool & accessory,stimuli/objects/toyhardhat.jpg,15,2021-05-05_15h01.08.350,premceCat2_ses-02_part-01_label-phase1,2020.2.9,MacIntel,60,4,0,1.61489,0,42,42,42,1,,,,,,
1,"[1,0,1,0,0,1,0,0,1,1,0,1,1,1,1,1,0,1,0,1,1,1,1,1,1,1,1,1,1,0,0]",,,,,,,,,,1,,,,,,stimuli/m5.jpg,stimuli/m2.jpg,2,stimuli/Electronic device & accessory.png,stimuli/Kitchen & utensil.png,stimuli/Outdoor activity & sport item.png,stimuli/Hand labour tool & accessory.png,3,1,2,stimuli/m2.jpg,Outdoor activity & sport item,stimuli/objects/fishinghook03.jpg,15,2021-05-05_15h01.08.350,premceCat2_ses-02_part-01_label-phase1,2020.2.9,MacIntel,60,3,1,1.28493,0,43,43,43,1,,,,,,
1,"[1,0,1,0,0,1,0,0,1,1,0,1,1,1,1,1,0,1,0,1,1,1,1,1,1,1,1,1,1,0,0,1]",,,,,,,,,,1,,,,,,stimuli/m2.jpg,stimuli/m5.jpg,2,stimuli/Outdoor activity & sport item.png,stimuli/Electronic device & accessory.png,stimuli/Kitchen & utensil.png,stimuli/Hand labour tool & accessory.png,4,1,2,stimuli/m5.jpg,Hand labour tool & accessory,stimuli/objects/level03a.jpg,15,2021-05-05_15h01.08.350,premceCat2_ses-02_part-01_label-phase1,2020.2.9,MacIntel,60,4,1,1.049185,0,44,44,44,1,,,,,,
1,"[1,0,1,0,0,1,0,0,1,1,0,1,1,1,1,1,0,1,0,1,1,1,1,1,1,1,1,1,1,0,0,1,1]",,,,,,,,,,1,,,,,,stimuli/m2.jpg,stimuli/m5.jpg,2,stimuli/Electronic device & accessory.png,stimuli/Hand labour tool & accessory.png,stimuli/Kitchen & utensil.png,stimuli/Outdoor activity & sport item.png,2,1,2,stimuli/m5.jpg,Hand labour tool & accessory,stimuli/objects/hoe.jpg,15,2021-05-05_15h01.08.350,premceCat2_ses-02_part-01_label-phase1,2020.2.9,MacIntel,60,2,1,1.52832,0,45,45,45,1,,,,,,
1,"[1,0,1,0,0,1,0,0,1,1,0,1,1,1,1,1,0,1,0,1,1,1,1,1,1,1,1,1,1,0,0,1,1,1]",,,,,,,,,,1,,,,,,stimuli/m5.jpg,stimuli/m2.jpg,2,stimuli/Electronic device & accessory.png,stimuli/Kitchen & utensil.png,stimuli/Hand labour tool & accessory.png,stimuli/Outdoor activity & sport item.png,4,1,2,stimuli/m2.jpg,Outdoor activity & sport item,stimuli/objects/kiddiepool.jpg,15,2021-05-05_15h01.08.350,premceCat2_ses-02_part-01_label-phase1,2020.2.9,MacIntel,60,4,1,0.816445,0,46,46,46,1,,,,,,
0,"[1,0,1,0,0,1,0,0,1,1,0,1,1,1,1,1,0,1,0,1,1,1,1,1,1,1,1,1,1,0,0,1,1,1,1]",,,,,,,,,,0,,,,,,stimuli/m5.jpg,stimuli/m2.jpg,1,stimuli/Hand labour tool & accessory.png,stimuli/Electronic device & accessory.png,stimuli/Kitchen & utensil.png,stimuli/Outdoor activity & sport item.png,1,1,2,stimuli/m5.jpg,Hand labour tool & accessory,stimuli/objects/paintroller01.jpg,15,2021-05-05_15h01.08.350,premceCat2_ses-02_part-01_label-phase1,2020.2.9,MacIntel,60,4,0,1.616015,0,47,47,47,1,,,,,,
,,,,,,,,,,,,,,,,,,,,,,,,,,,,,,15,2021-05-05_15h01.08.350,premceCat2_ses-02_part-01_label-phase1,2020.2.9,MacIntel,60,,,,,,,,,0,0,0,0,1,condition_files/tasklistAplus4.csv
0,"[1,0,1,0,0,1,0,0,1,1,0,1,1,1,1,1,0,1,0,1,1,1,1,1,1,1,1,1,1,0,0,1,1,1,1,0]",,,,,,,,,,0,,,,,,stimuli/m2.jpg,stimuli/m5.jpg,2,stimuli/Outdoor activity & sport item.png,stimuli/Hand labour tool & accessory.png,stimuli/Electronic device & accessory.png,stimuli/Kitchen & utensil.png,4,1,3,stimuli/m5.jpg,Kitchen & utensil,stimuli/objects/pitcher02b.jpg,15,2021-05-05_15h01.08.350,premceCat2_ses-02_part-01_label-phase1,2020.2.9,MacIntel,60,2,0,0.56682,0,0,0,0,1,,,,,,
0,"[1,0,1,0,0,1,0,0,1,1,0,1,1,1,1,1,0,1,0,1,1,1,1,1,1,1,1,1,1,0,0,1,1,1,1,0,0]",,,,,,,,,,0,,,,,,stimuli/m5.jpg,stimuli/m2.jpg,1,stimuli/Electronic device & accessory.png,stimuli/Kitchen & utensil.png,stimuli/Outdoor activity & sport item.png,stimuli/Hand labour tool & accessory.png,2,1,3,stimuli/m5.jpg,Kitchen & utensil,stimuli/objects/coffeepot03a.jpg,15,2021-05-05_15h01.08.350,premceCat2_ses-02_part-01_label-phase1,2020.2.9,MacIntel,60,4,0,1.75037,0,1,1,1,1,,,,,,
0,"[1,0,1,0,0,1,0,0,1,1,0,1,1,1,1,1,0,1,0,1,1,1,1,1,1,1,1,1,1,0,0,1,1,1,1,0,0,0]",,,,,,,,,,0,,,,,,stimuli/m5.jpg,stimuli/m2.jpg,1,stimuli/Hand labour tool & accessory.png,stimuli/Kitchen & utensil.png,stimuli/Electronic device & accessory.png,stimuli/Outdoor activity & sport item.png,4,0,3,stimuli/m5.jpg,Outdoor activity & sport item,stimuli/objects/ellipticalmachine.jpg,15,2021-05-05_15h01.08.350,premceCat2_ses-02_part-01_label-phase1,2020.2.9,MacIntel,60,2,0,0.66642,0,2,2,2,1,,,,,,
0,"[1,0,1,0,0,1,0,0,1,1,0,1,1,1,1,1,0,1,0,1,1,1,1,1,1,1,1,1,1,0,0,1,1,1,1,0,0,0]",,,,,,,,,,0,,,,,,stimuli/m5.jpg,stimuli/m2.jpg,1,stimuli/Electronic device & accessory.png,stimuli/Outdoor activity & sport item.png,stimuli/Hand labour tool & accessory.png,stimuli/Kitchen & utensil.png,4,1,3,stimuli/m5.jpg,Kitchen & utensil,stimuli/objects/measuringcup01.jpg,15,2021-05-05_15h01.08.350,premceCat2_ses-02_part-01_label-phase1,2020.2.9,MacIntel,60,2,0,2.300615,0,3,3,3,1,,,,,,
0,"[1,0,1,0,0,1,0,0,1,1,0,1,1,1,1,1,0,1,0,1,1,1,1,1,1,1,1,1,1,0,0,1,1,1,1,0,0,0,0]",,,,,,,,,,0,,,,,,stimuli/m2.jpg,stimuli/m5.jpg,1,stimuli/Hand labour tool & accessory.png,stimuli/Electronic device & accessory.png,stimuli/Outdoor activity & sport item.png,stimuli/Kitchen & utensil.png,2,1,3,stimuli/m2.jpg,Electronic device & accessory,stimuli/objects/telephone01b.jpg,15,2021-05-05_15h01.08.350,premceCat2_ses-02_part-01_label-phase1,2020.2.9,MacIntel,60,3,0,0.86752,0,4,4,4,1,,,,,,
1,"[1,0,1,0,0,1,0,0,1,1,0,1,1,1,1,1,0,1,0,1,1,1,1,1,1,1,1,1,1,0,0,1,1,1,1,0,0,0,0,0]",,,,,,,,,,1,,,,,,stimuli/m2.jpg,stimuli/m5.jpg,2,stimuli/Hand labour tool & accessory.png,stimuli/Kitchen & utensil.png,stimuli/Electronic device & accessory.png,stimuli/Outdoor activity & sport item.png,2,1,3,stimuli/m5.jpg,Kitchen & utensil,stimuli/objects/peeler01.jpg,15,2021-05-05_15h01.08.350,premceCat2_ses-02_part-01_label-phase1,2020.2.9,MacIntel,60,2,1,1.38359,0,5,5,5,1,,,,,,
1,"[1,0,1,0,0,1,0,0,1,1,0,1,1,1,1,1,0,1,0,1,1,1,1,1,1,1,1,1,1,0,0,1,1,1,1,0,0,0,0,0,1]",,,,,,,,,,1,,,,,,stimuli/m5.jpg,stimuli/m2.jpg,2,stimuli/Electronic device & accessory.png,stimuli/Kitchen & utensil.png,stimuli/Hand labour tool & accessory.png,stimuli/Outdoor activity & sport item.png,1,1,3,stimuli/m2.jpg,Electronic device & accessory,stimuli/objects/atm.jpg,15,2021-05-05_15h01.08.350,premceCat2_ses-02_part-01_label-phase1,2020.2.9,MacIntel,60,1,1,1.583695,0,6,6,6,1,,,,,,
1,"[1,0,1,0,0,1,0,0,1,1,0,1,1,1,1,1,0,1,0,1,1,1,1,1,1,1,1,1,1,0,0,1,1,1,1,0,0,0,0,0,1,1]",,,,,,,,,,1,,,,,,stimuli/m2.jpg,stimuli/m5.jpg,2,stimuli/Outdoor activity & sport item.png,stimuli/Hand labour tool & accessory.png,stimuli/Kitchen & utensil.png,stimuli/Electronic device & accessory.png,3,1,3,stimuli/m5.jpg,Kitchen & utensil,stimuli/objects/bottlecap.jpg,15,2021-05-05_15h01.08.350,premceCat2_ses-02_part-01_label-phase1,2020.2.9,MacIntel,60,3,1,1.90113,0,7,7,7,1,,,,,,
0,"[1,0,1,0,0,1,0,0,1,1,0,1,1,1,1,1,0,1,0,1,1,1,1,1,1,1,1,1,1,0,0,1,1,1,1,0,0,0,0,0,1,1,1]",,,,,,,,,,1,,,,,,stimuli/m5.jpg,stimuli/m2.jpg,2,stimuli/Kitchen & utensil.png,stimuli/Outdoor activity & sport item.png,stimuli/Hand labour tool & accessory.png,stimuli/Electronic device & accessory.png,2,0,3,stimuli/m2.jpg,Outdoor activity & sport item,stimuli/objects/canoepaddle02.jpg,15,2021-05-05_15h01.08.350,premceCat2_ses-02_part-01_label-phase1,2020.2.9,MacIntel,60,4,0,1.700025,0,8,8,8,1,,,,,,
1,"[1,0,1,0,0,1,0,0,1,1,0,1,1,1,1,1,0,1,0,1,1,1,1,1,1,1,1,1,1,0,0,1,1,1,1,0,0,0,0,0,1,1,1]",,,,,,,,,,1,,,,,,stimuli/m5.jpg,stimuli/m2.jpg,1,stimuli/Outdoor activity & sport item.png,stimuli/Hand labour tool & accessory.png,stimuli/Kitchen & utensil.png,stimuli/Electronic device & accessory.png,3,1,3,stimuli/m5.jpg,Kitchen & utensil,stimuli/objects/waterbottle03.jpg,15,2021-05-05_15h01.08.350,premceCat2_ses-02_part-01_label-phase1,2020.2.9,MacIntel,60,3,1,2.050055,0,9,9,9,1,,,,,,
0,"[1,0,1,0,0,1,0,0,1,1,0,1,1,1,1,1,0,1,0,1,1,1,1,1,1,1,1,1,1,0,0,1,1,1,1,0,0,0,0,0,1,1,1,1]",,,,,,,,,,1,,,,,,stimuli/m5.jpg,stimuli/m2.jpg,2,stimuli/Kitchen & utensil.png,stimuli/Hand labour tool & accessory.png,stimuli/Electronic device & accessory.png,stimuli/Outdoor activity & sport item.png,2,0,3,stimuli/m2.jpg,Hand labour tool & accessory,stimuli/objects/wheel01.jpg,15,2021-05-05_15h01.08.350,premceCat2_ses-02_part-01_label-phase1,2020.2.9,MacIntel,60,4,0,0.749295,0,10,10,10,1,,,,,,
0,"[1,0,1,0,0,1,0,0,1,1,0,1,1,1,1,1,0,1,0,1,1,1,1,1,1,1,1,1,1,0,0,1,1,1,1,0,0,0,0,0,1,1,1,1]",,,,,,,,,,0,,,,,,stimuli/m5.jpg,stimuli/m2.jpg,2,stimuli/Outdoor activity & sport item.png,stimuli/Hand labour tool & accessory.png,stimuli/Electronic device & accessory.png,stimuli/Kitchen & utensil.png,3,1,3,stimuli/m2.jpg,Electronic device & accessory,stimuli/objects/lamp04a.jpg,15,2021-05-05_15h01.08.350,premceCat2_ses-02_part-01_label-phase1,2020.2.9,MacIntel,60,1,0,1.467565,0,11,11,11,1,,,,,,
1,"[1,0,1,0,0,1,0,0,1,1,0,1,1,1,1,1,0,1,0,1,1,1,1,1,1,1,1,1,1,0,0,1,1,1,1,0,0,0,0,0,1,1,1,1,0]",,,,,,,,,,1,,,,,,stimuli/m5.jpg,stimuli/m2.jpg,2,stimuli/Kitchen & utensil.png,stimuli/Hand labour tool & accessory.png,stimuli/Outdoor activity & sport item.png,stimuli/Electronic device & accessory.png,4,1,3,stimuli/m2.jpg,Electronic device & accessory,stimuli/objects/usbkey.jpg,15,2021-05-05_15h01.08.350,premceCat2_ses-02_part-01_label-phase1,2020.2.9,MacIntel,60,4,1,1.73483,0,12,12,12,1,,,,,,
0,"[1,0,1,0,0,1,0,0,1,1,0,1,1,1,1,1,0,1,0,1,1,1,1,1,1,1,1,1,1,0,0,1,1,1,1,0,0,0,0,0,1,1,1,1,0,1]",,,,,,,,,,1,,,,,,stimuli/m2.jpg,stimuli/m5.jpg,2,stimuli/Electronic device & accessory.png,stimuli/Hand labour tool & accessory.png,stimuli/Kitchen & utensil.png,stimuli/Outdoor activity & sport item.png,1,0,3,stimuli/m5.jpg,Electronic device & accessory,stimuli/objects/filmroll.jpg,15,2021-05-05_15h01.08.350,premceCat2_ses-02_part-01_label-phase1,2020.2.9,MacIntel,60,3,0,0.765875,0,13,13,13,1,,,,,,
1,"[1,0,1,0,0,1,0,0,1,1,0,1,1,1,1,1,0,1,0,1,1,1,1,1,1,1,1,1,1,0,0,1,1,1,1,0,0,0,0,0,1,1,1,1,0,1]",,,,,,,,,,1,,,,,,stimuli/m2.jpg,stimuli/m5.jpg,1,stimuli/Outdoor activity & sport item.png,stimuli/Hand labour tool & accessory.png,stimuli/Kitchen & utensil.png,stimuli/Electronic device & accessory.png,4,1,3,stimuli/m2.jpg,Electronic device & accessory,stimuli/objects/photocopier.jpg,15,2021-05-05_15h01.08.350,premceCat2_ses-02_part-01_label-phase1,2020.2.9,MacIntel,60,4,1,1.266155,0,14,14,14,1,,,,,,
1,"[1,0,1,0,0,1,0,0,1,1,0,1,1,1,1,1,0,1,0,1,1,1,1,1,1,1,1,1,1,0,0,1,1,1,1,0,0,0,0,0,1,1,1,1,0,1,1]",,,,,,,,,,1,,,,,,stimuli/m5.jpg,stimuli/m2.jpg,2,stimuli/Outdoor activity & sport item.png,stimuli/Kitchen & utensil.png,stimuli/Hand labour tool & accessory.png,stimuli/Electronic device & accessory.png,4,1,3,stimuli/m2.jpg,Electronic device & accessory,stimuli/objects/fluorescentlightbulb.jpg,15,2021-05-05_15h01.08.350,premceCat2_ses-02_part-01_label-phase1,2020.2.9,MacIntel,60,4,1,0.63422,0,15,15,15,1,,,,,,
0,"[1,0,1,0,0,1,0,0,1,1,0,1,1,1,1,1,0,1,0,1,1,1,1,1,1,1,1,1,1,0,0,1,1,1,1,0,0,0,0,0,1,1,1,1,0,1,1,1]",,,,,,,,,,1,,,,,,stimuli/m2.jpg,stimuli/m5.jpg,1,stimuli/Kitchen & utensil.png,stimuli/Hand labour tool & accessory.png,stimuli/Electronic device & accessory.png,stimuli/Outdoor activity & sport item.png,2,0,3,stimuli/m2.jpg,Hand labour tool & accessory,stimuli/objects/hammer01.jpg,15,2021-05-05_15h01.08.350,premceCat2_ses-02_part-01_label-phase1,2020.2.9,MacIntel,60,3,0,1.60031,0,16,16,16,1,,,,,,
0,"[1,0,1,0,0,1,0,0,1,1,0,1,1,1,1,1,0,1,0,1,1,1,1,1,1,1,1,1,1,0,0,1,1,1,1,0,0,0,0,0,1,1,1,1,0,1,1,1]",,,,,,,,,,0,,,,,,stimuli/m5.jpg,stimuli/m2.jpg,2,stimuli/Outdoor activity & sport item.png,stimuli/Electronic device & accessory.png,stimuli/Hand labour tool & accessory.png,stimuli/Kitchen & utensil.png,2,1,3,stimuli/m2.jpg,Electronic device & accessory,stimuli/objects/djmixer02.jpg,15,2021-05-05_15h01.08.350,premceCat2_ses-02_part-01_label-phase1,2020.2.9,MacIntel,60,3,0,1.01667,0,17,17,17,1,,,,,,
1,"[1,0,1,0,0,1,0,0,1,1,0,1,1,1,1,1,0,1,0,1,1,1,1,1,1,1,1,1,1,0,0,1,1,1,1,0,0,0,0,0,1,1,1,1,0,1,1,1,0]",,,,,,,,,,1,,,,,,stimuli/m5.jpg,stimuli/m2.jpg,1,stimuli/Electronic device & accessory.png,stimuli/Hand labour tool & accessory.png,stimuli/Outdoor activity & sport item.png,stimuli/Kitchen & utensil.png,4,1,3,stimuli/m5.jpg,Kitchen & utensil,stimuli/objects/spoon01.jpg,15,2021-05-05_15h01.08.350,premceCat2_ses-02_part-01_label-phase1,2020.2.9,MacIntel,60,4,1,1.783855,0,18,18,18,1,,,,,,
1,"[1,0,1,0,0,1,0,0,1,1,0,1,1,1,1,1,0,1,0,1,1,1,1,1,1,1,1,1,1,0,0,1,1,1,1,0,0,0,0,0,1,1,1,1,0,1,1,1,0,1]",,,,,,,,,,1,,,,,,stimuli/m2.jpg,stimuli/m5.jpg,1,stimuli/Kitchen & utensil.png,stimuli/Outdoor activity & sport item.png,stimuli/Hand labour tool & accessory.png,stimuli/Electronic device & accessory.png,4,1,3,stimuli/m2.jpg,Electronic device & accessory,stimuli/objects/headphones02b.jpg,15,2021-05-05_15h01.08.350,premceCat2_ses-02_part-01_label-phase1,2020.2.9,MacIntel,60,4,1,0.83602,0,19,19,19,1,,,,,,
1,"[1,0,1,0,0,1,0,0,1,1,0,1,1,1,1,1,0,1,0,1,1,1,1,1,1,1,1,1,1,0,0,1,1,1,1,0,0,0,0,0,1,1,1,1,0,1,1,1,0,1,1]",,,,,,,,,,1,,,,,,stimuli/m5.jpg,stimuli/m2.jpg,2,stimuli/Electronic device & accessory.png,stimuli/Hand labour tool & accessory.png,stimuli/Kitchen & utensil.png,stimuli/Outdoor activity & sport item.png,1,1,3,stimuli/m2.jpg,Electronic device & accessory,stimuli/objects/ethernetcable02.jpg,15,2021-05-05_15h01.08.350,premceCat2_ses-02_part-01_label-phase1,2020.2.9,MacIntel,60,1,1,0.98395,0,20,20,20,1,,,,,,
1,"[1,0,1,0,0,1,0,0,1,1,0,1,1,1,1,1,0,1,0,1,1,1,1,1,1,1,1,1,1,0,0,1,1,1,1,0,0,0,0,0,1,1,1,1,0,1,1,1,0,1,1,1]",,,,,,,,,,1,,,,,,stimuli/m2.jpg,stimuli/m5.jpg,2,stimuli/Hand labour tool & accessory.png,stimuli/Kitchen & utensil.png,stimuli/Outdoor activity & sport item.png,stimuli/Electronic device & accessory.png,2,1,3,stimuli/m5.jpg,Kitchen & utensil,stimuli/objects/spatula04.jpg,15,2021-05-05_15h01.08.350,premceCat2_ses-02_part-01_label-phase1,2020.2.9,MacIntel,60,2,1,1.349065,0,21,21,21,1,,,,,,
1,"[1,0,1,0,0,1,0,0,1,1,0,1,1,1,1,1,0,1,0,1,1,1,1,1,1,1,1,1,1,0,0,1,1,1,1,0,0,0,0,0,1,1,1,1,0,1,1,1,0,1,1,1,1]",,,,,,,,,,1,,,,,,stimuli/m2.jpg,stimuli/m5.jpg,2,stimuli/Electronic device & accessory.png,stimuli/Hand labour tool & accessory.png,stimuli/Outdoor activity & sport item.png,stimuli/Kitchen & utensil.png,4,1,3,stimuli/m5.jpg,Kitchen & utensil,stimuli/objects/corkscrew03a.jpg,15,2021-05-05_15h01.08.350,premceCat2_ses-02_part-01_label-phase1,2020.2.9,MacIntel,60,4,1,1.78402,0,22,22,22,1,,,,,,
1,"[1,0,1,0,0,1,0,0,1,1,0,1,1,1,1,1,0,1,0,1,1,1,1,1,1,1,1,1,1,0,0,1,1,1,1,0,0,0,0,0,1,1,1,1,0,1,1,1,0,1,1,1,1,1]",,,,,,,,,,1,,,,,,stimuli/m2.jpg,stimuli/m5.jpg,1,stimuli/Electronic device & accessory.png,stimuli/Outdoor activity & sport item.png,stimuli/Hand labour tool & accessory.png,stimuli/Kitchen & utensil.png,1,1,3,stimuli/m2.jpg,Electronic device & accessory,stimuli/objects/phonejack.jpg,15,2021-05-05_15h01.08.350,premceCat2_ses-02_part-01_label-phase1,2020.2.9,MacIntel,60,1,1,0.65108,0,23,23,23,1,,,,,,
1,"[1,0,1,0,0,1,0,0,1,1,0,1,1,1,1,1,0,1,0,1,1,1,1,1,1,1,1,1,1,0,0,1,1,1,1,0,0,0,0,0,1,1,1,1,0,1,1,1,0,1,1,1,1,1,1]",,,,,,,,,,1,,,,,,stimuli/m2.jpg,stimuli/m5.jpg,2,stimuli/Outdoor activity & sport item.png,stimuli/Electronic device & accessory.png,stimuli/Hand labour tool & accessory.png,stimuli/Kitchen & utensil.png,4,1,3,stimuli/m5.jpg,Kitchen & utensil,stimuli/objects/dishrack.jpg,15,2021-05-05_15h01.08.350,premceCat2_ses-02_part-01_label-phase1,2020.2.9,MacIntel,60,4,1,0.50238,0,24,24,24,1,,,,,,
0,"[1,0,1,0,0,1,0,0,1,1,0,1,1,1,1,1,0,1,0,1,1,1,1,1,1,1,1,1,1,0,0,1,1,1,1,0,0,0,0,0,1,1,1,1,0,1,1,1,0,1,1,1,1,1,1,1]",,,,,,,,,,1,,,,,,stimuli/m2.jpg,stimuli/m5.jpg,1,stimuli/Outdoor activity & sport item.png,stimuli/Electronic device & accessory.png,stimuli/Kitchen & utensil.png,stimuli/Hand labour tool & accessory.png,3,0,3,stimuli/m2.jpg,Kitchen & utensil,stimuli/objects/fryingpan02a.jpg,15,2021-05-05_15h01.08.350,premceCat2_ses-02_part-01_label-phase1,2020.2.9,MacIntel,60,2,0,0.81748,0,25,25,25,1,,,,,,
1,"[1,0,1,0,0,1,0,0,1,1,0,1,1,1,1,1,0,1,0,1,1,1,1,1,1,1,1,1,1,0,0,1,1,1,1,0,0,0,0,0,1,1,1,1,0,1,1,1,0,1,1,1,1,1,1,1]",,,,,,,,,,1,,,,,,stimuli/m2.jpg,stimuli/m5.jpg,1,stimuli/Outdoor activity & sport item.png,stimuli/Electronic device & accessory.png,stimuli/Hand labour tool & accessory.png,stimuli/Kitchen & utensil.png,2,1,3,stimuli/m2.jpg,Electronic device & accessory,stimuli/objects/fanblades.jpg,15,2021-05-05_15h01.08.350,premceCat2_ses-02_part-01_label-phase1,2020.2.9,MacIntel,60,2,1,0.465045,0,26,26,26,1,,,,,,
0,"[1,0,1,0,0,1,0,0,1,1,0,1,1,1,1,1,0,1,0,1,1,1,1,1,1,1,1,1,1,0,0,1,1,1,1,0,0,0,0,0,1,1,1,1,0,1,1,1,0,1,1,1,1,1,1,1,1]",,,,,,,,,,0,,,,,,stimuli/m2.jpg,stimuli/m5.jpg,1,stimuli/Hand labour tool & accessory.png,stimuli/Outdoor activity & sport item.png,stimuli/Kitchen & utensil.png,stimuli/Electronic device & accessory.png,4,1,3,stimuli/m2.jpg,Electronic device & accessory,stimuli/objects/chandelier.jpg,15,2021-05-05_15h01.08.350,premceCat2_ses-02_part-01_label-phase1,2020.2.9,MacIntel,60,1,0,1.1504,0,27,27,27,1,,,,,,
0,"[1,0,1,0,0,1,0,0,1,1,0,1,1,1,1,1,0,1,0,1,1,1,1,1,1,1,1,1,1,0,0,1,1,1,1,0,0,0,0,0,1,1,1,1,0,1,1,1,0,1,1,1,1,1,1,1,1,0]",,,,,,,,,,0,,,,,,stimuli/m5.jpg,stimuli/m2.jpg,1,stimuli/Outdoor activity & sport item.png,stimuli/Electronic device & accessory.png,stimuli/Kitchen & utensil.png,stimuli/Hand labour tool & accessory.png,4,0,3,stimuli/m5.jpg,Hand labour tool & accessory,stimuli/objects/drill01b.jpg,15,2021-05-05_15h01.08.350,premceCat2_ses-02_part-01_label-phase1,2020.2.9,MacIntel,60,3,0,1.54972,0,28,28,28,1,,,,,,
0,"[1,0,1,0,0,1,0,0,1,1,0,1,1,1,1,1,0,1,0,1,1,1,1,1,1,1,1,1,1,0,0,1,1,1,1,0,0,0,0,0,1,1,1,1,0,1,1,1,0,1,1,1,1,1,1,1,1,0]",,,,,,,,,,0,,,,,,stimuli/m5.jpg,stimuli/m2.jpg,1,stimuli/Hand labour tool & accessory.png,stimuli/Electronic device & accessory.png,stimuli/Kitchen & utensil.png,stimuli/Outdoor activity & sport item.png,4,0,3,stimuli/m5.jpg,Outdoor activity & sport item,stimuli/objects/outdoorheater.jpg,15,2021-05-05_15h01.08.350,premceCat2_ses-02_part-01_label-phase1,2020.2.9,MacIntel,60,2,0,0.885355,0,29,29,29,1,,,,,,
0,"[1,0,1,0,0,1,0,0,1,1,0,1,1,1,1,1,0,1,0,1,1,1,1,1,1,1,1,1,1,0,0,1,1,1,1,0,0,0,0,0,1,1,1,1,0,1,1,1,0,1,1,1,1,1,1,1,1,0]",,,,,,,,,,0,,,,,,stimuli/m2.jpg,stimuli/m5.jpg,2,stimuli/Electronic device & accessory.png,stimuli/Outdoor activity & sport item.png,stimuli/Kitchen & utensil.png,stimuli/Hand labour tool & accessory.png,3,1,3,stimuli/m5.jpg,Kitchen & utensil,stimuli/objects/tupperware03a.jpg,15,2021-05-05_15h01.08.350,premceCat2_ses-02_part-01_label-phase1,2020.2.9,MacIntel,60,2,0,0.99966,0,30,30,30,1,,,,,,
1,"[1,0,1,0,0,1,0,0,1,1,0,1,1,1,1,1,0,1,0,1,1,1,1,1,1,1,1,1,1,0,0,1,1,1,1,0,0,0,0,0,1,1,1,1,0,1,1,1,0,1,1,1,1,1,1,1,1,0,0]",,,,,,,,,,1,,,,,,stimuli/m2.jpg,stimuli/m5.jpg,1,stimuli/Electronic device & accessory.png,stimuli/Kitchen & utensil.png,stimuli/Outdoor activity & sport item.png,stimuli/Hand labour tool & accessory.png,1,1,3,stimuli/m2.jpg,Electronic device & accessory,stimuli/objects/scanner.jpg,15,2021-05-05_15h01.08.350,premceCat2_ses-02_part-01_label-phase1,2020.2.9,MacIntel,60,1,1,1.01332,0,31,31,31,1,,,,,,
0,"[1,0,1,0,0,1,0,0,1,1,0,1,1,1,1,1,0,1,0,1,1,1,1,1,1,1,1,1,1,0,0,1,1,1,1,0,0,0,0,0,1,1,1,1,0,1,1,1,0,1,1,1,1,1,1,1,1,0,0,1]",,,,,,,,,,1,,,,,,stimuli/m5.jpg,stimuli/m2.jpg,1,stimuli/Kitchen & utensil.png,stimuli/Outdoor activity & sport item.png,stimuli/Hand labour tool & accessory.png,stimuli/Electronic device & accessory.png,4,0,3,stimuli/m5.jpg,Electronic device & accessory,stimuli/objects/lightbulb01.jpg,15,2021-05-05_15h01.08.350,premceCat2_ses-02_part-01_label-phase1,2020.2.9,MacIntel,60,1,0,1.101825,0,32,32,32,1,,,,,,
0,"[1,0,1,0,0,1,0,0,1,1,0,1,1,1,1,1,0,1,0,1,1,1,1,1,1,1,1,1,1,0,0,1,1,1,1,0,0,0,0,0,1,1,1,1,0,1,1,1,0,1,1,1,1,1,1,1,1,0,0,1]",,,,,,,,,,0,,,,,,stimuli/m5.jpg,stimuli/m2.jpg,1,stimuli/Kitchen & utensil.png,stimuli/Electronic device & accessory.png,stimuli/Outdoor activity & sport item.png,stimuli/Hand labour tool & accessory.png,1,1,3,stimuli/m5.jpg,Kitchen & utensil,stimuli/objects/saladspinner.jpg,15,2021-05-05_15h01.08.350,premceCat2_ses-02_part-01_label-phase1,2020.2.9,MacIntel,60,2,0,1.316815,0,33,33,33,1,,,,,,
1,"[1,0,1,0,0,1,0,0,1,1,0,1,1,1,1,1,0,1,0,1,1,1,1,1,1,1,1,1,1,0,0,1,1,1,1,0,0,0,0,0,1,1,1,1,0,1,1,1,0,1,1,1,1,1,1,1,1,0,0,1,0]",,,,,,,,,,1,,,,,,stimuli/m2.jpg,stimuli/m5.jpg,2,stimuli/Outdoor activity & sport item.png,stimuli/Kitchen & utensil.png,stimuli/Electronic device & accessory.png,stimuli/Hand labour tool & accessory.png,2,1,3,stimuli/m5.jpg,Kitchen & utensil,stimuli/objects/cleaver01.jpg,15,2021-05-05_15h01.08.350,premceCat2_ses-02_part-01_label-phase1,2020.2.9,MacIntel,60,2,1,1.26661,0,34,34,34,1,,,,,,
1,"[1,0,1,0,0,1,0,0,1,1,0,1,1,1,1,1,0,1,0,1,1,1,1,1,1,1,1,1,1,0,0,1,1,1,1,0,0,0,0,0,1,1,1,1,0,1,1,1,0,1,1,1,1,1,1,1,1,0,0,1,0,1]",,,,,,,,,,1,,,,,,stimuli/m5.jpg,stimuli/m2.jpg,2,stimuli/Electronic device & accessory.png,stimuli/Kitchen & utensil.png,stimuli/Outdoor activity & sport item.png,stimuli/Hand labour tool & accessory.png,1,1,3,stimuli/m2.jpg,Electronic device & accessory,stimuli/objects/dvdcase01.jpg,15,2021-05-05_15h01.08.350,premceCat2_ses-02_part-01_label-phase1,2020.2.9,MacIntel,60,1,1,1.70063,0,35,35,35,1,,,,,,
1,"[1,0,1,0,0,1,0,0,1,1,0,1,1,1,1,1,0,1,0,1,1,1,1,1,1,1,1,1,1,0,0,1,1,1,1,0,0,0,0,0,1,1,1,1,0,1,1,1,0,1,1,1,1,1,1,1,1,0,0,1,0,1,1]",,,,,,,,,,1,,,,,,stimuli/m5.jpg,stimuli/m2.jpg,1,stimuli/Outdoor activity & sport item.png,stimuli/Kitchen & utensil.png,stimuli/Hand labour tool & accessory.png,stimuli/Electronic device & accessory.png,2,1,3,stimuli/m5.jpg,Kitchen & utensil,stimuli/objects/cork02.jpg,15,2021-05-05_15h01.08.350,premceCat2_ses-02_part-01_label-phase1,2020.2.9,MacIntel,60,2,1,0.916865,0,36,36,36,1,,,,,,
0,"[1,0,1,0,0,1,0,0,1,1,0,1,1,1,1,1,0,1,0,1,1,1,1,1,1,1,1,1,1,0,0,1,1,1,1,0,0,0,0,0,1,1,1,1,0,1,1,1,0,1,1,1,1,1,1,1,1,0,0,1,0,1,1,1]",,,,,,,,,,0,,,,,,stimuli/m2.jpg,stimuli/m5.jpg,2,stimuli/Outdoor activity & sport item.png,stimuli/Electronic device & accessory.png,stimuli/Kitchen & utensil.png,stimuli/Hand labour tool & accessory.png,3,1,3,stimuli/m5.jpg,Kitchen & utensil,stimuli/objects/contactlens.jpg,15,2021-05-05_15h01.08.350,premceCat2_ses-02_part-01_label-phase1,2020.2.9,MacIntel,60,2,0,2.00118,0,37,37,37,1,,,,,,
1,"[1,0,1,0,0,1,0,0,1,1,0,1,1,1,1,1,0,1,0,1,1,1,1,1,1,1,1,1,1,0,0,1,1,1,1,0,0,0,0,0,1,1,1,1,0,1,1,1,0,1,1,1,1,1,1,1,1,0,0,1,0,1,1,1,0]",,,,,,,,,,1,,,,,,stimuli/m2.jpg,stimuli/m5.jpg,2,stimuli/Hand labour tool & accessory.png,stimuli/Electronic device & accessory.png,stimuli/Outdoor activity & sport item.png,stimuli/Kitchen & utensil.png,4,1,3,stimuli/m5.jpg,Kitchen & utensil,stimuli/objects/martiniglass01b.jpg,15,2021-05-05_15h01.08.350,premceCat2_ses-02_part-01_label-phase1,2020.2.9,MacIntel,60,4,1,1.730965,0,38,38,38,1,,,,,,
1,"[1,0,1,0,0,1,0,0,1,1,0,1,1,1,1,1,0,1,0,1,1,1,1,1,1,1,1,1,1,0,0,1,1,1,1,0,0,0,0,0,1,1,1,1,0,1,1,1,0,1,1,1,1,1,1,1,1,0,0,1,0,1,1,1,0,1]",,,,,,,,,,1,,,,,,stimuli/m2.jpg,stimuli/m5.jpg,2,stimuli/Outdoor activity & sport item.png,stimuli/Kitchen & utensil.png,stimuli/Hand labour tool & accessory.png,stimuli/Electronic device & accessory.png,2,1,3,stimuli/m5.jpg,Kitchen & utensil,stimuli/objects/toothpick02.jpg,15,2021-05-05_15h01.08.350,premceCat2_ses-02_part-01_label-phase1,2020.2.9,MacIntel,60,2,1,1.131775,0,39,39,39,1,,,,,,
0,"[1,0,1,0,0,1,0,0,1,1,0,1,1,1,1,1,0,1,0,1,1,1,1,1,1,1,1,1,1,0,0,1,1,1,1,0,0,0,0,0,1,1,1,1,0,1,1,1,0,1,1,1,1,1,1,1,1,0,0,1,0,1,1,1,0,1,1]",,,,,,,,,,1,,,,,,stimuli/m5.jpg,stimuli/m2.jpg,1,stimuli/Electronic device & accessory.png,stimuli/Hand labour tool & accessory.png,stimuli/Kitchen & utensil.png,stimuli/Outdoor activity & sport item.png,2,0,3,stimuli/m5.jpg,Hand labour tool & accessory,stimuli/objects/saw02b.jpg,15,2021-05-05_15h01.08.350,premceCat2_ses-02_part-01_label-phase1,2020.2.9,MacIntel,60,1,0,0.999615,0,40,40,40,1,,,,,,
1,"[1,0,1,0,0,1,0,0,1,1,0,1,1,1,1,1,0,1,0,1,1,1,1,1,1,1,1,1,1,0,0,1,1,1,1,0,0,0,0,0,1,1,1,1,0,1,1,1,0,1,1,1,1,1,1,1,1,0,0,1,0,1,1,1,0,1,1]",,,,,,,,,,1,,,,,,stimuli/m2.jpg,stimuli/m5.jpg,1,stimuli/Kitchen & utensil.png,stimuli/Outdoor activity & sport item.png,stimuli/Electronic device & accessory.png,stimuli/Hand labour tool & accessory.png,3,1,3,stimuli/m2.jpg,Electronic device & accessory,stimuli/objects/videocamera01a.jpg,15,2021-05-05_15h01.08.350,premceCat2_ses-02_part-01_label-phase1,2020.2.9,MacIntel,60,3,1,1.284555,0,41,41,41,1,,,,,,
1,"[1,0,1,0,0,1,0,0,1,1,0,1,1,1,1,1,0,1,0,1,1,1,1,1,1,1,1,1,1,0,0,1,1,1,1,0,0,0,0,0,1,1,1,1,0,1,1,1,0,1,1,1,1,1,1,1,1,0,0,1,0,1,1,1,0,1,1,1]",,,,,,,,,,1,,,,,,stimuli/m5.jpg,stimuli/m2.jpg,2,stimuli/Outdoor activity & sport item.png,stimuli/Hand labour tool & accessory.png,stimuli/Kitchen & utensil.png,stimuli/Electronic device & accessory.png,4,1,3,stimuli/m2.jpg,Electronic device & accessory,stimuli/objects/computerkeyboard02.jpg,15,2021-05-05_15h01.08.350,premceCat2_ses-02_part-01_label-phase1,2020.2.9,MacIntel,60,4,1,1.61793,0,42,42,42,1,,,,,,
1,"[1,0,1,0,0,1,0,0,1,1,0,1,1,1,1,1,0,1,0,1,1,1,1,1,1,1,1,1,1,0,0,1,1,1,1,0,0,0,0,0,1,1,1,1,0,1,1,1,0,1,1,1,1,1,1,1,1,0,0,1,0,1,1,1,0,1,1,1,1]",,,,,,,,,,1,,,,,,stimuli/m5.jpg,stimuli/m2.jpg,2,stimuli/Electronic device & accessory.png,stimuli/Outdoor activity & sport item.png,stimuli/Hand labour tool & accessory.png,stimuli/Kitchen & utensil.png,1,1,3,stimuli/m2.jpg,Electronic device & accessory,stimuli/objects/coffeemachine.jpg,15,2021-05-05_15h01.08.350,premceCat2_ses-02_part-01_label-phase1,2020.2.9,MacIntel,60,1,1,0.983115,0,43,43,43,1,,,,,,
1,"[1,0,1,0,0,1,0,0,1,1,0,1,1,1,1,1,0,1,0,1,1,1,1,1,1,1,1,1,1,0,0,1,1,1,1,0,0,0,0,0,1,1,1,1,0,1,1,1,0,1,1,1,1,1,1,1,1,0,0,1,0,1,1,1,0,1,1,1,1,1]",,,,,,,,,,1,,,,,,stimuli/m2.jpg,stimuli/m5.jpg,2,stimuli/Electronic device & accessory.png,stimuli/Kitchen & utensil.png,stimuli/Hand labour tool & accessory.png,stimuli/Outdoor activity & sport item.png,2,1,3,stimuli/m5.jpg,Kitchen & utensil,stimuli/objects/thermos.jpg,15,2021-05-05_15h01.08.350,premceCat2_ses-02_part-01_label-phase1,2020.2.9,MacIntel,60,2,1,0.782625,0,44,44,44,1,,,,,,
0,"[1,0,1,0,0,1,0,0,1,1,0,1,1,1,1,1,0,1,0,1,1,1,1,1,1,1,1,1,1,0,0,1,1,1,1,0,0,0,0,0,1,1,1,1,0,1,1,1,0,1,1,1,1,1,1,1,1,0,0,1,0,1,1,1,0,1,1,1,1,1,1]",,,,,,,,,,1,,,,,,stimuli/m5.jpg,stimuli/m2.jpg,2,stimuli/Hand labour tool & accessory.png,stimuli/Outdoor activity & sport item.png,stimuli/Kitchen & utensil.png,stimuli/Electronic device & accessory.png,3,0,3,stimuli/m2.jpg,Kitchen & utensil,stimuli/objects/woodenspoon.jpg,15,2021-05-05_15h01.08.350,premceCat2_ses-02_part-01_label-phase1,2020.2.9,MacIntel,60,4,0,1.250345,0,45,45,45,1,,,,,,
0,"[1,0,1,0,0,1,0,0,1,1,0,1,1,1,1,1,0,1,0,1,1,1,1,1,1,1,1,1,1,0,0,1,1,1,1,0,0,0,0,0,1,1,1,1,0,1,1,1,0,1,1,1,1,1,1,1,1,0,0,1,0,1,1,1,0,1,1,1,1,1,1]",,,,,,,,,,1,,,,,,stimuli/m5.jpg,stimuli/m2.jpg,2,stimuli/Kitchen & utensil.png,stimuli/Electronic device & accessory.png,stimuli/Outdoor activity & sport item.png,stimuli/Hand labour tool & accessory.png,3,0,3,stimuli/m2.jpg,Outdoor activity & sport item,stimuli/objects/poolnet.jpg,15,2021-05-05_15h01.08.350,premceCat2_ses-02_part-01_label-phase1,2020.2.9,MacIntel,60,2,0,1.49879,0,46,46,46,1,,,,,,
1,"[1,0,1,0,0,1,0,0,1,1,0,1,1,1,1,1,0,1,0,1,1,1,1,1,1,1,1,1,1,0,0,1,1,1,1,0,0,0,0,0,1,1,1,1,0,1,1,1,0,1,1,1,1,1,1,1,1,0,0,1,0,1,1,1,0,1,1,1,1,1,1]",,,,,,,,,,1,,,,,,stimuli/m2.jpg,stimuli/m5.jpg,1,stimuli/Hand labour tool & accessory.png,stimuli/Outdoor activity & sport item.png,stimuli/Electronic device & accessory.png,stimuli/Kitchen & utensil.png,3,1,3,stimuli/m2.jpg,Electronic device & accessory,stimuli/objects/fan.jpg,15,2021-05-05_15h01.08.350,premceCat2_ses-02_part-01_label-phase1,2020.2.9,MacIntel,60,3,1,1.06685,0,47,47,47,1,,,,,,
,,,,,,,,,,,,,,,,,,,,,,,,,,,,,,15,2021-05-05_15h01.08.350,premceCat2_ses-02_part-01_label-phase1,2020.2.9,MacIntel,60,,,,,,,,,0,1,1,1,1,condition_files/tasklistB4.csv
0,"[1,0,1,0,0,1,0,0,1,1,0,1,1,1,1,1,0,1,0,1,1,1,1,1,1,1,1,1,1,0,0,1,1,1,1,0,0,0,0,0,1,1,1,1,0,1,1,1,0,1,1,1,1,1,1,1,1,0,0,1,0,1,1,1,0,1,1,1,1,1,1,1]",,,,,,,,,,1,,,,,,stimuli/m5.jpg,stimuli/m2.jpg,1,stimuli/Electronic device & accessory.png,stimuli/Outdoor activity & sport item.png,stimuli/Kitchen & utensil.png,stimuli/Hand labour tool & accessory.png,2,0,4,stimuli/m5.jpg,Outdoor activity & sport item,stimuli/objects/magneticcompass.jpg,15,2021-05-05_15h01.08.350,premceCat2_ses-02_part-01_label-phase1,2020.2.9,MacIntel,60,3,0,1.39952,0,0,0,0,1,,,,,,
0,"[1,0,1,0,0,1,0,0,1,1,0,1,1,1,1,1,0,1,0,1,1,1,1,1,1,1,1,1,1,0,0,1,1,1,1,0,0,0,0,0,1,1,1,1,0,1,1,1,0,1,1,1,1,1,1,1,1,0,0,1,0,1,1,1,0,1,1,1,1,1,1,1]",,,,,,,,,,0,,,,,,stimuli/m5.jpg,stimuli/m2.jpg,2,stimuli/Outdoor activity & sport item.png,stimuli/Electronic device & accessory.png,stimuli/Kitchen & utensil.png,stimuli/Hand labour tool & accessory.png,3,1,4,stimuli/m2.jpg,Kitchen & utensil,stimuli/objects/spicerack.jpg,15,2021-05-05_15h01.08.350,premceCat2_ses-02_part-01_label-phase1,2020.2.9,MacIntel,60,2,0,0.80088,0,1,1,1,1,,,,,,
0,"[1,0,1,0,0,1,0,0,1,1,0,1,1,1,1,1,0,1,0,1,1,1,1,1,1,1,1,1,1,0,0,1,1,1,1,0,0,0,0,0,1,1,1,1,0,1,1,1,0,1,1,1,1,1,1,1,1,0,0,1,0,1,1,1,0,1,1,1,1,1,1,1,0]",,,,,,,,,,0,,,,,,stimuli/m2.jpg,stimuli/m5.jpg,1,stimuli/Hand labour tool & accessory.png,stimuli/Electronic device & accessory.png,stimuli/Outdoor activity & sport item.png,stimuli/Kitchen & utensil.png,4,1,4,stimuli/m2.jpg,Kitchen & utensil,stimuli/objects/towel01.jpg,15,2021-05-05_15h01.08.350,premceCat2_ses-02_part-01_label-phase1,2020.2.9,MacIntel,60,2,0,0.51701,0,2,2,2,1,,,,,,
0,"[1,0,1,0,0,1,0,0,1,1,0,1,1,1,1,1,0,1,0,1,1,1,1,1,1,1,1,1,1,0,0,1,1,1,1,0,0,0,0,0,1,1,1,1,0,1,1,1,0,1,1,1,1,1,1,1,1,0,0,1,0,1,1,1,0,1,1,1,1,1,1,1,0,0]",,,,,,,,,,0,,,,,,stimuli/m5.jpg,stimuli/m2.jpg,2,stimuli/Hand labour tool & accessory.png,stimuli/Kitchen & utensil.png,stimuli/Electronic device & accessory.png,stimuli/Outdoor activity & sport item.png,2,1,4,stimuli/m2.jpg,Kitchen & utensil,stimuli/objects/shotglass.jpg,15,2021-05-05_15h01.08.350,premceCat2_ses-02_part-01_label-phase1,2020.2.9,MacIntel,60,3,0,1.16701,0,3,3,3,1,,,,,,
0,"[1,0,1,0,0,1,0,0,1,1,0,1,1,1,1,1,0,1,0,1,1,1,1,1,1,1,1,1,1,0,0,1,1,1,1,0,0,0,0,0,1,1,1,1,0,1,1,1,0,1,1,1,1,1,1,1,1,0,0,1,0,1,1,1,0,1,1,1,1,1,1,1,0,0,0]",,,,,,,,,,0,,,,,,stimuli/m2.jpg,stimuli/m5.jpg,1,stimuli/Kitchen & utensil.png,stimuli/Hand labour tool & accessory.png,stimuli/Electronic device & accessory.png,stimuli/Outdoor activity & sport item.png,1,1,4,stimuli/m2.jpg,Kitchen & utensil,stimuli/objects/servingspoon01.jpg,15,2021-05-05_15h01.08.350,premceCat2_ses-02_part-01_label-phase1,2020.2.9,MacIntel,60,2,0,0.93422,0,4,4,4,1,,,,,,
0,"[1,0,1,0,0,1,0,0,1,1,0,1,1,1,1,1,0,1,0,1,1,1,1,1,1,1,1,1,1,0,0,1,1,1,1,0,0,0,0,0,1,1,1,1,0,1,1,1,0,1,1,1,1,1,1,1,1,0,0,1,0,1,1,1,0,1,1,1,1,1,1,1,0,0,0,0]",,,,,,,,,,0,,,,,,stimuli/m5.jpg,stimuli/m2.jpg,1,stimuli/Kitchen & utensil.png,stimuli/Outdoor activity & sport item.png,stimuli/Hand labour tool & accessory.png,stimuli/Electronic device & accessory.png,3,1,4,stimuli/m5.jpg,Hand labour tool & accessory,stimuli/objects/boltcutter.jpg,15,2021-05-05_15h01.08.350,premceCat2_ses-02_part-01_label-phase1,2020.2.9,MacIntel,60,1,0,1.20356,0,5,5,5,1,,,,,,
1,"[1,0,1,0,0,1,0,0,1,1,0,1,1,1,1,1,0,1,0,1,1,1,1,1,1,1,1,1,1,0,0,1,1,1,1,0,0,0,0,0,1,1,1,1,0,1,1,1,0,1,1,1,1,1,1,1,1,0,0,1,0,1,1,1,0,1,1,1,1,1,1,1,0,0,0,0,0]",,,,,,,,,,1,,,,,,stimuli/m2.jpg,stimuli/m5.jpg,2,stimuli/Outdoor activity & sport item.png,stimuli/Hand labour tool & accessory.png,stimuli/Electronic device & accessory.png,stimuli/Kitchen & utensil.png,2,1,4,stimuli/m5.jpg,Hand labour tool & accessory,stimuli/objects/aircompressor.jpg,15,2021-05-05_15h01.08.350,premceCat2_ses-02_part-01_label-phase1,2020.2.9,MacIntel,60,2,1,1.333395,0,6,6,6,1,,,,,,
0,"[1,0,1,0,0,1,0,0,1,1,0,1,1,1,1,1,0,1,0,1,1,1,1,1,1,1,1,1,1,0,0,1,1,1,1,0,0,0,0,0,1,1,1,1,0,1,1,1,0,1,1,1,1,1,1,1,1,0,0,1,0,1,1,1,0,1,1,1,1,1,1,1,0,0,0,0,0,1]",,,,,,,,,,1,,,,,,stimuli/m2.jpg,stimuli/m5.jpg,2,stimuli/Electronic device & accessory.png,stimuli/Outdoor activity & sport item.png,stimuli/Kitchen & utensil.png,stimuli/Hand labour tool & accessory.png,1,0,4,stimuli/m5.jpg,Electronic device & accessory,stimuli/objects/ipod.jpg,15,2021-05-05_15h01.08.350,premceCat2_ses-02_part-01_label-phase1,2020.2.9,MacIntel,60,4,0,2.351235,0,7,7,7,1,,,,,,
1,"[1,0,1,0,0,1,0,0,1,1,0,1,1,1,1,1,0,1,0,1,1,1,1,1,1,1,1,1,1,0,0,1,1,1,1,0,0,0,0,0,1,1,1,1,0,1,1,1,0,1,1,1,1,1,1,1,1,0,0,1,0,1,1,1,0,1,1,1,1,1,1,1,0,0,0,0,0,1]",,,,,,,,,,1,,,,,,stimuli/m2.jpg,stimuli/m5.jpg,1,stimuli/Hand labour tool & accessory.png,stimuli/Electronic device & accessory.png,stimuli/Kitchen & utensil.png,stimuli/Outdoor activity & sport item.png,3,1,4,stimuli/m2.jpg,Kitchen & utensil,stimuli/objects/aluminiumfoil.jpg,15,2021-05-05_15h01.08.350,premceCat2_ses-02_part-01_label-phase1,2020.2.9,MacIntel,60,3,1,0.81625,0,8,8,8,1,,,,,,
0,"[1,0,1,0,0,1,0,0,1,1,0,1,1,1,1,1,0,1,0,1,1,1,1,1,1,1,1,1,1,0,0,1,1,1,1,0,0,0,0,0,1,1,1,1,0,1,1,1,0,1,1,1,1,1,1,1,1,0,0,1,0,1,1,1,0,1,1,1,1,1,1,1,0,0,0,0,0,1,1]",,,,,,,,,,1,,,,,,stimuli/m2.jpg,stimuli/m5.jpg,1,stimuli/Outdoor activity & sport item.png,stimuli/Hand labour tool & accessory.png,stimuli/Electronic device & accessory.png,stimuli/Kitchen & utensil.png,3,0,4,stimuli/m2.jpg,Electronic device & accessory,stimuli/objects/cellphone.jpg,15,2021-05-05_15h01.08.350,premceCat2_ses-02_part-01_label-phase1,2020.2.9,MacIntel,60,4,0,0.86639,0,9,9,9,1,,,,,,
1,"[1,0,1,0,0,1,0,0,1,1,0,1,1,1,1,1,0,1,0,1,1,1,1,1,1,1,1,1,1,0,0,1,1,1,1,0,0,0,0,0,1,1,1,1,0,1,1,1,0,1,1,1,1,1,1,1,1,0,0,1,0,1,1,1,0,1,1,1,1,1,1,1,0,0,0,0,0,1,1]",,,,,,,,,,1,,,,,,stimuli/m2.jpg,stimuli/m5.jpg,1,stimuli/Electronic device & accessory.png,stimuli/Kitchen & utensil.png,stimuli/Hand labour tool & accessory.png,stimuli/Outdoor activity & sport item.png,2,1,4,stimuli/m2.jpg,Kitchen & utensil,stimuli/objects/butterknife.jpg,15,2021-05-05_15h01.08.350,premceCat2_ses-02_part-01_label-phase1,2020.2.9,MacIntel,60,2,1,0.933355,0,10,10,10,1,,,,,,
0,"[1,0,1,0,0,1,0,0,1,1,0,1,1,1,1,1,0,1,0,1,1,1,1,1,1,1,1,1,1,0,0,1,1,1,1,0,0,0,0,0,1,1,1,1,0,1,1,1,0,1,1,1,1,1,1,1,1,0,0,1,0,1,1,1,0,1,1,1,1,1,1,1,0,0,0,0,0,1,1,1]",,,,,,,,,,0,,,,,,stimuli/m5.jpg,stimuli/m2.jpg,1,stimuli/Outdoor activity & sport item.png,stimuli/Electronic device & accessory.png,stimuli/Kitchen & utensil.png,stimuli/Hand labour tool & accessory.png,4,1,4,stimuli/m5.jpg,Hand labour tool & accessory,stimuli/objects/gardenshears01a.jpg,15,2021-05-05_15h01.08.350,premceCat2_ses-02_part-01_label-phase1,2020.2.9,MacIntel,60,2,0,1.114895,0,11,11,11,1,,,,,,
1,"[1,0,1,0,0,1,0,0,1,1,0,1,1,1,1,1,0,1,0,1,1,1,1,1,1,1,1,1,1,0,0,1,1,1,1,0,0,0,0,0,1,1,1,1,0,1,1,1,0,1,1,1,1,1,1,1,1,0,0,1,0,1,1,1,0,1,1,1,1,1,1,1,0,0,0,0,0,1,1,1,0]",,,,,,,,,,1,,,,,,stimuli/m2.jpg,stimuli/m5.jpg,2,stimuli/Kitchen & utensil.png,stimuli/Electronic device & accessory.png,stimuli/Outdoor activity & sport item.png,stimuli/Hand labour tool & accessory.png,4,1,4,stimuli/m5.jpg,Hand labour tool & accessory,stimuli/objects/metalbrush.jpg,15,2021-05-05_15h01.08.350,premceCat2_ses-02_part-01_label-phase1,2020.2.9,MacIntel,60,4,1,1.16698,0,12,12,12,1,,,,,,
0,"[1,0,1,0,0,1,0,0,1,1,0,1,1,1,1,1,0,1,0,1,1,1,1,1,1,1,1,1,1,0,0,1,1,1,1,0,0,0,0,0,1,1,1,1,0,1,1,1,0,1,1,1,1,1,1,1,1,0,0,1,0,1,1,1,0,1,1,1,1,1,1,1,0,0,0,0,0,1,1,1,0,1]",,,,,,,,,,0,,,,,,stimuli/m2.jpg,stimuli/m5.jpg,2,stimuli/Outdoor activity & sport item.png,stimuli/Electronic device & accessory.png,stimuli/Hand labour tool & accessory.png,stimuli/Kitchen & utensil.png,3,1,4,stimuli/m5.jpg,Hand labour tool & accessory,stimuli/objects/puttyknife.jpg,15,2021-05-05_15h01.08.350,premceCat2_ses-02_part-01_label-phase1,2020.2.9,MacIntel,60,2,0,1.53418,0,13,13,13,1,,,,,,
0,"[1,0,1,0,0,1,0,0,1,1,0,1,1,1,1,1,0,1,0,1,1,1,1,1,1,1,1,1,1,0,0,1,1,1,1,0,0,0,0,0,1,1,1,1,0,1,1,1,0,1,1,1,1,1,1,1,1,0,0,1,0,1,1,1,0,1,1,1,1,1,1,1,0,0,0,0,0,1,1,1,0,1,0]",,,,,,,,,,0,,,,,,stimuli/m2.jpg,stimuli/m5.jpg,1,stimuli/Electronic device & accessory.png,stimuli/Hand labour tool & accessory.png,stimuli/Kitchen & utensil.png,stimuli/Outdoor activity & sport item.png,2,0,4,stimuli/m2.jpg,Hand labour tool & accessory,stimuli/objects/adjustablewrench01b.jpg,15,2021-05-05_15h01.08.350,premceCat2_ses-02_part-01_label-phase1,2020.2.9,MacIntel,60,3,0,0.932535,0,14,14,14,1,,,,,,
0,"[1,0,1,0,0,1,0,0,1,1,0,1,1,1,1,1,0,1,0,1,1,1,1,1,1,1,1,1,1,0,0,1,1,1,1,0,0,0,0,0,1,1,1,1,0,1,1,1,0,1,1,1,1,1,1,1,1,0,0,1,0,1,1,1,0,1,1,1,1,1,1,1,0,0,0,0,0,1,1,1,0,1,0]",,,,,,,,,,0,,,,,,stimuli/m2.jpg,stimuli/m5.jpg,2,stimuli/Kitchen & utensil.png,stimuli/Outdoor activity & sport item.png,stimuli/Hand labour tool & accessory.png,stimuli/Electronic device & accessory.png,2,0,4,stimuli/m5.jpg,Outdoor activity & sport item,stimuli/objects/hockeygoaliepad.jpg,15,2021-05-05_15h01.08.350,premceCat2_ses-02_part-01_label-phase1,2020.2.9,MacIntel,60,3,0,2.05109,0,15,15,15,1,,,,,,
1,"[1,0,1,0,0,1,0,0,1,1,0,1,1,1,1,1,0,1,0,1,1,1,1,1,1,1,1,1,1,0,0,1,1,1,1,0,0,0,0,0,1,1,1,1,0,1,1,1,0,1,1,1,1,1,1,1,1,0,0,1,0,1,1,1,0,1,1,1,1,1,1,1,0,0,0,0,0,1,1,1,0,1,0]",,,,,,,,,,1,,,,,,stimuli/m2.jpg,stimuli/m5.jpg,2,stimuli/Hand labour tool & accessory.png,stimuli/Electronic device & accessory.png,stimuli/Outdoor activity & sport item.png,stimuli/Kitchen & utensil.png,1,1,4,stimuli/m5.jpg,Hand labour tool & accessory,stimuli/objects/lawnmower.jpg,15,2021-05-05_15h01.08.350,premceCat2_ses-02_part-01_label-phase1,2020.2.9,MacIntel,60,1,1,1.28387,0,16,16,16,1,,,,,,
0,"[1,0,1,0,0,1,0,0,1,1,0,1,1,1,1,1,0,1,0,1,1,1,1,1,1,1,1,1,1,0,0,1,1,1,1,0,0,0,0,0,1,1,1,1,0,1,1,1,0,1,1,1,1,1,1,1,1,0,0,1,0,1,1,1,0,1,1,1,1,1,1,1,0,0,0,0,0,1,1,1,0,1,0,1]",,,,,,,,,,1,,,,,,stimuli/m5.jpg,stimuli/m2.jpg,1,stimuli/Hand labour tool & accessory.png,stimuli/Kitchen & utensil.png,stimuli/Outdoor activity & sport item.png,stimuli/Electronic device & accessory.png,2,0,4,stimuli/m5.jpg,Kitchen & utensil,stimuli/objects/muffintray01.jpg,15,2021-05-05_15h01.08.350,premceCat2_ses-02_part-01_label-phase1,2020.2.9,MacIntel,60,3,0,0.950845,0,17,17,17,1,,,,,,
1,"[1,0,1,0,0,1,0,0,1,1,0,1,1,1,1,1,0,1,0,1,1,1,1,1,1,1,1,1,1,0,0,1,1,1,1,0,0,0,0,0,1,1,1,1,0,1,1,1,0,1,1,1,1,1,1,1,1,0,0,1,0,1,1,1,0,1,1,1,1,1,1,1,0,0,0,0,0,1,1,1,0,1,0,1]",,,,,,,,,,1,,,,,,stimuli/m5.jpg,stimuli/m2.jpg,2,stimuli/Electronic device & accessory.png,stimuli/Hand labour tool & accessory.png,stimuli/Kitchen & utensil.png,stimuli/Outdoor activity & sport item.png,3,1,4,stimuli/m2.jpg,Kitchen & utensil,stimuli/objects/watercooler.jpg,15,2021-05-05_15h01.08.350,premceCat2_ses-02_part-01_label-phase1,2020.2.9,MacIntel,60,3,1,0.98513,0,18,18,18,1,,,,,,
0,"[1,0,1,0,0,1,0,0,1,1,0,1,1,1,1,1,0,1,0,1,1,1,1,1,1,1,1,1,1,0,0,1,1,1,1,0,0,0,0,0,1,1,1,1,0,1,1,1,0,1,1,1,1,1,1,1,1,0,0,1,0,1,1,1,0,1,1,1,1,1,1,1,0,0,0,0,0,1,1,1,0,1,0,1,1]",,,,,,,,,,0,,,,,,stimuli/m5.jpg,stimuli/m2.jpg,1,stimuli/Kitchen & utensil.png,stimuli/Outdoor activity & sport item.png,stimuli/Electronic device & accessory.png,stimuli/Hand labour tool & accessory.png,4,1,4,stimuli/m5.jpg,Hand labour tool & accessory,stimuli/objects/painttray.jpg,15,2021-05-05_15h01.08.350,premceCat2_ses-02_part-01_label-phase1,2020.2.9,MacIntel,60,1,0,1.2509,0,19,19,19,1,,,,,,
1,"[1,0,1,0,0,1,0,0,1,1,0,1,1,1,1,1,0,1,0,1,1,1,1,1,1,1,1,1,1,0,0,1,1,1,1,0,0,0,0,0,1,1,1,1,0,1,1,1,0,1,1,1,1,1,1,1,1,0,0,1,0,1,1,1,0,1,1,1,1,1,1,1,0,0,0,0,0,1,1,1,0,1,0,1,1,0]",,,,,,,,,,1,,,,,,stimuli/m5.jpg,stimuli/m2.jpg,1,stimuli/Kitchen & utensil.png,stimuli/Electronic device & accessory.png,stimuli/Hand labour tool & accessory.png,stimuli/Outdoor activity & sport item.png,3,1,4,stimuli/m5.jpg,Hand labour tool & accessory,stimuli/objects/gastank.jpg,15,2021-05-05_15h01.08.350,premceCat2_ses-02_part-01_label-phase1,2020.2.9,MacIntel,60,3,1,0.89948,0,20,20,20,1,,,,,,
1,"[1,0,1,0,0,1,0,0,1,1,0,1,1,1,1,1,0,1,0,1,1,1,1,1,1,1,1,1,1,0,0,1,1,1,1,0,0,0,0,0,1,1,1,1,0,1,1,1,0,1,1,1,1,1,1,1,1,0,0,1,0,1,1,1,0,1,1,1,1,1,1,1,0,0,0,0,0,1,1,1,0,1,0,1,1,0,1]",,,,,,,,,,1,,,,,,stimuli/m2.jpg,stimuli/m5.jpg,2,stimuli/Hand labour tool & accessory.png,stimuli/Electronic device & accessory.png,stimuli/Kitchen & utensil.png,stimuli/Outdoor activity & sport item.png,1,1,4,stimuli/m5.jpg,Hand labour tool & accessory,stimuli/objects/wateringcan.jpg,15,2021-05-05_15h01.08.350,premceCat2_ses-02_part-01_label-phase1,2020.2.9,MacIntel,60,1,1,1.847455,0,21,21,21,1,,,,,,
0,"[1,0,1,0,0,1,0,0,1,1,0,1,1,1,1,1,0,1,0,1,1,1,1,1,1,1,1,1,1,0,0,1,1,1,1,0,0,0,0,0,1,1,1,1,0,1,1,1,0,1,1,1,1,1,1,1,1,0,0,1,0,1,1,1,0,1,1,1,1,1,1,1,0,0,0,0,0,1,1,1,0,1,0,1,1,0,1,1]",,,,,,,,,,0,,,,,,stimuli/m5.jpg,stimuli/m2.jpg,1,stimuli/Electronic device & accessory.png,stimuli/Outdoor activity & sport item.png,stimuli/Hand labour tool & accessory.png,stimuli/Kitchen & utensil.png,3,1,4,stimuli/m5.jpg,Hand labour tool & accessory,stimuli/objects/ladder.jpg,15,2021-05-05_15h01.08.350,premceCat2_ses-02_part-01_label-phase1,2020.2.9,MacIntel,60,2,0,1.116345,0,22,22,22,1,,,,,,
1,"[1,0,1,0,0,1,0,0,1,1,0,1,1,1,1,1,0,1,0,1,1,1,1,1,1,1,1,1,1,0,0,1,1,1,1,0,0,0,0,0,1,1,1,1,0,1,1,1,0,1,1,1,1,1,1,1,1,0,0,1,0,1,1,1,0,1,1,1,1,1,1,1,0,0,0,0,0,1,1,1,0,1,0,1,1,0,1,1,0]",,,,,,,,,,1,,,,,,stimuli/m2.jpg,stimuli/m5.jpg,1,stimuli/Outdoor activity & sport item.png,stimuli/Kitchen & utensil.png,stimuli/Hand labour tool & accessory.png,stimuli/Electronic device & accessory.png,2,1,4,stimuli/m2.jpg,Kitchen & utensil,stimuli/objects/cowbell.jpg,15,2021-05-05_15h01.08.350,premceCat2_ses-02_part-01_label-phase1,2020.2.9,MacIntel,60,2,1,1.33349,0,23,23,23,1,,,,,,
0,"[1,0,1,0,0,1,0,0,1,1,0,1,1,1,1,1,0,1,0,1,1,1,1,1,1,1,1,1,1,0,0,1,1,1,1,0,0,0,0,0,1,1,1,1,0,1,1,1,0,1,1,1,1,1,1,1,1,0,0,1,0,1,1,1,0,1,1,1,1,1,1,1,0,0,0,0,0,1,1,1,0,1,0,1,1,0,1,1,0,1]",,,,,,,,,,0,,,,,,stimuli/m2.jpg,stimuli/m5.jpg,2,stimuli/Hand labour tool & accessory.png,stimuli/Outdoor activity & sport item.png,stimuli/Kitchen & utensil.png,stimuli/Electronic device & accessory.png,1,1,4,stimuli/m5.jpg,Hand labour tool & accessory,stimuli/objects/squeegee01b.jpg,15,2021-05-05_15h01.08.350,premceCat2_ses-02_part-01_label-phase1,2020.2.9,MacIntel,60,2,0,0.56633,0,24,24,24,1,,,,,,
0,"[1,0,1,0,0,1,0,0,1,1,0,1,1,1,1,1,0,1,0,1,1,1,1,1,1,1,1,1,1,0,0,1,1,1,1,0,0,0,0,0,1,1,1,1,0,1,1,1,0,1,1,1,1,1,1,1,1,0,0,1,0,1,1,1,0,1,1,1,1,1,1,1,0,0,0,0,0,1,1,1,0,1,0,1,1,0,1,1,0,1,0]",,,,,,,,,,0,,,,,,stimuli/m5.jpg,stimuli/m2.jpg,1,stimuli/Hand labour tool & accessory.png,stimuli/Electronic device & accessory.png,stimuli/Kitchen & utensil.png,stimuli/Outdoor activity & sport item.png,3,0,4,stimuli/m5.jpg,Kitchen & utensil,stimuli/objects/tray.jpg,15,2021-05-05_15h01.08.350,premceCat2_ses-02_part-01_label-phase1,2020.2.9,MacIntel,60,1,0,0.69849,0,25,25,25,1,,,,,,
0,"[1,0,1,0,0,1,0,0,1,1,0,1,1,1,1,1,0,1,0,1,1,1,1,1,1,1,1,1,1,0,0,1,1,1,1,0,0,0,0,0,1,1,1,1,0,1,1,1,0,1,1,1,1,1,1,1,1,0,0,1,0,1,1,1,0,1,1,1,1,1,1,1,0,0,0,0,0,1,1,1,0,1,0,1,1,0,1,1,0,1,0]",,,,,,,,,,0,,,,,,stimuli/m5.jpg,stimuli/m2.jpg,2,stimuli/Kitchen & utensil.png,stimuli/Hand labour tool & accessory.png,stimuli/Electronic device & accessory.png,stimuli/Outdoor activity & sport item.png,4,0,4,stimuli/m2.jpg,Outdoor activity & sport item,stimuli/objects/lifesaver.jpg,15,2021-05-05_15h01.08.350,premceCat2_ses-02_part-01_label-phase1,2020.2.9,MacIntel,60,1,0,1.949975,0,26,26,26,1,,,,,,
0,"[1,0,1,0,0,1,0,0,1,1,0,1,1,1,1,1,0,1,0,1,1,1,1,1,1,1,1,1,1,0,0,1,1,1,1,0,0,0,0,0,1,1,1,1,0,1,1,1,0,1,1,1,1,1,1,1,1,0,0,1,0,1,1,1,0,1,1,1,1,1,1,1,0,0,0,0,0,1,1,1,0,1,0,1,1,0,1,1,0,1,0]",,,,,,,,,,0,,,,,,stimuli/m2.jpg,stimuli/m5.jpg,1,stimuli/Outdoor activity & sport item.png,stimuli/Hand labour tool & accessory.png,stimuli/Kitchen & utensil.png,stimuli/Electronic device & accessory.png,3,1,4,stimuli/m2.jpg,Kitchen & utensil,stimuli/objects/rollingpin01a.jpg,15,2021-05-05_15h01.08.350,premceCat2_ses-02_part-01_label-phase1,2020.2.9,MacIntel,60,2,0,1.236035,0,27,27,27,1,,,,,,
0,"[1,0,1,0,0,1,0,0,1,1,0,1,1,1,1,1,0,1,0,1,1,1,1,1,1,1,1,1,1,0,0,1,1,1,1,0,0,0,0,0,1,1,1,1,0,1,1,1,0,1,1,1,1,1,1,1,1,0,0,1,0,1,1,1,0,1,1,1,1,1,1,1,0,0,0,0,0,1,1,1,0,1,0,1,1,0,1,1,0,1,0,0]",,,,,,,,,,0,,,,,,stimuli/m5.jpg,stimuli/m2.jpg,1,stimuli/Electronic device & accessory.png,stimuli/Hand labour tool & accessory.png,stimuli/Outdoor activity & sport item.png,stimuli/Kitchen & utensil.png,2,1,4,stimuli/m5.jpg,Hand labour tool & accessory,stimuli/objects/stubbywrench01a.jpg,15,2021-05-05_15h01.08.350,premceCat2_ses-02_part-01_label-phase1,2020.2.9,MacIntel,60,4,0,0.51804,0,28,28,28,1,,,,,,
1,"[1,0,1,0,0,1,0,0,1,1,0,1,1,1,1,1,0,1,0,1,1,1,1,1,1,1,1,1,1,0,0,1,1,1,1,0,0,0,0,0,1,1,1,1,0,1,1,1,0,1,1,1,1,1,1,1,1,0,0,1,0,1,1,1,0,1,1,1,1,1,1,1,0,0,0,0,0,1,1,1,0,1,0,1,1,0,1,1,0,1,0,0,0]",,,,,,,,,,0,,,,,,stimuli/m2.jpg,stimuli/m5.jpg,1,stimuli/Kitchen & utensil.png,stimuli/Electronic device & accessory.png,stimuli/Hand labour tool & accessory.png,stimuli/Outdoor activity & sport item.png,4,0,4,stimuli/m2.jpg,Outdoor activity & sport item,stimuli/objects/downhillski.jpg,15,2021-05-05_15h01.08.350,premceCat2_ses-02_part-01_label-phase1,2020.2.9,MacIntel,60,4,1,0.848225,0,29,29,29,1,,,,,,
0,"[1,0,1,0,0,1,0,0,1,1,0,1,1,1,1,1,0,1,0,1,1,1,1,1,1,1,1,1,1,0,0,1,1,1,1,0,0,0,0,0,1,1,1,1,0,1,1,1,0,1,1,1,1,1,1,1,1,0,0,1,0,1,1,1,0,1,1,1,1,1,1,1,0,0,0,0,0,1,1,1,0,1,0,1,1,0,1,1,0,1,0,0,0]",,,,,,,,,,0,,,,,,stimuli/m5.jpg,stimuli/m2.jpg,2,stimuli/Electronic device & accessory.png,stimuli/Outdoor activity & sport item.png,stimuli/Hand labour tool & accessory.png,stimuli/Kitchen & utensil.png,4,1,4,stimuli/m2.jpg,Kitchen & utensil,stimuli/objects/gasburner.jpg,15,2021-05-05_15h01.08.350,premceCat2_ses-02_part-01_label-phase1,2020.2.9,MacIntel,60,2,0,1.01657,0,30,30,30,1,,,,,,
0,"[1,0,1,0,0,1,0,0,1,1,0,1,1,1,1,1,0,1,0,1,1,1,1,1,1,1,1,1,1,0,0,1,1,1,1,0,0,0,0,0,1,1,1,1,0,1,1,1,0,1,1,1,1,1,1,1,1,0,0,1,0,1,1,1,0,1,1,1,1,1,1,1,0,0,0,0,0,1,1,1,0,1,0,1,1,0,1,1,0,1,0,0,0,0]",,,,,,,,,,0,,,,,,stimuli/m5.jpg,stimuli/m2.jpg,2,stimuli/Hand labour tool & accessory.png,stimuli/Kitchen & utensil.png,stimuli/Outdoor activity & sport item.png,stimuli/Electronic device & accessory.png,2,1,4,stimuli/m2.jpg,Kitchen & utensil,stimuli/objects/canister.jpg,15,2021-05-05_15h01.08.350,premceCat2_ses-02_part-01_label-phase1,2020.2.9,MacIntel,60,3,0,1.05101,0,31,31,31,1,,,,,,
1,"[1,0,1,0,0,1,0,0,1,1,0,1,1,1,1,1,0,1,0,1,1,1,1,1,1,1,1,1,1,0,0,1,1,1,1,0,0,0,0,0,1,1,1,1,0,1,1,1,0,1,1,1,1,1,1,1,1,0,0,1,0,1,1,1,0,1,1,1,1,1,1,1,0,0,0,0,0,1,1,1,0,1,0,1,1,0,1,1,0,1,0,0,0,0,0]",,,,,,,,,,1,,,,,,stimuli/m5.jpg,stimuli/m2.jpg,1,stimuli/Outdoor activity & sport item.png,stimuli/Electronic device & accessory.png,stimuli/Hand labour tool & accessory.png,stimuli/Kitchen & utensil.png,3,1,4,stimuli/m5.jpg,Hand labour tool & accessory,stimuli/objects/flooringstapler.jpg,15,2021-05-05_15h01.08.350,premceCat2_ses-02_part-01_label-phase1,2020.2.9,MacIntel,60,3,1,1.234305,0,32,32,32,1,,,,,,
1,"[1,0,1,0,0,1,0,0,1,1,0,1,1,1,1,1,0,1,0,1,1,1,1,1,1,1,1,1,1,0,0,1,1,1,1,0,0,0,0,0,1,1,1,1,0,1,1,1,0,1,1,1,1,1,1,1,1,0,0,1,0,1,1,1,0,1,1,1,1,1,1,1,0,0,0,0,0,1,1,1,0,1,0,1,1,0,1,1,0,1,0,0,0,0,0,1]",,,,,,,,,,1,,,,,,stimuli/m5.jpg,stimuli/m2.jpg,1,stimuli/Kitchen & utensil.png,stimuli/Hand labour tool & accessory.png,stimuli/Electronic device & accessory.png,stimuli/Outdoor activity & sport item.png,2,1,4,stimuli/m5.jpg,Hand labour tool & accessory,stimuli/objects/caulking.jpg,15,2021-05-05_15h01.08.350,premceCat2_ses-02_part-01_label-phase1,2020.2.9,MacIntel,60,2,1,0.845265,0,33,33,33,1,,,,,,
1,"[1,0,1,0,0,1,0,0,1,1,0,1,1,1,1,1,0,1,0,1,1,1,1,1,1,1,1,1,1,0,0,1,1,1,1,0,0,0,0,0,1,1,1,1,0,1,1,1,0,1,1,1,1,1,1,1,1,0,0,1,0,1,1,1,0,1,1,1,1,1,1,1,0,0,0,0,0,1,1,1,0,1,0,1,1,0,1,1,0,1,0,0,0,0,0,1,1]",,,,,,,,,,1,,,,,,stimuli/m2.jpg,stimuli/m5.jpg,1,stimuli/Kitchen & utensil.png,stimuli/Outdoor activity & sport item.png,stimuli/Electronic device & accessory.png,stimuli/Hand labour tool & accessory.png,1,1,4,stimuli/m2.jpg,Kitchen & utensil,stimuli/objects/oven.jpg,15,2021-05-05_15h01.08.350,premceCat2_ses-02_part-01_label-phase1,2020.2.9,MacIntel,60,1,1,1.26689,0,34,34,34,1,,,,,,
1,"[1,0,1,0,0,1,0,0,1,1,0,1,1,1,1,1,0,1,0,1,1,1,1,1,1,1,1,1,1,0,0,1,1,1,1,0,0,0,0,0,1,1,1,1,0,1,1,1,0,1,1,1,1,1,1,1,1,0,0,1,0,1,1,1,0,1,1,1,1,1,1,1,0,0,0,0,0,1,1,1,0,1,0,1,1,0,1,1,0,1,0,0,0,0,0,1,1,1]",,,,,,,,,,1,,,,,,stimuli/m5.jpg,stimuli/m2.jpg,2,stimuli/Hand labour tool & accessory.png,stimuli/Outdoor activity & sport item.png,stimuli/Kitchen & utensil.png,stimuli/Electronic device & accessory.png,3,1,4,stimuli/m2.jpg,Kitchen & utensil,stimuli/objects/bowl02a.jpg,15,2021-05-05_15h01.08.350,premceCat2_ses-02_part-01_label-phase1,2020.2.9,MacIntel,60,3,1,1.167495,0,35,35,35,1,,,,,,
1,"[1,0,1,0,0,1,0,0,1,1,0,1,1,1,1,1,0,1,0,1,1,1,1,1,1,1,1,1,1,0,0,1,1,1,1,0,0,0,0,0,1,1,1,1,0,1,1,1,0,1,1,1,1,1,1,1,1,0,0,1,0,1,1,1,0,1,1,1,1,1,1,1,0,0,0,0,0,1,1,1,0,1,0,1,1,0,1,1,0,1,0,0,0,0,0,1,1,1,1]",,,,,,,,,,1,,,,,,stimuli/m2.jpg,stimuli/m5.jpg,1,stimuli/Hand labour tool & accessory.png,stimuli/Outdoor activity & sport item.png,stimuli/Kitchen & utensil.png,stimuli/Electronic device & accessory.png,3,1,4,stimuli/m2.jpg,Kitchen & utensil,stimuli/objects/breadknife.jpg,15,2021-05-05_15h01.08.350,premceCat2_ses-02_part-01_label-phase1,2020.2.9,MacIntel,60,3,1,0.683345,0,36,36,36,1,,,,,,
1,"[1,0,1,0,0,1,0,0,1,1,0,1,1,1,1,1,0,1,0,1,1,1,1,1,1,1,1,1,1,0,0,1,1,1,1,0,0,0,0,0,1,1,1,1,0,1,1,1,0,1,1,1,1,1,1,1,1,0,0,1,0,1,1,1,0,1,1,1,1,1,1,1,0,0,0,0,0,1,1,1,0,1,0,1,1,0,1,1,0,1,0,0,0,0,0,1,1,1,1,1]",,,,,,,,,,1,,,,,,stimuli/m2.jpg,stimuli/m5.jpg,1,stimuli/Hand labour tool & accessory.png,stimuli/Outdoor activity & sport item.png,stimuli/Electronic device & accessory.png,stimuli/Kitchen & utensil.png,4,1,4,stimuli/m2.jpg,Kitchen & utensil,stimuli/objects/hourglass.jpg,15,2021-05-05_15h01.08.350,premceCat2_ses-02_part-01_label-phase1,2020.2.9,MacIntel,60,4,1,2.004515,0,37,37,37,1,,,,,,
1,"[1,0,1,0,0,1,0,0,1,1,0,1,1,1,1,1,0,1,0,1,1,1,1,1,1,1,1,1,1,0,0,1,1,1,1,0,0,0,0,0,1,1,1,1,0,1,1,1,0,1,1,1,1,1,1,1,1,0,0,1,0,1,1,1,0,1,1,1,1,1,1,1,0,0,0,0,0,1,1,1,0,1,0,1,1,0,1,1,0,1,0,0,0,0,0,1,1,1,1,1,1]",,,,,,,,,,1,,,,,,stimuli/m5.jpg,stimuli/m2.jpg,1,stimuli/Hand labour tool & accessory.png,stimuli/Outdoor activity & sport item.png,stimuli/Electronic device & accessory.png,stimuli/Kitchen & utensil.png,1,1,4,stimuli/m5.jpg,Hand labour tool & accessory,stimuli/objects/mallet01b.jpg,15,2021-05-05_15h01.08.350,premceCat2_ses-02_part-01_label-phase1,2020.2.9,MacIntel,60,1,1,0.683125,0,38,38,38,1,,,,,,
1,"[1,0,1,0,0,1,0,0,1,1,0,1,1,1,1,1,0,1,0,1,1,1,1,1,1,1,1,1,1,0,0,1,1,1,1,0,0,0,0,0,1,1,1,1,0,1,1,1,0,1,1,1,1,1,1,1,1,0,0,1,0,1,1,1,0,1,1,1,1,1,1,1,0,0,0,0,0,1,1,1,0,1,0,1,1,0,1,1,0,1,0,0,0,0,0,1,1,1,1,1,1,1]",,,,,,,,,,1,,,,,,stimuli/m5.jpg,stimuli/m2.jpg,1,stimuli/Hand labour tool & accessory.png,stimuli/Outdoor activity & sport item.png,stimuli/Kitchen & utensil.png,stimuli/Electronic device & accessory.png,1,1,4,stimuli/m5.jpg,Hand labour tool & accessory,stimuli/objects/pressurewasher.jpg,15,2021-05-05_15h01.08.350,premceCat2_ses-02_part-01_label-phase1,2020.2.9,MacIntel,60,1,1,0.44969,0,39,39,39,1,,,,,,
1,"[1,0,1,0,0,1,0,0,1,1,0,1,1,1,1,1,0,1,0,1,1,1,1,1,1,1,1,1,1,0,0,1,1,1,1,0,0,0,0,0,1,1,1,1,0,1,1,1,0,1,1,1,1,1,1,1,1,0,0,1,0,1,1,1,0,1,1,1,1,1,1,1,0,0,0,0,0,1,1,1,0,1,0,1,1,0,1,1,0,1,0,0,0,0,0,1,1,1,1,1,1,1,1]",,,,,,,,,,1,,,,,,stimuli/m5.jpg,stimuli/m2.jpg,2,stimuli/Kitchen & utensil.png,stimuli/Hand labour tool & accessory.png,stimuli/Outdoor activity & sport item.png,stimuli/Electronic device & accessory.png,1,1,4,stimuli/m2.jpg,Kitchen & utensil,stimuli/objects/potatomasher03b.jpg,15,2021-05-05_15h01.08.350,premceCat2_ses-02_part-01_label-phase1,2020.2.9,MacIntel,60,1,1,1.348775,0,40,40,40,1,,,,,,
0,"[1,0,1,0,0,1,0,0,1,1,0,1,1,1,1,1,0,1,0,1,1,1,1,1,1,1,1,1,1,0,0,1,1,1,1,0,0,0,0,0,1,1,1,1,0,1,1,1,0,1,1,1,1,1,1,1,1,0,0,1,0,1,1,1,0,1,1,1,1,1,1,1,0,0,0,0,0,1,1,1,0,1,0,1,1,0,1,1,0,1,0,0,0,0,0,1,1,1,1,1,1,1,1,1]",,,,,,,,,,1,,,,,,stimuli/m2.jpg,stimuli/m5.jpg,2,stimuli/Outdoor activity & sport item.png,stimuli/Kitchen & utensil.png,stimuli/Hand labour tool & accessory.png,stimuli/Electronic device & accessory.png,4,0,4,stimuli/m5.jpg,Electronic device & accessory,stimuli/objects/floppydisk02a.jpg,15,2021-05-05_15h01.08.350,premceCat2_ses-02_part-01_label-phase1,2020.2.9,MacIntel,60,3,0,1.35116,0,41,41,41,1,,,,,,
1,"[1,0,1,0,0,1,0,0,1,1,0,1,1,1,1,1,0,1,0,1,1,1,1,1,1,1,1,1,1,0,0,1,1,1,1,0,0,0,0,0,1,1,1,1,0,1,1,1,0,1,1,1,1,1,1,1,1,0,0,1,0,1,1,1,0,1,1,1,1,1,1,1,0,0,0,0,0,1,1,1,0,1,0,1,1,0,1,1,0,1,0,0,0,0,0,1,1,1,1,1,1,1,1,1]",,,,,,,,,,1,,,,,,stimuli/m5.jpg,stimuli/m2.jpg,2,stimuli/Outdoor activity & sport item.png,stimuli/Hand labour tool & accessory.png,stimuli/Kitchen & utensil.png,stimuli/Electronic device & accessory.png,3,1,4,stimuli/m2.jpg,Kitchen & utensil,stimuli/objects/pot01.jpg,15,2021-05-05_15h01.08.350,premceCat2_ses-02_part-01_label-phase1,2020.2.9,MacIntel,60,3,1,1.23345,0,42,42,42,1,,,,,,
0,"[1,0,1,0,0,1,0,0,1,1,0,1,1,1,1,1,0,1,0,1,1,1,1,1,1,1,1,1,1,0,0,1,1,1,1,0,0,0,0,0,1,1,1,1,0,1,1,1,0,1,1,1,1,1,1,1,1,0,0,1,0,1,1,1,0,1,1,1,1,1,1,1,0,0,0,0,0,1,1,1,0,1,0,1,1,0,1,1,0,1,0,0,0,0,0,1,1,1,1,1,1,1,1,1,1]",,,,,,,,,,1,,,,,,stimuli/m2.jpg,stimuli/m5.jpg,1,stimuli/Outdoor activity & sport item.png,stimuli/Electronic device & accessory.png,stimuli/Hand labour tool & accessory.png,stimuli/Kitchen & utensil.png,3,0,4,stimuli/m2.jpg,Hand labour tool & accessory,stimuli/objects/weedwacker.jpg,15,2021-05-05_15h01.08.350,premceCat2_ses-02_part-01_label-phase1,2020.2.9,MacIntel,60,4,0,1.66713,0,43,43,43,1,,,,,,
1,"[1,0,1,0,0,1,0,0,1,1,0,1,1,1,1,1,0,1,0,1,1,1,1,1,1,1,1,1,1,0,0,1,1,1,1,0,0,0,0,0,1,1,1,1,0,1,1,1,0,1,1,1,1,1,1,1,1,0,0,1,0,1,1,1,0,1,1,1,1,1,1,1,0,0,0,0,0,1,1,1,0,1,0,1,1,0,1,1,0,1,0,0,0,0,0,1,1,1,1,1,1,1,1,1,1]",,,,,,,,,,1,,,,,,stimuli/m2.jpg,stimuli/m5.jpg,2,stimuli/Outdoor activity & sport item.png,stimuli/Hand labour tool & accessory.png,stimuli/Kitchen & utensil.png,stimuli/Electronic device & accessory.png,2,1,4,stimuli/m5.jpg,Hand labour tool & accessory,stimuli/objects/bucket02.jpg,15,2021-05-05_15h01.08.350,premceCat2_ses-02_part-01_label-phase1,2020.2.9,MacIntel,60,2,1,1.584065,0,44,44,44,1,,,,,,
1,"[1,0,1,0,0,1,0,0,1,1,0,1,1,1,1,1,0,1,0,1,1,1,1,1,1,1,1,1,1,0,0,1,1,1,1,0,0,0,0,0,1,1,1,1,0,1,1,1,0,1,1,1,1,1,1,1,1,0,0,1,0,1,1,1,0,1,1,1,1,1,1,1,0,0,0,0,0,1,1,1,0,1,0,1,1,0,1,1,0,1,0,0,0,0,0,1,1,1,1,1,1,1,1,1,1,1]",,,,,,,,,,1,,,,,,stimuli/m2.jpg,stimuli/m5.jpg,2,stimuli/Electronic device & accessory.png,stimuli/Kitchen & utensil.png,stimuli/Outdoor activity & sport item.png,stimuli/Hand labour tool & accessory.png,4,1,4,stimuli/m5.jpg,Hand labour tool & accessory,stimuli/objects/snowblower.jpg,15,2021-05-05_15h01.08.350,premceCat2_ses-02_part-01_label-phase1,2020.2.9,MacIntel,60,4,1,1.08477,0,45,45,45,1,,,,,,
1,"[1,0,1,0,0,1,0,0,1,1,0,1,1,1,1,1,0,1,0,1,1,1,1,1,1,1,1,1,1,0,0,1,1,1,1,0,0,0,0,0,1,1,1,1,0,1,1,1,0,1,1,1,1,1,1,1,1,0,0,1,0,1,1,1,0,1,1,1,1,1,1,1,0,0,0,0,0,1,1,1,0,1,0,1,1,0,1,1,0,1,0,0,0,0,0,1,1,1,1,1,1,1,1,1,1,1,1]",,,,,,,,,,1,,,,,,stimuli/m5.jpg,stimuli/m2.jpg,2,stimuli/Outdoor activity & sport item.png,stimuli/Kitchen & utensil.png,stimuli/Electronic device & accessory.png,stimuli/Hand labour tool & accessory.png,2,1,4,stimuli/m2.jpg,Kitchen & utensil,stimuli/objects/travelmug.jpg,15,2021-05-05_15h01.08.350,premceCat2_ses-02_part-01_label-phase1,2020.2.9,MacIntel,60,2,1,1.33478,0,46,46,46,1,,,,,,
1,"[1,0,1,0,0,1,0,0,1,1,0,1,1,1,1,1,0,1,0,1,1,1,1,1,1,1,1,1,1,0,0,1,1,1,1,0,0,0,0,0,1,1,1,1,0,1,1,1,0,1,1,1,1,1,1,1,1,0,0,1,0,1,1,1,0,1,1,1,1,1,1,1,0,0,0,0,0,1,1,1,0,1,0,1,1,0,1,1,0,1,0,0,0,0,0,1,1,1,1,1,1,1,1,1,1,1,1,1]",,,,,,,,,,1,,,,,,stimuli/m5.jpg,stimuli/m2.jpg,2,stimuli/Kitchen & utensil.png,stimuli/Outdoor activity & sport item.png,stimuli/Hand labour tool & accessory.png,stimuli/Electronic device & accessory.png,4,0,4,stimuli/m2.jpg,Electronic device & accessory,stimuli/objects/nintendods.jpg,15,2021-05-05_15h01.08.350,premceCat2_ses-02_part-01_label-phase1,2020.2.9,MacIntel,60,4,1,1.381815,0,47,47,47,1,,,,,,
,,,,,,,,,,,,,,,,,,,,,,,,,,,,,,15,2021-05-05_15h01.08.350,premceCat2_ses-02_part-01_label-phase1,2020.2.9,MacIntel,60,,,,,,,,,0,2,2,2,1,condition_files/tasklistC4.csv
0,"[1,0,1,0,0,1,0,0,1,1,0,1,1,1,1,1,0,1,0,1,1,1,1,1,1,1,1,1,1,0,0,1,1,1,1,0,0,0,0,0,1,1,1,1,0,1,1,1,0,1,1,1,1,1,1,1,1,0,0,1,0,1,1,1,0,1,1,1,1,1,1,1,0,0,0,0,0,1,1,1,0,1,0,1,1,0,1,1,0,1,0,0,0,0,0,1,1,1,1,1,1,1,1,1,1,1,1,1]",,,,,,,,,,0,,,,,,stimuli/m2.jpg,stimuli/m5.jpg,1,stimuli/Kitchen & utensil.png,stimuli/Hand labour tool & accessory.png,stimuli/Electronic device & accessory.png,stimuli/Outdoor activity & sport item.png,4,1,5,stimuli/m2.jpg,Outdoor activity & sport item,stimuli/objects/bikewheel.jpg,15,2021-05-05_15h01.08.350,premceCat2_ses-02_part-01_label-phase1,2020.2.9,MacIntel,60,1,0,1.383125,0,0,0,0,1,,,,,,
0,"[1,0,1,0,0,1,0,0,1,1,0,1,1,1,1,1,0,1,0,1,1,1,1,1,1,1,1,1,1,0,0,1,1,1,1,0,0,0,0,0,1,1,1,1,0,1,1,1,0,1,1,1,1,1,1,1,1,0,0,1,0,1,1,1,0,1,1,1,1,1,1,1,0,0,0,0,0,1,1,1,0,1,0,1,1,0,1,1,0,1,0,0,0,0,0,1,1,1,1,1,1,1,1,1,1,1,1,1,0]",,,,,,,,,,0,,,,,,stimuli/m5.jpg,stimuli/m2.jpg,2,stimuli/Kitchen & utensil.png,stimuli/Hand labour tool & accessory.png,stimuli/Outdoor activity & sport item.png,stimuli/Electronic device & accessory.png,4,0,5,stimuli/m2.jpg,Electronic device & accessory,stimuli/objects/antenna.jpg,15,2021-05-05_15h01.08.350,premceCat2_ses-02_part-01_label-phase1,2020.2.9,MacIntel,60,1,0,0.583045,0,1,1,1,1,,,,,,
0,"[1,0,1,0,0,1,0,0,1,1,0,1,1,1,1,1,0,1,0,1,1,1,1,1,1,1,1,1,1,0,0,1,1,1,1,0,0,0,0,0,1,1,1,1,0,1,1,1,0,1,1,1,1,1,1,1,1,0,0,1,0,1,1,1,0,1,1,1,1,1,1,1,0,0,0,0,0,1,1,1,0,1,0,1,1,0,1,1,0,1,0,0,0,0,0,1,1,1,1,1,1,1,1,1,1,1,1,1,0]",,,,,,,,,,0,,,,,,stimuli/m5.jpg,stimuli/m2.jpg,2,stimuli/Electronic device & accessory.png,stimuli/Kitchen & utensil.png,stimuli/Hand labour tool & accessory.png,stimuli/Outdoor activity & sport item.png,4,1,5,stimuli/m2.jpg,Outdoor activity & sport item,stimuli/objects/patioumbrella.jpg,15,2021-05-05_15h01.08.350,premceCat2_ses-02_part-01_label-phase1,2020.2.9,MacIntel,60,1,0,1.233,0,2,2,2,1,,,,,,
1,"[1,0,1,0,0,1,0,0,1,1,0,1,1,1,1,1,0,1,0,1,1,1,1,1,1,1,1,1,1,0,0,1,1,1,1,0,0,0,0,0,1,1,1,1,0,1,1,1,0,1,1,1,1,1,1,1,1,0,0,1,0,1,1,1,0,1,1,1,1,1,1,1,0,0,0,0,0,1,1,1,0,1,0,1,1,0,1,1,0,1,0,0,0,0,0,1,1,1,1,1,1,1,1,1,1,1,1,1,0,0]",,,,,,,,,,1,,,,,,stimuli/m5.jpg,stimuli/m2.jpg,2,stimuli/Hand labour tool & accessory.png,stimuli/Outdoor activity & sport item.png,stimuli/Kitchen & utensil.png,stimuli/Electronic device & accessory.png,2,1,5,stimuli/m2.jpg,Outdoor activity & sport item,stimuli/objects/exercisebike.jpg,15,2021-05-05_15h01.08.350,premceCat2_ses-02_part-01_label-phase1,2020.2.9,MacIntel,60,2,1,1.235615,0,3,3,3,1,,,,,,
1,"[1,0,1,0,0,1,0,0,1,1,0,1,1,1,1,1,0,1,0,1,1,1,1,1,1,1,1,1,1,0,0,1,1,1,1,0,0,0,0,0,1,1,1,1,0,1,1,1,0,1,1,1,1,1,1,1,1,0,0,1,0,1,1,1,0,1,1,1,1,1,1,1,0,0,0,0,0,1,1,1,0,1,0,1,1,0,1,1,0,1,0,0,0,0,0,1,1,1,1,1,1,1,1,1,1,1,1,1,0,0,1]",,,,,,,,,,1,,,,,,stimuli/m2.jpg,stimuli/m5.jpg,2,stimuli/Outdoor activity & sport item.png,stimuli/Kitchen & utensil.png,stimuli/Electronic device & accessory.png,stimuli/Hand labour tool & accessory.png,3,1,5,stimuli/m5.jpg,Electronic device & accessory,stimuli/objects/crocodileclips.jpg,15,2021-05-05_15h01.08.350,premceCat2_ses-02_part-01_label-phase1,2020.2.9,MacIntel,60,3,1,1.183365,0,4,4,4,1,,,,,,
0,"[1,0,1,0,0,1,0,0,1,1,0,1,1,1,1,1,0,1,0,1,1,1,1,1,1,1,1,1,1,0,0,1,1,1,1,0,0,0,0,0,1,1,1,1,0,1,1,1,0,1,1,1,1,1,1,1,1,0,0,1,0,1,1,1,0,1,1,1,1,1,1,1,0,0,0,0,0,1,1,1,0,1,0,1,1,0,1,1,0,1,0,0,0,0,0,1,1,1,1,1,1,1,1,1,1,1,1,1,0,0,1,1]",,,,,,,,,,1,,,,,,stimuli/m5.jpg,stimuli/m2.jpg,2,stimuli/Hand labour tool & accessory.png,stimuli/Kitchen & utensil.png,stimuli/Outdoor activity & sport item.png,stimuli/Electronic device & accessory.png,1,0,5,stimuli/m2.jpg,Hand labour tool & accessory,stimuli/objects/drillbit03a.jpg,15,2021-05-05_15h01.08.350,premceCat2_ses-02_part-01_label-phase1,2020.2.9,MacIntel,60,3,0,0.81729,0,5,5,5,1,,,,,,
0,"[1,0,1,0,0,1,0,0,1,1,0,1,1,1,1,1,0,1,0,1,1,1,1,1,1,1,1,1,1,0,0,1,1,1,1,0,0,0,0,0,1,1,1,1,0,1,1,1,0,1,1,1,1,1,1,1,1,0,0,1,0,1,1,1,0,1,1,1,1,1,1,1,0,0,0,0,0,1,1,1,0,1,0,1,1,0,1,1,0,1,0,0,0,0,0,1,1,1,1,1,1,1,1,1,1,1,1,1,0,0,1,1]",,,,,,,,,,1,,,,,,stimuli/m5.jpg,stimuli/m2.jpg,2,stimuli/Electronic device & accessory.png,stimuli/Outdoor activity & sport item.png,stimuli/Hand labour tool & accessory.png,stimuli/Kitchen & utensil.png,3,0,5,stimuli/m2.jpg,Hand labour tool & accessory,stimuli/objects/jigsaw.jpg,15,2021-05-05_15h01.08.350,premceCat2_ses-02_part-01_label-phase1,2020.2.9,MacIntel,60,2,0,0.98271,0,6,6,6,1,,,,,,
0,"[1,0,1,0,0,1,0,0,1,1,0,1,1,1,1,1,0,1,0,1,1,1,1,1,1,1,1,1,1,0,0,1,1,1,1,0,0,0,0,0,1,1,1,1,0,1,1,1,0,1,1,1,1,1,1,1,1,0,0,1,0,1,1,1,0,1,1,1,1,1,1,1,0,0,0,0,0,1,1,1,0,1,0,1,1,0,1,1,0,1,0,0,0,0,0,1,1,1,1,1,1,1,1,1,1,1,1,1,0,0,1,1]",,,,,,,,,,0,,,,,,stimuli/m5.jpg,stimuli/m2.jpg,1,stimuli/Outdoor activity & sport item.png,stimuli/Kitchen & utensil.png,stimuli/Hand labour tool & accessory.png,stimuli/Electronic device & accessory.png,4,1,5,stimuli/m5.jpg,Electronic device & accessory,stimuli/objects/ipad02.jpg,15,2021-05-05_15h01.08.350,premceCat2_ses-02_part-01_label-phase1,2020.2.9,MacIntel,60,3,0,1.29999,0,7,7,7,1,,,,,,
0,"[1,0,1,0,0,1,0,0,1,1,0,1,1,1,1,1,0,1,0,1,1,1,1,1,1,1,1,1,1,0,0,1,1,1,1,0,0,0,0,0,1,1,1,1,0,1,1,1,0,1,1,1,1,1,1,1,1,0,0,1,0,1,1,1,0,1,1,1,1,1,1,1,0,0,0,0,0,1,1,1,0,1,0,1,1,0,1,1,0,1,0,0,0,0,0,1,1,1,1,1,1,1,1,1,1,1,1,1,0,0,1,1,0]",,,,,,,,,,0,,,,,,stimuli/m2.jpg,stimuli/m5.jpg,1,stimuli/Kitchen & utensil.png,stimuli/Electronic device & accessory.png,stimuli/Hand labour tool & accessory.png,stimuli/Outdoor activity & sport item.png,4,1,5,stimuli/m2.jpg,Outdoor activity & sport item,stimuli/objects/snowboard.jpg,15,2021-05-05_15h01.08.350,premceCat2_ses-02_part-01_label-phase1,2020.2.9,MacIntel,60,2,0,0.601605,0,8,8,8,1,,,,,,
1,"[1,0,1,0,0,1,0,0,1,1,0,1,1,1,1,1,0,1,0,1,1,1,1,1,1,1,1,1,1,0,0,1,1,1,1,0,0,0,0,0,1,1,1,1,0,1,1,1,0,1,1,1,1,1,1,1,1,0,0,1,0,1,1,1,0,1,1,1,1,1,1,1,0,0,0,0,0,1,1,1,0,1,0,1,1,0,1,1,0,1,0,0,0,0,0,1,1,1,1,1,1,1,1,1,1,1,1,1,0,0,1,1,0,0]",,,,,,,,,,1,,,,,,stimuli/m5.jpg,stimuli/m2.jpg,2,stimuli/Electronic device & accessory.png,stimuli/Kitchen & utensil.png,stimuli/Outdoor activity & sport item.png,stimuli/Hand labour tool & accessory.png,3,1,5,stimuli/m2.jpg,Outdoor activity & sport item,stimuli/objects/boatmotor.jpg,15,2021-05-05_15h01.08.350,premceCat2_ses-02_part-01_label-phase1,2020.2.9,MacIntel,60,3,1,0.75143,0,9,9,9,1,,,,,,
1,"[1,0,1,0,0,1,0,0,1,1,0,1,1,1,1,1,0,1,0,1,1,1,1,1,1,1,1,1,1,0,0,1,1,1,1,0,0,0,0,0,1,1,1,1,0,1,1,1,0,1,1,1,1,1,1,1,1,0,0,1,0,1,1,1,0,1,1,1,1,1,1,1,0,0,0,0,0,1,1,1,0,1,0,1,1,0,1,1,0,1,0,0,0,0,0,1,1,1,1,1,1,1,1,1,1,1,1,1,0,0,1,1,0,0,1]",,,,,,,,,,1,,,,,,stimuli/m5.jpg,stimuli/m2.jpg,1,stimuli/Outdoor activity & sport item.png,stimuli/Electronic device & accessory.png,stimuli/Hand labour tool & accessory.png,stimuli/Kitchen & utensil.png,2,1,5,stimuli/m5.jpg,Electronic device & accessory,stimuli/objects/desktopcomputer.jpg,15,2021-05-05_15h01.08.350,premceCat2_ses-02_part-01_label-phase1,2020.2.9,MacIntel,60,2,1,0.534415,0,10,10,10,1,,,,,,
0,"[1,0,1,0,0,1,0,0,1,1,0,1,1,1,1,1,0,1,0,1,1,1,1,1,1,1,1,1,1,0,0,1,1,1,1,0,0,0,0,0,1,1,1,1,0,1,1,1,0,1,1,1,1,1,1,1,1,0,0,1,0,1,1,1,0,1,1,1,1,1,1,1,0,0,0,0,0,1,1,1,0,1,0,1,1,0,1,1,0,1,0,0,0,0,0,1,1,1,1,1,1,1,1,1,1,1,1,1,0,0,1,1,0,0,1,1]",,,,,,,,,,1,,,,,,stimuli/m5.jpg,stimuli/m2.jpg,2,stimuli/Electronic device & accessory.png,stimuli/Hand labour tool & accessory.png,stimuli/Kitchen & utensil.png,stimuli/Outdoor activity & sport item.png,3,0,5,stimuli/m2.jpg,Kitchen & utensil,stimuli/objects/gravyboat.jpg,15,2021-05-05_15h01.08.350,premceCat2_ses-02_part-01_label-phase1,2020.2.9,MacIntel,60,4,0,0.81708,0,11,11,11,1,,,,,,
1,"[1,0,1,0,0,1,0,0,1,1,0,1,1,1,1,1,0,1,0,1,1,1,1,1,1,1,1,1,1,0,0,1,1,1,1,0,0,0,0,0,1,1,1,1,0,1,1,1,0,1,1,1,1,1,1,1,1,0,0,1,0,1,1,1,0,1,1,1,1,1,1,1,0,0,0,0,0,1,1,1,0,1,0,1,1,0,1,1,0,1,0,0,0,0,0,1,1,1,1,1,1,1,1,1,1,1,1,1,0,0,1,1,0,0,1,1]",,,,,,,,,,1,,,,,,stimuli/m2.jpg,stimuli/m5.jpg,2,stimuli/Kitchen & utensil.png,stimuli/Hand labour tool & accessory.png,stimuli/Electronic device & accessory.png,stimuli/Outdoor activity & sport item.png,3,1,5,stimuli/m5.jpg,Electronic device & accessory,stimuli/objects/electricoutlet.jpg,15,2021-05-05_15h01.08.350,premceCat2_ses-02_part-01_label-phase1,2020.2.9,MacIntel,60,3,1,0.796245,0,12,12,12,1,,,,,,
1,"[1,0,1,0,0,1,0,0,1,1,0,1,1,1,1,1,0,1,0,1,1,1,1,1,1,1,1,1,1,0,0,1,1,1,1,0,0,0,0,0,1,1,1,1,0,1,1,1,0,1,1,1,1,1,1,1,1,0,0,1,0,1,1,1,0,1,1,1,1,1,1,1,0,0,0,0,0,1,1,1,0,1,0,1,1,0,1,1,0,1,0,0,0,0,0,1,1,1,1,1,1,1,1,1,1,1,1,1,0,0,1,1,0,0,1,1,1]",,,,,,,,,,1,,,,,,stimuli/m5.jpg,stimuli/m2.jpg,2,stimuli/Kitchen & utensil.png,stimuli/Electronic device & accessory.png,stimuli/Hand labour tool & accessory.png,stimuli/Outdoor activity & sport item.png,4,1,5,stimuli/m2.jpg,Outdoor activity & sport item,stimuli/objects/soccerball.jpg,15,2021-05-05_15h01.08.350,premceCat2_ses-02_part-01_label-phase1,2020.2.9,MacIntel,60,4,1,0.84823,0,13,13,13,1,,,,,,
1,"[1,0,1,0,0,1,0,0,1,1,0,1,1,1,1,1,0,1,0,1,1,1,1,1,1,1,1,1,1,0,0,1,1,1,1,0,0,0,0,0,1,1,1,1,0,1,1,1,0,1,1,1,1,1,1,1,1,0,0,1,0,1,1,1,0,1,1,1,1,1,1,1,0,0,0,0,0,1,1,1,0,1,0,1,1,0,1,1,0,1,0,0,0,0,0,1,1,1,1,1,1,1,1,1,1,1,1,1,0,0,1,1,0,0,1,1,1,1]",,,,,,,,,,1,,,,,,stimuli/m2.jpg,stimuli/m5.jpg,2,stimuli/Electronic device & accessory.png,stimuli/Outdoor activity & sport item.png,stimuli/Hand labour tool & accessory.png,stimuli/Kitchen & utensil.png,1,1,5,stimuli/m5.jpg,Electronic device & accessory,stimuli/objects/carantenna.jpg,15,2021-05-05_15h01.08.350,premceCat2_ses-02_part-01_label-phase1,2020.2.9,MacIntel,60,1,1,0.810705,0,14,14,14,1,,,,,,
1,"[1,0,1,0,0,1,0,0,1,1,0,1,1,1,1,1,0,1,0,1,1,1,1,1,1,1,1,1,1,0,0,1,1,1,1,0,0,0,0,0,1,1,1,1,0,1,1,1,0,1,1,1,1,1,1,1,1,0,0,1,0,1,1,1,0,1,1,1,1,1,1,1,0,0,0,0,0,1,1,1,0,1,0,1,1,0,1,1,0,1,0,0,0,0,0,1,1,1,1,1,1,1,1,1,1,1,1,1,0,0,1,1,0,0,1,1,1,1,1]",,,,,,,,,,1,,,,,,stimuli/m5.jpg,stimuli/m2.jpg,2,stimuli/Hand labour tool & accessory.png,stimuli/Electronic device & accessory.png,stimuli/Kitchen & utensil.png,stimuli/Outdoor activity & sport item.png,4,1,5,stimuli/m2.jpg,Outdoor activity & sport item,stimuli/objects/reflector.jpg,15,2021-05-05_15h01.08.350,premceCat2_ses-02_part-01_label-phase1,2020.2.9,MacIntel,60,4,1,0.533345,0,15,15,15,1,,,,,,
1,"[1,0,1,0,0,1,0,0,1,1,0,1,1,1,1,1,0,1,0,1,1,1,1,1,1,1,1,1,1,0,0,1,1,1,1,0,0,0,0,0,1,1,1,1,0,1,1,1,0,1,1,1,1,1,1,1,1,0,0,1,0,1,1,1,0,1,1,1,1,1,1,1,0,0,0,0,0,1,1,1,0,1,0,1,1,0,1,1,0,1,0,0,0,0,0,1,1,1,1,1,1,1,1,1,1,1,1,1,0,0,1,1,0,0,1,1,1,1,1,1]",,,,,,,,,,1,,,,,,stimuli/m2.jpg,stimuli/m5.jpg,2,stimuli/Hand labour tool & accessory.png,stimuli/Kitchen & utensil.png,stimuli/Electronic device & accessory.png,stimuli/Outdoor activity & sport item.png,3,1,5,stimuli/m5.jpg,Electronic device & accessory,stimuli/objects/slidetray.jpg,15,2021-05-05_15h01.08.350,premceCat2_ses-02_part-01_label-phase1,2020.2.9,MacIntel,60,3,1,0.90037,0,16,16,16,1,,,,,,
1,"[1,0,1,0,0,1,0,0,1,1,0,1,1,1,1,1,0,1,0,1,1,1,1,1,1,1,1,1,1,0,0,1,1,1,1,0,0,0,0,0,1,1,1,1,0,1,1,1,0,1,1,1,1,1,1,1,1,0,0,1,0,1,1,1,0,1,1,1,1,1,1,1,0,0,0,0,0,1,1,1,0,1,0,1,1,0,1,1,0,1,0,0,0,0,0,1,1,1,1,1,1,1,1,1,1,1,1,1,0,0,1,1,0,0,1,1,1,1,1,1,1]",,,,,,,,,,1,,,,,,stimuli/m2.jpg,stimuli/m5.jpg,1,stimuli/Outdoor activity & sport item.png,stimuli/Electronic device & accessory.png,stimuli/Hand labour tool & accessory.png,stimuli/Kitchen & utensil.png,1,1,5,stimuli/m2.jpg,Outdoor activity & sport item,stimuli/objects/iceskate.jpg,15,2021-05-05_15h01.08.350,premceCat2_ses-02_part-01_label-phase1,2020.2.9,MacIntel,60,1,1,1.08463,0,17,17,17,1,,,,,,
1,"[1,0,1,0,0,1,0,0,1,1,0,1,1,1,1,1,0,1,0,1,1,1,1,1,1,1,1,1,1,0,0,1,1,1,1,0,0,0,0,0,1,1,1,1,0,1,1,1,0,1,1,1,1,1,1,1,1,0,0,1,0,1,1,1,0,1,1,1,1,1,1,1,0,0,0,0,0,1,1,1,0,1,0,1,1,0,1,1,0,1,0,0,0,0,0,1,1,1,1,1,1,1,1,1,1,1,1,1,0,0,1,1,0,0,1,1,1,1,1,1,1,1]",,,,,,,,,,1,,,,,,stimuli/m5.jpg,stimuli/m2.jpg,2,stimuli/Hand labour tool & accessory.png,stimuli/Electronic device & accessory.png,stimuli/Outdoor activity & sport item.png,stimuli/Kitchen & utensil.png,3,1,5,stimuli/m2.jpg,Outdoor activity & sport item,stimuli/objects/toyhockeystick01.jpg,15,2021-05-05_15h01.08.350,premceCat2_ses-02_part-01_label-phase1,2020.2.9,MacIntel,60,3,1,0.91711,0,18,18,18,1,,,,,,
0,"[1,0,1,0,0,1,0,0,1,1,0,1,1,1,1,1,0,1,0,1,1,1,1,1,1,1,1,1,1,0,0,1,1,1,1,0,0,0,0,0,1,1,1,1,0,1,1,1,0,1,1,1,1,1,1,1,1,0,0,1,0,1,1,1,0,1,1,1,1,1,1,1,0,0,0,0,0,1,1,1,0,1,0,1,1,0,1,1,0,1,0,0,0,0,0,1,1,1,1,1,1,1,1,1,1,1,1,1,0,0,1,1,0,0,1,1,1,1,1,1,1,1,1]",,,,,,,,,,0,,,,,,stimuli/m2.jpg,stimuli/m5.jpg,1,stimuli/Hand labour tool & accessory.png,stimuli/Outdoor activity & sport item.png,stimuli/Electronic device & accessory.png,stimuli/Kitchen & utensil.png,2,1,5,stimuli/m2.jpg,Outdoor activity & sport item,stimuli/objects/swimgoggles.jpg,15,2021-05-05_15h01.08.350,premceCat2_ses-02_part-01_label-phase1,2020.2.9,MacIntel,60,3,0,1.499505,0,19,19,19,1,,,,,,
1,"[1,0,1,0,0,1,0,0,1,1,0,1,1,1,1,1,0,1,0,1,1,1,1,1,1,1,1,1,1,0,0,1,1,1,1,0,0,0,0,0,1,1,1,1,0,1,1,1,0,1,1,1,1,1,1,1,1,0,0,1,0,1,1,1,0,1,1,1,1,1,1,1,0,0,0,0,0,1,1,1,0,1,0,1,1,0,1,1,0,1,0,0,0,0,0,1,1,1,1,1,1,1,1,1,1,1,1,1,0,0,1,1,0,0,1,1,1,1,1,1,1,1,1,0]",,,,,,,,,,1,,,,,,stimuli/m5.jpg,stimuli/m2.jpg,2,stimuli/Hand labour tool & accessory.png,stimuli/Outdoor activity & sport item.png,stimuli/Electronic device & accessory.png,stimuli/Kitchen & utensil.png,2,1,5,stimuli/m2.jpg,Outdoor activity & sport item,stimuli/objects/surfboard.jpg,15,2021-05-05_15h01.08.350,premceCat2_ses-02_part-01_label-phase1,2020.2.9,MacIntel,60,2,1,0.70076,0,20,20,20,1,,,,,,
0,"[1,0,1,0,0,1,0,0,1,1,0,1,1,1,1,1,0,1,0,1,1,1,1,1,1,1,1,1,1,0,0,1,1,1,1,0,0,0,0,0,1,1,1,1,0,1,1,1,0,1,1,1,1,1,1,1,1,0,0,1,0,1,1,1,0,1,1,1,1,1,1,1,0,0,0,0,0,1,1,1,0,1,0,1,1,0,1,1,0,1,0,0,0,0,0,1,1,1,1,1,1,1,1,1,1,1,1,1,0,0,1,1,0,0,1,1,1,1,1,1,1,1,1,0,1]",,,,,,,,,,1,,,,,,stimuli/m2.jpg,stimuli/m5.jpg,2,stimuli/Electronic device & accessory.png,stimuli/Kitchen & utensil.png,stimuli/Outdoor activity & sport item.png,stimuli/Hand labour tool & accessory.png,4,0,5,stimuli/m5.jpg,Hand labour tool & accessory,stimuli/objects/snowshovel.jpg,15,2021-05-05_15h01.08.350,premceCat2_ses-02_part-01_label-phase1,2020.2.9,MacIntel,60,1,0,1.134105,0,21,21,21,1,,,,,,
1,"[1,0,1,0,0,1,0,0,1,1,0,1,1,1,1,1,0,1,0,1,1,1,1,1,1,1,1,1,1,0,0,1,1,1,1,0,0,0,0,0,1,1,1,1,0,1,1,1,0,1,1,1,1,1,1,1,1,0,0,1,0,1,1,1,0,1,1,1,1,1,1,1,0,0,0,0,0,1,1,1,0,1,0,1,1,0,1,1,0,1,0,0,0,0,0,1,1,1,1,1,1,1,1,1,1,1,1,1,0,0,1,1,0,0,1,1,1,1,1,1,1,1,1,0,1]",,,,,,,,,,1,,,,,,stimuli/m2.jpg,stimuli/m5.jpg,1,stimuli/Outdoor activity & sport item.png,stimuli/Hand labour tool & accessory.png,stimuli/Electronic device & accessory.png,stimuli/Kitchen & utensil.png,1,1,5,stimuli/m2.jpg,Outdoor activity & sport item,stimuli/objects/propanetank01.jpg,15,2021-05-05_15h01.08.350,premceCat2_ses-02_part-01_label-phase1,2020.2.9,MacIntel,60,1,1,0.945945,0,22,22,22,1,,,,,,
1,"[1,0,1,0,0,1,0,0,1,1,0,1,1,1,1,1,0,1,0,1,1,1,1,1,1,1,1,1,1,0,0,1,1,1,1,0,0,0,0,0,1,1,1,1,0,1,1,1,0,1,1,1,1,1,1,1,1,0,0,1,0,1,1,1,0,1,1,1,1,1,1,1,0,0,0,0,0,1,1,1,0,1,0,1,1,0,1,1,0,1,0,0,0,0,0,1,1,1,1,1,1,1,1,1,1,1,1,1,0,0,1,1,0,0,1,1,1,1,1,1,1,1,1,0,1,1]",,,,,,,,,,1,,,,,,stimuli/m5.jpg,stimuli/m2.jpg,1,stimuli/Electronic device & accessory.png,stimuli/Kitchen & utensil.png,stimuli/Outdoor activity & sport item.png,stimuli/Hand labour tool & accessory.png,4,0,5,stimuli/m5.jpg,Hand labour tool & accessory,stimuli/objects/rope03.jpg,15,2021-05-05_15h01.08.350,premceCat2_ses-02_part-01_label-phase1,2020.2.9,MacIntel,60,4,1,0.466435,0,23,23,23,1,,,,,,
0,"[1,0,1,0,0,1,0,0,1,1,0,1,1,1,1,1,0,1,0,1,1,1,1,1,1,1,1,1,1,0,0,1,1,1,1,0,0,0,0,0,1,1,1,1,0,1,1,1,0,1,1,1,1,1,1,1,1,0,0,1,0,1,1,1,0,1,1,1,1,1,1,1,0,0,0,0,0,1,1,1,0,1,0,1,1,0,1,1,0,1,0,0,0,0,0,1,1,1,1,1,1,1,1,1,1,1,1,1,0,0,1,1,0,0,1,1,1,1,1,1,1,1,1,0,1,1]",,,,,,,,,,1,,,,,,stimuli/m5.jpg,stimuli/m2.jpg,1,stimuli/Outdoor activity & sport item.png,stimuli/Electronic device & accessory.png,stimuli/Kitchen & utensil.png,stimuli/Hand labour tool & accessory.png,1,0,5,stimuli/m5.jpg,Outdoor activity & sport item,stimuli/objects/podium.jpg,15,2021-05-05_15h01.08.350,premceCat2_ses-02_part-01_label-phase1,2020.2.9,MacIntel,60,4,0,0.518895,0,24,24,24,1,,,,,,
0,"[1,0,1,0,0,1,0,0,1,1,0,1,1,1,1,1,0,1,0,1,1,1,1,1,1,1,1,1,1,0,0,1,1,1,1,0,0,0,0,0,1,1,1,1,0,1,1,1,0,1,1,1,1,1,1,1,1,0,0,1,0,1,1,1,0,1,1,1,1,1,1,1,0,0,0,0,0,1,1,1,0,1,0,1,1,0,1,1,0,1,0,0,0,0,0,1,1,1,1,1,1,1,1,1,1,1,1,1,0,0,1,1,0,0,1,1,1,1,1,1,1,1,1,0,1,1]",,,,,,,,,,0,,,,,,stimuli/m5.jpg,stimuli/m2.jpg,1,stimuli/Outdoor activity & sport item.png,stimuli/Hand labour tool & accessory.png,stimuli/Kitchen & utensil.png,stimuli/Electronic device & accessory.png,4,1,5,stimuli/m5.jpg,Electronic device & accessory,stimuli/objects/outletadapter.jpg,15,2021-05-05_15h01.08.350,premceCat2_ses-02_part-01_label-phase1,2020.2.9,MacIntel,60,2,0,1.317865,0,25,25,25,1,,,,,,
0,"[1,0,1,0,0,1,0,0,1,1,0,1,1,1,1,1,0,1,0,1,1,1,1,1,1,1,1,1,1,0,0,1,1,1,1,0,0,0,0,0,1,1,1,1,0,1,1,1,0,1,1,1,1,1,1,1,1,0,0,1,0,1,1,1,0,1,1,1,1,1,1,1,0,0,0,0,0,1,1,1,0,1,0,1,1,0,1,1,0,1,0,0,0,0,0,1,1,1,1,1,1,1,1,1,1,1,1,1,0,0,1,1,0,0,1,1,1,1,1,1,1,1,1,0,1,1,0]",,,,,,,,,,0,,,,,,stimuli/m5.jpg,stimuli/m2.jpg,2,stimuli/Kitchen & utensil.png,stimuli/Outdoor activity & sport item.png,stimuli/Electronic device & accessory.png,stimuli/Hand labour tool & accessory.png,1,0,5,stimuli/m2.jpg,Kitchen & utensil,stimuli/objects/pastaspoon.jpg,15,2021-05-05_15h01.08.350,premceCat2_ses-02_part-01_label-phase1,2020.2.9,MacIntel,60,2,0,1.53311,0,26,26,26,1,,,,,,
