instructions_loop.thisRepN,instructions_loop.thisTrialN,instructions_loop.thisN,instructions_loop.thisIndex,instructions_loop.ran,text1,text2,text3,participant,date,expName,psychopyVersion,OS,frameRate,key_resp_2.keys,key_resp_2.rt,key_resp_3.keys,key_resp_3.rt,recog_resp.keys,recog_resp.rt,conf_resp.keys,conf_resp.rt,resp_assoc.keys,resp_assoc.rt,assoc_loop.thisRepN,assoc_loop.thisTrialN,assoc_loop.thisN,assoc_loop.thisIndex,assoc_loop.ran,recog_loop.thisRepN,recog_loop.thisTrialN,recog_loop.thisN,recog_loop.thisIndex,recog_loop.ran,images,corr_ans,type,order,key_resp_break.keys,key_resp_break.rt,list_loop.thisRepN,list_loop.thisTrialN,list_loop.thisN,list_loop.thisIndex,list_loop.ran,recog_list
0,0,0,0,1,Welcome to the last phase of this experiment!,.,Please press the space bar to continue,16,2021-05-08_14h36.42.201,premceCat2_ses-02_part-02_label-phase2,2020.2.10,MacIntel,60,,,,,,,,,,,,,,,,,,,,,,,,,,,,,,,,
0,1,1,1,1,.,"In this phase, you will see some objects. 

For each object, you should indicate whether you have seen it before during the experiment.

Press LEFT ARROW for YES
Press RIGHT ARROW for NO

",Please press the space bar to continue ,16,2021-05-08_14h36.42.201,premceCat2_ses-02_part-02_label-phase2,2020.2.10,MacIntel,60,,,,,,,,,,,,,,,,,,,,,,,,,,,,,,,,
0,2,2,2,1,.,"After that, you will be asked how confident you are of your choice.

Please rate the confidence in your choice with the numbers from 1 to 4 of your keyboard. 

The numbers correspond to:

1 = Very unsure
2 = Unsure
3 = Sure
4 = Very Sure",Please press the space bar to continue,16,2021-05-08_14h36.42.201,premceCat2_ses-02_part-02_label-phase2,2020.2.10,MacIntel,60,,,,,,,,,,,,,,,,,,,,,,,,,,,,,,,,
,,,,,,,,16,2021-05-08_14h36.42.201,premceCat2_ses-02_part-02_label-phase2,2020.2.10,MacIntel,60,space,10.658,space,10.961,left,3.55,3,2.33,right,2.67,0,0,0,0,1,,,,,,,,,,,,,,,,,
,,,,,,,,16,2021-05-08_14h36.42.201,premceCat2_ses-02_part-02_label-phase2,2020.2.10,MacIntel,60,,,,,,,,,,,,,,,,0,0,0,47,1,stimuli/objects/bucket02.jpg,left,old,48,,,,,,,,
,,,,,,,,16,2021-05-08_14h36.42.201,premceCat2_ses-02_part-02_label-phase2,2020.2.10,MacIntel,60,,,,,left,4.225,2,2.718,right,3.517,0,0,0,0,1,,,,,,,,,,,,,,,,,
,,,,,,,,16,2021-05-08_14h36.42.201,premceCat2_ses-02_part-02_label-phase2,2020.2.10,MacIntel,60,,,,,,,,,,,,,,,,0,1,1,100,1,stimuli/objects/remotecontrol04.jpg,right,new,101,,,,,,,,
,,,,,,,,16,2021-05-08_14h36.42.201,premceCat2_ses-02_part-02_label-phase2,2020.2.10,MacIntel,60,,,,,right,4.014,3,1.984,,,,,,,,0,2,2,51,1,stimuli/objects/webcam.jpg,right,new,52,,,,,,,,
,,,,,,,,16,2021-05-08_14h36.42.201,premceCat2_ses-02_part-02_label-phase2,2020.2.10,MacIntel,60,,,,,left,2.121,2,1.217,right,1.962,0,0,0,0,1,,,,,,,,,,,,,,,,,
,,,,,,,,16,2021-05-08_14h36.42.201,premceCat2_ses-02_part-02_label-phase2,2020.2.10,MacIntel,60,,,,,,,,,,,,,,,,0,3,3,134,1,stimuli/objects/screwdriver04b.jpg,right,new,135,,,,,,,,
,,,,,,,,16,2021-05-08_14h36.42.201,premceCat2_ses-02_part-02_label-phase2,2020.2.10,MacIntel,60,,,,,right,1.619,3,1.858,,,,,,,,0,4,4,110,1,stimuli/objects/lock03a.jpg,right,new,111,,,,,,,,
,,,,,,,,16,2021-05-08_14h36.42.201,premceCat2_ses-02_part-02_label-phase2,2020.2.10,MacIntel,60,,,,,right,3.144,2,3.496,,,,,,,,0,5,5,59,1,stimuli/objects/studiolight.jpg,right,new,60,,,,,,,,
,,,,,,,,16,2021-05-08_14h36.42.201,premceCat2_ses-02_part-02_label-phase2,2020.2.10,MacIntel,60,,,,,right,1.711,2,1.106,,,,,,,,0,6,6,60,1,stimuli/objects/glass02a.jpg,right,new,61,,,,,,,,
,,,,,,,,16,2021-05-08_14h36.42.201,premceCat2_ses-02_part-02_label-phase2,2020.2.10,MacIntel,60,,,,,right,4.727,2,1.149,,,,,,,,0,7,7,46,1,stimuli/objects/walkman.jpg,right,new,47,,,,,,,,
,,,,,,,,16,2021-05-08_14h36.42.201,premceCat2_ses-02_part-02_label-phase2,2020.2.10,MacIntel,60,,,,,left,1.145,4,1.21,right,0.667,0,0,0,0,1,,,,,,,,,,,,,,,,,
,,,,,,,,16,2021-05-08_14h36.42.201,premceCat2_ses-02_part-02_label-phase2,2020.2.10,MacIntel,60,,,,,,,,,,,,,,,,0,8,8,58,1,stimuli/objects/bungeecord02.jpg,left,old,59,,,,,,,,
,,,,,,,,16,2021-05-08_14h36.42.201,premceCat2_ses-02_part-02_label-phase2,2020.2.10,MacIntel,60,,,,,left,1.28,3,1.368,right,0.572,0,0,0,0,1,,,,,,,,,,,,,,,,,
,,,,,,,,16,2021-05-08_14h36.42.201,premceCat2_ses-02_part-02_label-phase2,2020.2.10,MacIntel,60,,,,,,,,,,,,,,,,0,9,9,91,1,stimuli/objects/puttyknife.jpg,left,old,92,,,,,,,,
,,,,,,,,16,2021-05-08_14h36.42.201,premceCat2_ses-02_part-02_label-phase2,2020.2.10,MacIntel,60,,,,,left,1.302,3,1.694,right,1.926,0,0,0,0,1,,,,,,,,,,,,,,,,,
,,,,,,,,16,2021-05-08_14h36.42.201,premceCat2_ses-02_part-02_label-phase2,2020.2.10,MacIntel,60,,,,,,,,,,,,,,,,0,10,10,40,1,stimuli/objects/staplegun.jpg,left,old,41,,,,,,,,
,,,,,,,,16,2021-05-08_14h36.42.201,premceCat2_ses-02_part-02_label-phase2,2020.2.10,MacIntel,60,,,,,left,5.221,1,1.033,right,0.541,0,0,0,0,1,,,,,,,,,,,,,,,,,
,,,,,,,,16,2021-05-08_14h36.42.201,premceCat2_ses-02_part-02_label-phase2,2020.2.10,MacIntel,60,,,,,,,,,,,,,,,,0,11,11,32,1,stimuli/objects/mitresaw.jpg,right,new,33,,,,,,,,
,,,,,,,,16,2021-05-08_14h36.42.201,premceCat2_ses-02_part-02_label-phase2,2020.2.10,MacIntel,60,,,,,right,1.446,3,2.131,,,,,,,,0,12,12,141,1,stimuli/objects/generator.jpg,right,new,142,,,,,,,,
,,,,,,,,16,2021-05-08_14h36.42.201,premceCat2_ses-02_part-02_label-phase2,2020.2.10,MacIntel,60,,,,,left,1.178,3,1.34,left,0.63,0,0,0,0,1,,,,,,,,,,,,,,,,,
,,,,,,,,16,2021-05-08_14h36.42.201,premceCat2_ses-02_part-02_label-phase2,2020.2.10,MacIntel,60,,,,,,,,,,,,,,,,0,13,13,15,1,stimuli/objects/spicerack.jpg,left,old,16,,,,,,,,
,,,,,,,,16,2021-05-08_14h36.42.201,premceCat2_ses-02_part-02_label-phase2,2020.2.10,MacIntel,60,,,,,left,3.179,2,1.415,left,0.509,0,0,0,0,1,,,,,,,,,,,,,,,,,
,,,,,,,,16,2021-05-08_14h36.42.201,premceCat2_ses-02_part-02_label-phase2,2020.2.10,MacIntel,60,,,,,,,,,,,,,,,,0,14,14,19,1,stimuli/objects/peppermill02b.jpg,right,new,20,,,,,,,,
,,,,,,,,16,2021-05-08_14h36.42.201,premceCat2_ses-02_part-02_label-phase2,2020.2.10,MacIntel,60,,,,,right,2.487,2,0.953,,,,,,,,0,15,15,82,1,stimuli/objects/snowbrush.jpg,right,new,83,,,,,,,,
,,,,,,,,16,2021-05-08_14h36.42.201,premceCat2_ses-02_part-02_label-phase2,2020.2.10,MacIntel,60,,,,,left,1.286,3,2.837,right,0.532,0,0,0,0,1,,,,,,,,,,,,,,,,,
,,,,,,,,16,2021-05-08_14h36.42.201,premceCat2_ses-02_part-02_label-phase2,2020.2.10,MacIntel,60,,,,,,,,,,,,,,,,0,16,16,36,1,stimuli/objects/outletadapter.jpg,left,old,37,,,,,,,,
,,,,,,,,16,2021-05-08_14h36.42.201,premceCat2_ses-02_part-02_label-phase2,2020.2.10,MacIntel,60,,,,,left,1.633,3,0.628,right,1.137,0,0,0,0,1,,,,,,,,,,,,,,,,,
,,,,,,,,16,2021-05-08_14h36.42.201,premceCat2_ses-02_part-02_label-phase2,2020.2.10,MacIntel,60,,,,,,,,,,,,,,,,0,17,17,0,1,stimuli/objects/phonejack.jpg,left,old,1,,,,,,,,
,,,,,,,,16,2021-05-08_14h36.42.201,premceCat2_ses-02_part-02_label-phase2,2020.2.10,MacIntel,60,,,,,right,1.718,2,0.768,,,,,,,,0,18,18,63,1,stimuli/objects/butterdish.jpg,right,new,64,,,,,,,,
,,,,,,,,16,2021-05-08_14h36.42.201,premceCat2_ses-02_part-02_label-phase2,2020.2.10,MacIntel,60,,,,,left,2.101,4,1.706,right,0.453,0,0,0,0,1,,,,,,,,,,,,,,,,,
,,,,,,,,16,2021-05-08_14h36.42.201,premceCat2_ses-02_part-02_label-phase2,2020.2.10,MacIntel,60,,,,,,,,,,,,,,,,0,19,19,115,1,stimuli/objects/flooringstapler.jpg,left,old,116,,,,,,,,
,,,,,,,,16,2021-05-08_14h36.42.201,premceCat2_ses-02_part-02_label-phase2,2020.2.10,MacIntel,60,,,,,left,2.788,3,1.486,left,0.755,0,0,0,0,1,,,,,,,,,,,,,,,,,
,,,,,,,,16,2021-05-08_14h36.42.201,premceCat2_ses-02_part-02_label-phase2,2020.2.10,MacIntel,60,,,,,,,,,,,,,,,,0,20,20,77,1,stimuli/objects/lightbulb01.jpg,left,old,78,,,,,,,,
,,,,,,,,16,2021-05-08_14h36.42.201,premceCat2_ses-02_part-02_label-phase2,2020.2.10,MacIntel,60,,,,,left,1.364,3,1.275,right,0.893,0,0,0,0,1,,,,,,,,,,,,,,,,,
,,,,,,,,16,2021-05-08_14h36.42.201,premceCat2_ses-02_part-02_label-phase2,2020.2.10,MacIntel,60,,,,,,,,,,,,,,,,0,21,21,97,1,stimuli/objects/djmixer02.jpg,left,old,98,,,,,,,,
,,,,,,,,16,2021-05-08_14h36.42.201,premceCat2_ses-02_part-02_label-phase2,2020.2.10,MacIntel,60,,,,,left,2.598,4,1.183,right,0.435,0,0,0,0,1,,,,,,,,,,,,,,,,,
,,,,,,,,16,2021-05-08_14h36.42.201,premceCat2_ses-02_part-02_label-phase2,2020.2.10,MacIntel,60,,,,,,,,,,,,,,,,0,22,22,31,1,stimuli/objects/metalbrush.jpg,left,old,32,,,,,,,,
,,,,,,,,16,2021-05-08_14h36.42.201,premceCat2_ses-02_part-02_label-phase2,2020.2.10,MacIntel,60,,,,,left,1.594,3,1.604,left,0.395,0,0,0,0,1,,,,,,,,,,,,,,,,,
,,,,,,,,16,2021-05-08_14h36.42.201,premceCat2_ses-02_part-02_label-phase2,2020.2.10,MacIntel,60,,,,,,,,,,,,,,,,0,23,23,28,1,stimuli/objects/backpack01a.jpg,left,old,29,,,,,,,,
,,,,,,,,16,2021-05-08_14h36.42.201,premceCat2_ses-02_part-02_label-phase2,2020.2.10,MacIntel,60,,,,,right,1.698,2,1.336,,,,,,,,0,24,24,136,1,stimuli/objects/battery02b.jpg,right,new,137,,,,,,,,
,,,,,,,,16,2021-05-08_14h36.42.201,premceCat2_ses-02_part-02_label-phase2,2020.2.10,MacIntel,60,,,,,left,1.018,3,5.411,left,0.49,0,0,0,0,1,,,,,,,,,,,,,,,,,
,,,,,,,,16,2021-05-08_14h36.42.201,premceCat2_ses-02_part-02_label-phase2,2020.2.10,MacIntel,60,,,,,,,,,,,,,,,,0,25,25,49,1,stimuli/objects/badmintonracket.jpg,left,old,50,,,,,,,,
,,,,,,,,16,2021-05-08_14h36.42.201,premceCat2_ses-02_part-02_label-phase2,2020.2.10,MacIntel,60,,,,,right,2.338,2,1.28,,,,,,,,0,26,26,108,1,stimuli/objects/metalscissors.jpg,right,new,109,,,,,,,,
,,,,,,,,16,2021-05-08_14h36.42.201,premceCat2_ses-02_part-02_label-phase2,2020.2.10,MacIntel,60,,,,,left,1.391,4,1.41,right,1.317,0,0,0,0,1,,,,,,,,,,,,,,,,,
,,,,,,,,16,2021-05-08_14h36.42.201,premceCat2_ses-02_part-02_label-phase2,2020.2.10,MacIntel,60,,,,,,,,,,,,,,,,0,27,27,61,1,stimuli/objects/painttray.jpg,left,old,62,,,,,,,,
,,,,,,,,16,2021-05-08_14h36.42.201,premceCat2_ses-02_part-02_label-phase2,2020.2.10,MacIntel,60,,,,,right,4.8,2,1.096,,,,,,,,0,28,28,43,1,stimuli/objects/punchingball.jpg,right,new,44,,,,,,,,
,,,,,,,,16,2021-05-08_14h36.42.201,premceCat2_ses-02_part-02_label-phase2,2020.2.10,MacIntel,60,,,,,left,1.954,3,1.077,left,0.477,0,0,0,0,1,,,,,,,,,,,,,,,,,
,,,,,,,,16,2021-05-08_14h36.42.201,premceCat2_ses-02_part-02_label-phase2,2020.2.10,MacIntel,60,,,,,,,,,,,,,,,,0,29,29,6,1,stimuli/objects/contactlens.jpg,left,old,7,,,,,,,,
,,,,,,,,16,2021-05-08_14h36.42.201,premceCat2_ses-02_part-02_label-phase2,2020.2.10,MacIntel,60,,,,,left,0.901,3,1.183,left,0.605,0,0,0,0,1,,,,,,,,,,,,,,,,,
,,,,,,,,16,2021-05-08_14h36.42.201,premceCat2_ses-02_part-02_label-phase2,2020.2.10,MacIntel,60,,,,,,,,,,,,,,,,0,30,30,98,1,stimuli/objects/toyhockeystick01.jpg,left,old,99,,,,,,,,
,,,,,,,,16,2021-05-08_14h36.42.201,premceCat2_ses-02_part-02_label-phase2,2020.2.10,MacIntel,60,,,,,right,1.198,3,1.668,,,,,,,,0,31,31,112,1,stimuli/objects/gymnasticring.jpg,right,new,113,,,,,,,,
,,,,,,,,16,2021-05-08_14h36.42.201,premceCat2_ses-02_part-02_label-phase2,2020.2.10,MacIntel,60,,,,,left,1.754,2,0.443,left,0.553,0,0,0,0,1,,,,,,,,,,,,,,,,,
,,,,,,,,16,2021-05-08_14h36.42.201,premceCat2_ses-02_part-02_label-phase2,2020.2.10,MacIntel,60,,,,,,,,,,,,,,,,0,32,32,125,1,stimuli/objects/shoulderpad.jpg,right,new,126,,,,,,,,
,,,,,,,,16,2021-05-08_14h36.42.201,premceCat2_ses-02_part-02_label-phase2,2020.2.10,MacIntel,60,,,,,left,1.422,2,0.713,right,0.522,0,0,0,0,1,,,,,,,,,,,,,,,,,
,,,,,,,,16,2021-05-08_14h36.42.201,premceCat2_ses-02_part-02_label-phase2,2020.2.10,MacIntel,60,,,,,,,,,,,,,,,,0,33,33,72,1,stimuli/objects/cclamp.jpg,right,new,73,,,,,,,,
,,,,,,,,16,2021-05-08_14h36.42.201,premceCat2_ses-02_part-02_label-phase2,2020.2.10,MacIntel,60,,,,,left,1.042,3,0.82,left,0.362,0,0,0,0,1,,,,,,,,,,,,,,,,,
,,,,,,,,16,2021-05-08_14h36.42.201,premceCat2_ses-02_part-02_label-phase2,2020.2.10,MacIntel,60,,,,,,,,,,,,,,,,0,34,34,129,1,stimuli/objects/corkscrew03a.jpg,left,old,130,,,,,,,,
,,,,,,,,16,2021-05-08_14h36.42.201,premceCat2_ses-02_part-02_label-phase2,2020.2.10,MacIntel,60,,,,,right,1.326,2,1.292,,,,,,,,0,35,35,73,1,stimuli/objects/clock01a.jpg,right,new,74,,,,,,,,
,,,,,,,,16,2021-05-08_14h36.42.201,premceCat2_ses-02_part-02_label-phase2,2020.2.10,MacIntel,60,,,,,left,0.922,4,1.144,left,0.526,0,0,0,0,1,,,,,,,,,,,,,,,,,
,,,,,,,,16,2021-05-08_14h36.42.201,premceCat2_ses-02_part-02_label-phase2,2020.2.10,MacIntel,60,,,,,,,,,,,,,,,,0,36,36,52,1,stimuli/objects/bottlecap.jpg,left,old,53,,,,,,,,
,,,,,,,,16,2021-05-08_14h36.42.201,premceCat2_ses-02_part-02_label-phase2,2020.2.10,MacIntel,60,,,,,left,1.091,3,1.131,right,0.499,0,0,0,0,1,,,,,,,,,,,,,,,,,
,,,,,,,,16,2021-05-08_14h36.42.201,premceCat2_ses-02_part-02_label-phase2,2020.2.10,MacIntel,60,,,,,,,,,,,,,,,,0,37,37,1,1,stimuli/objects/headphones02b.jpg,left,old,2,,,,,,,,
,,,,,,,,16,2021-05-08_14h36.42.201,premceCat2_ses-02_part-02_label-phase2,2020.2.10,MacIntel,60,,,,,left,2.055,3,2.458,right,2.165,0,0,0,0,1,,,,,,,,,,,,,,,,,
,,,,,,,,16,2021-05-08_14h36.42.201,premceCat2_ses-02_part-02_label-phase2,2020.2.10,MacIntel,60,,,,,,,,,,,,,,,,0,38,38,33,1,stimuli/objects/microwave.jpg,right,new,34,,,,,,,,
,,,,,,,,16,2021-05-08_14h36.42.201,premceCat2_ses-02_part-02_label-phase2,2020.2.10,MacIntel,60,,,,,right,2.425,2,0.432,,,,,,,,0,39,39,41,1,stimuli/objects/pylon01.jpg,right,new,42,,,,,,,,
,,,,,,,,16,2021-05-08_14h36.42.201,premceCat2_ses-02_part-02_label-phase2,2020.2.10,MacIntel,60,,,,,left,1.127,4,1.333,left,0.396,0,0,0,0,1,,,,,,,,,,,,,,,,,
,,,,,,,,16,2021-05-08_14h36.42.201,premceCat2_ses-02_part-02_label-phase2,2020.2.10,MacIntel,60,,,,,,,,,,,,,,,,0,40,40,67,1,stimuli/objects/lifesaver.jpg,left,old,68,,,,,,,,
,,,,,,,,16,2021-05-08_14h36.42.201,premceCat2_ses-02_part-02_label-phase2,2020.2.10,MacIntel,60,,,,,left,1.744,4,0.51,left,0.345,0,0,0,0,1,,,,,,,,,,,,,,,,,
,,,,,,,,16,2021-05-08_14h36.42.201,premceCat2_ses-02_part-02_label-phase2,2020.2.10,MacIntel,60,,,,,,,,,,,,,,,,0,41,41,56,1,stimuli/objects/jar02.jpg,left,old,57,,,,,,,,
,,,,,,,,16,2021-05-08_14h36.42.201,premceCat2_ses-02_part-02_label-phase2,2020.2.10,MacIntel,60,,,,,left,1.327,4,1.438,right,0.322,0,0,0,0,1,,,,,,,,,,,,,,,,,
,,,,,,,,16,2021-05-08_14h36.42.201,premceCat2_ses-02_part-02_label-phase2,2020.2.10,MacIntel,60,,,,,,,,,,,,,,,,0,42,42,37,1,stimuli/objects/aircompressor.jpg,left,old,38,,,,,,,,
,,,,,,,,16,2021-05-08_14h36.42.201,premceCat2_ses-02_part-02_label-phase2,2020.2.10,MacIntel,60,,,,,left,1.412,4,0.988,right,0.304,0,0,0,0,1,,,,,,,,,,,,,,,,,
,,,,,,,,16,2021-05-08_14h36.42.201,premceCat2_ses-02_part-02_label-phase2,2020.2.10,MacIntel,60,,,,,,,,,,,,,,,,0,43,43,130,1,stimuli/objects/hockeypuck.jpg,left,old,131,,,,,,,,
,,,,,,,,16,2021-05-08_14h36.42.201,premceCat2_ses-02_part-02_label-phase2,2020.2.10,MacIntel,60,,,,,right,1.712,2,0.984,,,,,,,,0,44,44,86,1,stimuli/objects/toasteroven.jpg,right,new,87,,,,,,,,
,,,,,,,,16,2021-05-08_14h36.42.201,premceCat2_ses-02_part-02_label-phase2,2020.2.10,MacIntel,60,,,,,right,1.29,2,0.356,,,,,,,,0,45,45,139,1,stimuli/objects/frisbee.jpg,right,new,140,,,,,,,,
,,,,,,,,16,2021-05-08_14h36.42.201,premceCat2_ses-02_part-02_label-phase2,2020.2.10,MacIntel,60,,,,,left,0.993,4,1.186,right,0.504,0,0,0,0,1,,,,,,,,,,,,,,,,,
,,,,,,,,16,2021-05-08_14h36.42.201,premceCat2_ses-02_part-02_label-phase2,2020.2.10,MacIntel,60,,,,,,,,,,,,,,,,0,46,46,135,1,stimuli/objects/drillbit03a.jpg,left,old,136,,,,,,,,
,,,,,,,,16,2021-05-08_14h36.42.201,premceCat2_ses-02_part-02_label-phase2,2020.2.10,MacIntel,60,,,,,right,2.839,2,0.726,,,,,,,,0,47,47,17,1,stimuli/objects/exercisebench.jpg,right,new,18,,,,,,,,
,,,,,,,,16,2021-05-08_14h36.42.201,premceCat2_ses-02_part-02_label-phase2,2020.2.10,MacIntel,60,,,,,left,0.954,4,0.656,left,0.376,0,0,0,0,1,,,,,,,,,,,,,,,,,
,,,,,,,,16,2021-05-08_14h36.42.201,premceCat2_ses-02_part-02_label-phase2,2020.2.10,MacIntel,60,,,,,,,,,,,,,,,,0,48,48,107,1,stimuli/objects/martiniglass01b.jpg,left,old,108,,,,,,,,
,,,,,,,,16,2021-05-08_14h36.42.201,premceCat2_ses-02_part-02_label-phase2,2020.2.10,MacIntel,60,,,,,left,2.015,2,0.515,left,0.327,0,0,0,0,1,,,,,,,,,,,,,,,,,
,,,,,,,,16,2021-05-08_14h36.42.201,premceCat2_ses-02_part-02_label-phase2,2020.2.10,MacIntel,60,,,,,,,,,,,,,,,,0,49,49,126,1,stimuli/objects/tableknife02.jpg,right,new,127,,,,,,,,
,,,,,,,,16,2021-05-08_14h36.42.201,premceCat2_ses-02_part-02_label-phase2,2020.2.10,MacIntel,60,,,,,left,2.427,2,0.58,left,0.445,0,0,0,0,1,,,,,,,,,,,,,,,,,
,,,,,,,,16,2021-05-08_14h36.42.201,premceCat2_ses-02_part-02_label-phase2,2020.2.10,MacIntel,60,,,,,,,,,,,,,,,,0,50,50,23,1,stimuli/objects/football.jpg,right,new,24,,,,,,,,
,,,,,,,,16,2021-05-08_14h36.42.201,premceCat2_ses-02_part-02_label-phase2,2020.2.10,MacIntel,60,,,,,right,1.203,2,1.623,,,,,,,,0,51,51,76,1,stimuli/objects/megaphone.jpg,right,new,77,,,,,,,,
,,,,,,,,16,2021-05-08_14h36.42.201,premceCat2_ses-02_part-02_label-phase2,2020.2.10,MacIntel,60,,,,,left,1.128,3,0.54,right,0.51,0,0,0,0,1,,,,,,,,,,,,,,,,,
,,,,,,,,16,2021-05-08_14h36.42.201,premceCat2_ses-02_part-02_label-phase2,2020.2.10,MacIntel,60,,,,,,,,,,,,,,,,0,52,52,5,1,stimuli/objects/electricoutlet.jpg,left,old,6,,,,,,,,
,,,,,,,,16,2021-05-08_14h36.42.201,premceCat2_ses-02_part-02_label-phase2,2020.2.10,MacIntel,60,,,,,left,1.068,4,1.413,left,0.383,0,0,0,0,1,,,,,,,,,,,,,,,,,
,,,,,,,,16,2021-05-08_14h36.42.201,premceCat2_ses-02_part-02_label-phase2,2020.2.10,MacIntel,60,,,,,,,,,,,,,,,,0,53,53,3,1,stimuli/objects/towel01.jpg,left,old,4,,,,,,,,
,,,,,,,,16,2021-05-08_14h36.42.201,premceCat2_ses-02_part-02_label-phase2,2020.2.10,MacIntel,60,,,,,left,0.952,4,0.831,left,0.379,0,0,0,0,1,,,,,,,,,,,,,,,,,
,,,,,,,,16,2021-05-08_14h36.42.201,premceCat2_ses-02_part-02_label-phase2,2020.2.10,MacIntel,60,,,,,,,,,,,,,,,,0,54,54,124,1,stimuli/objects/baseball01a.jpg,left,old,125,,,,,,,,
,,,,,,,,16,2021-05-08_14h36.42.201,premceCat2_ses-02_part-02_label-phase2,2020.2.10,MacIntel,60,,,,,left,0.974,2,0.913,left,0.554,0,0,0,0,1,,,,,,,,,,,,,,,,,
,,,,,,,,16,2021-05-08_14h36.42.201,premceCat2_ses-02_part-02_label-phase2,2020.2.10,MacIntel,60,,,,,,,,,,,,,,,,0,55,55,120,1,stimuli/objects/muffintray01.jpg,left,old,121,,,,,,,,
,,,,,,,,16,2021-05-08_14h36.42.201,premceCat2_ses-02_part-02_label-phase2,2020.2.10,MacIntel,60,,,,,right,1.145,3,1.818,,,,,,,,0,56,56,12,1,stimuli/objects/garlicpress02a.jpg,right,new,13,,,,,,,,
,,,,,,,,16,2021-05-08_14h36.42.201,premceCat2_ses-02_part-02_label-phase2,2020.2.10,MacIntel,60,,,,,left,1.668,3,1.302,right,0.343,0,0,0,0,1,,,,,,,,,,,,,,,,,
,,,,,,,,16,2021-05-08_14h36.42.201,premceCat2_ses-02_part-02_label-phase2,2020.2.10,MacIntel,60,,,,,,,,,,,,,,,,0,57,57,50,1,stimuli/objects/chisel02b.jpg,right,new,51,,,,,,,,
,,,,,,,,16,2021-05-08_14h36.42.201,premceCat2_ses-02_part-02_label-phase2,2020.2.10,MacIntel,60,,,,,left,1.615,3,1.503,right,0.348,0,0,0,0,1,,,,,,,,,,,,,,,,,
,,,,,,,,16,2021-05-08_14h36.42.201,premceCat2_ses-02_part-02_label-phase2,2020.2.10,MacIntel,60,,,,,,,,,,,,,,,,0,58,58,88,1,stimuli/objects/cowbell.jpg,left,old,89,,,,,,,,
,,,,,,,,16,2021-05-08_14h36.42.201,premceCat2_ses-02_part-02_label-phase2,2020.2.10,MacIntel,60,,,,,left,0.907,3,0.943,left,0.38,0,0,0,0,1,,,,,,,,,,,,,,,,,
,,,,,,,,16,2021-05-08_14h36.42.201,premceCat2_ses-02_part-02_label-phase2,2020.2.10,MacIntel,60,,,,,,,,,,,,,,,,0,59,59,84,1,stimuli/objects/swimgoggles.jpg,left,old,85,,,,,,,,
,,,,,,,,16,2021-05-08_14h36.42.201,premceCat2_ses-02_part-02_label-phase2,2020.2.10,MacIntel,60,,,,,right,1.548,3,1.508,,,,,,,,0,60,60,121,1,stimuli/objects/ceilingspeaker.jpg,right,new,122,,,,,,,,
,,,,,,,,16,2021-05-08_14h36.42.201,premceCat2_ses-02_part-02_label-phase2,2020.2.10,MacIntel,60,,,,,left,1.016,4,0.644,right,0.391,0,0,0,0,1,,,,,,,,,,,,,,,,,
,,,,,,,,16,2021-05-08_14h36.42.201,premceCat2_ses-02_part-02_label-phase2,2020.2.10,MacIntel,60,,,,,,,,,,,,,,,,0,61,61,65,1,stimuli/objects/tape02a.jpg,left,old,66,,,,,,,,
,,,,,,,,16,2021-05-08_14h36.42.201,premceCat2_ses-02_part-02_label-phase2,2020.2.10,MacIntel,60,,,,,right,1.833,3,1.375,,,,,,,,0,62,62,4,1,stimuli/objects/microphone01.jpg,right,new,5,,,,,,,,
,,,,,,,,16,2021-05-08_14h36.42.201,premceCat2_ses-02_part-02_label-phase2,2020.2.10,MacIntel,60,,,,,right,1.449,3,1.361,,,,,,,,0,63,63,75,1,stimuli/objects/stepladder.jpg,right,new,76,,,,,,,,
,,,,,,,,16,2021-05-08_14h36.42.201,premceCat2_ses-02_part-02_label-phase2,2020.2.10,MacIntel,60,,,,,left,1.018,2,1.07,left,0.381,0,0,0,0,1,,,,,,,,,,,,,,,,,
,,,,,,,,16,2021-05-08_14h36.42.201,premceCat2_ses-02_part-02_label-phase2,2020.2.10,MacIntel,60,,,,,,,,,,,,,,,,0,64,64,53,1,stimuli/objects/binoculars01b.jpg,right,new,54,,,,,,,,
,,,,,,,,16,2021-05-08_14h36.42.201,premceCat2_ses-02_part-02_label-phase2,2020.2.10,MacIntel,60,,,,,left,1.871,2,0.793,right,0.299,0,0,0,0,1,,,,,,,,,,,,,,,,,
,,,,,,,,16,2021-05-08_14h36.42.201,premceCat2_ses-02_part-02_label-phase2,2020.2.10,MacIntel,60,,,,,,,,,,,,,,,,0,65,65,9,1,stimuli/objects/measuringtape01.jpg,right,new,10,,,,,,,,
,,,,,,,,16,2021-05-08_14h36.42.201,premceCat2_ses-02_part-02_label-phase2,2020.2.10,MacIntel,60,,,,,left,0.91,4,0.403,right,0.308,0,0,0,0,1,,,,,,,,,,,,,,,,,
,,,,,,,,16,2021-05-08_14h36.42.201,premceCat2_ses-02_part-02_label-phase2,2020.2.10,MacIntel,60,,,,,,,,,,,,,,,,0,66,66,16,1,stimuli/objects/wheelbarrow01.jpg,left,old,17,,,,,,,,
,,,,,,,,16,2021-05-08_14h36.42.201,premceCat2_ses-02_part-02_label-phase2,2020.2.10,MacIntel,60,,,,,left,0.931,3,1.121,left,0.399,0,0,0,0,1,,,,,,,,,,,,,,,,,
,,,,,,,,16,2021-05-08_14h36.42.201,premceCat2_ses-02_part-02_label-phase2,2020.2.10,MacIntel,60,,,,,,,,,,,,,,,,0,67,67,102,1,stimuli/objects/skihelmet01.jpg,left,old,103,,,,,,,,
,,,,,,,,16,2021-05-08_14h36.42.201,premceCat2_ses-02_part-02_label-phase2,2020.2.10,MacIntel,60,,,,,left,3.524,1,0.454,right,0.343,0,0,0,0,1,,,,,,,,,,,,,,,,,
,,,,,,,,16,2021-05-08_14h36.42.201,premceCat2_ses-02_part-02_label-phase2,2020.2.10,MacIntel,60,,,,,,,,,,,,,,,,0,68,68,66,1,stimuli/objects/nailgun.jpg,right,new,67,,,,,,,,
,,,,,,,,16,2021-05-08_14h36.42.201,premceCat2_ses-02_part-02_label-phase2,2020.2.10,MacIntel,60,,,,,left,0.875,3,0.409,right,0.27,0,0,0,0,1,,,,,,,,,,,,,,,,,
,,,,,,,,16,2021-05-08_14h36.42.201,premceCat2_ses-02_part-02_label-phase2,2020.2.10,MacIntel,60,,,,,,,,,,,,,,,,0,69,69,7,1,stimuli/objects/hammer01.jpg,left,old,8,,,,,,,,
,,,,,,,,16,2021-05-08_14h36.42.201,premceCat2_ses-02_part-02_label-phase2,2020.2.10,MacIntel,60,,,,,left,1.147,3,0.562,left,0.292,0,0,0,0,1,,,,,,,,,,,,,,,,,
,,,,,,,,16,2021-05-08_14h36.42.201,premceCat2_ses-02_part-02_label-phase2,2020.2.10,MacIntel,60,,,,,,,,,,,,,,,,0,70,70,27,1,stimuli/objects/catchermask.jpg,left,old,28,,,,,,,,
,,,,,,,,16,2021-05-08_14h36.42.201,premceCat2_ses-02_part-02_label-phase2,2020.2.10,MacIntel,60,,,,,left,0.888,3,0.385,left,0.433,0,0,0,0,1,,,,,,,,,,,,,,,,,
,,,,,,,,16,2021-05-08_14h36.42.201,premceCat2_ses-02_part-02_label-phase2,2020.2.10,MacIntel,60,,,,,,,,,,,,,,,,0,71,71,74,1,stimuli/objects/treadmill.jpg,left,old,75,,,,,,,,
,,,,,,,,16,2021-05-08_14h36.42.201,premceCat2_ses-02_part-02_label-phase2,2020.2.10,MacIntel,60,,,,,right,1.071,3,0.707,,,,,,,,0,72,72,109,1,stimuli/objects/winerack.jpg,right,new,110,,,,,,,,
,,,,,,,,16,2021-05-08_14h36.42.201,premceCat2_ses-02_part-02_label-phase2,2020.2.10,MacIntel,60,,,,,right,1.501,3,0.453,,,,,,,,0,73,73,42,1,stimuli/objects/snowshoe.jpg,right,new,43,,,,,,,,
,,,,,,,,16,2021-05-08_14h36.42.201,premceCat2_ses-02_part-02_label-phase2,2020.2.10,MacIntel,60,,,,,right,0.849,3,0.677,,,,,,,,0,74,74,80,1,stimuli/objects/snowman.jpg,right,new,81,,,,,,,,
,,,,,,,,16,2021-05-08_14h36.42.201,premceCat2_ses-02_part-02_label-phase2,2020.2.10,MacIntel,60,,,,,left,1.967,3,3.116,left,0.666,0,0,0,0,1,,,,,,,,,,,,,,,,,
,,,,,,,,16,2021-05-08_14h36.42.201,premceCat2_ses-02_part-02_label-phase2,2020.2.10,MacIntel,60,,,,,,,,,,,,,,,,0,75,75,13,1,stimuli/objects/bastingbrush.jpg,right,new,14,,,,,,,,
,,,,,,,,16,2021-05-08_14h36.42.201,premceCat2_ses-02_part-02_label-phase2,2020.2.10,MacIntel,60,,,,,left,1.447,3,0.901,left,0.537,0,0,0,0,1,,,,,,,,,,,,,,,,,
,,,,,,,,16,2021-05-08_14h36.42.201,premceCat2_ses-02_part-02_label-phase2,2020.2.10,MacIntel,60,,,,,,,,,,,,,,,,0,76,76,45,1,stimuli/objects/butterknife.jpg,left,old,46,,,,,,,,
,,,,,,,,16,2021-05-08_14h36.42.201,premceCat2_ses-02_part-02_label-phase2,2020.2.10,MacIntel,60,,,,,left,2.265,3,1.362,right,0.412,0,0,0,0,1,,,,,,,,,,,,,,,,,
,,,,,,,,16,2021-05-08_14h36.42.201,premceCat2_ses-02_part-02_label-phase2,2020.2.10,MacIntel,60,,,,,,,,,,,,,,,,0,77,77,11,1,stimuli/objects/videocamera01a.jpg,left,old,12,,,,,,,,
,,,,,,,,16,2021-05-08_14h36.42.201,premceCat2_ses-02_part-02_label-phase2,2020.2.10,MacIntel,60,,,,,right,1.663,2,1.348,,,,,,,,0,78,78,96,1,stimuli/objects/golfbag.jpg,right,new,97,,,,,,,,
,,,,,,,,16,2021-05-08_14h36.42.201,premceCat2_ses-02_part-02_label-phase2,2020.2.10,MacIntel,60,,,,,left,1.032,3,1.457,left,0.291,0,0,0,0,1,,,,,,,,,,,,,,,,,
,,,,,,,,16,2021-05-08_14h36.42.201,premceCat2_ses-02_part-02_label-phase2,2020.2.10,MacIntel,60,,,,,,,,,,,,,,,,0,79,79,142,1,stimuli/objects/waterbottle03.jpg,left,old,143,,,,,,,,
,,,,,,,,16,2021-05-08_14h36.42.201,premceCat2_ses-02_part-02_label-phase2,2020.2.10,MacIntel,60,,,,,left,2.739,3,0.578,right,0.26,0,0,0,0,1,,,,,,,,,,,,,,,,,
,,,,,,,,16,2021-05-08_14h36.42.201,premceCat2_ses-02_part-02_label-phase2,2020.2.10,MacIntel,60,,,,,,,,,,,,,,,,0,80,80,95,1,stimuli/objects/telephone01b.jpg,left,old,96,,,,,,,,
,,,,,,,,16,2021-05-08_14h36.42.201,premceCat2_ses-02_part-02_label-phase2,2020.2.10,MacIntel,60,,,,,left,1.717,4,0.402,right,0.455,0,0,0,0,1,,,,,,,,,,,,,,,,,
,,,,,,,,16,2021-05-08_14h36.42.201,premceCat2_ses-02_part-02_label-phase2,2020.2.10,MacIntel,60,,,,,,,,,,,,,,,,0,81,81,99,1,stimuli/objects/sewingmachine01a.jpg,left,old,100,,,,,,,,
,,,,,,,,16,2021-05-08_14h36.42.201,premceCat2_ses-02_part-02_label-phase2,2020.2.10,MacIntel,60,,,,,right,2.232,1,0.449,,,,,,,,0,82,82,116,1,stimuli/objects/radio01.jpg,right,new,117,,,,,,,,
,,,,,,,,16,2021-05-08_14h36.42.201,premceCat2_ses-02_part-02_label-phase2,2020.2.10,MacIntel,60,,,,,left,2.456,3,2.687,left,1.62,0,0,0,0,1,,,,,,,,,,,,,,,,,
,,,,,,,,16,2021-05-08_14h36.42.201,premceCat2_ses-02_part-02_label-phase2,2020.2.10,MacIntel,60,,,,,,,,,,,,,,,,0,83,83,101,1,stimuli/objects/fuse.jpg,left,old,102,,,,,,,,
,,,,,,,,16,2021-05-08_14h36.42.201,premceCat2_ses-02_part-02_label-phase2,2020.2.10,MacIntel,60,,,,,left,0.997,3,1.055,right,0.475,0,0,0,0,1,,,,,,,,,,,,,,,,,
,,,,,,,,16,2021-05-08_14h36.42.201,premceCat2_ses-02_part-02_label-phase2,2020.2.10,MacIntel,60,,,,,,,,,,,,,,,,0,84,84,64,1,stimuli/objects/snowshovel.jpg,left,old,65,,,,,,,,
,,,,,,,,16,2021-05-08_14h36.42.201,premceCat2_ses-02_part-02_label-phase2,2020.2.10,MacIntel,60,,,,,left,1.302,4,1.432,right,0.491,0,0,0,0,1,,,,,,,,,,,,,,,,,
,,,,,,,,16,2021-05-08_14h36.42.201,premceCat2_ses-02_part-02_label-phase2,2020.2.10,MacIntel,60,,,,,,,,,,,,,,,,0,85,85,69,1,stimuli/objects/atm.jpg,left,old,70,,,,,,,,
,,,,,,,,16,2021-05-08_14h36.42.201,premceCat2_ses-02_part-02_label-phase2,2020.2.10,MacIntel,60,,,,,right,1.57,3,2.074,,,,,,,,0,86,86,24,1,stimuli/objects/skateboard.jpg,right,new,25,,,,,,,,
,,,,,,,,16,2021-05-08_14h36.42.201,premceCat2_ses-02_part-02_label-phase2,2020.2.10,MacIntel,60,,,,,left,1.707,3,1.263,right,0.286,0,0,0,0,1,,,,,,,,,,,,,,,,,
,,,,,,,,16,2021-05-08_14h36.42.201,premceCat2_ses-02_part-02_label-phase2,2020.2.10,MacIntel,60,,,,,,,,,,,,,,,,0,87,87,92,1,stimuli/objects/carjack.jpg,right,new,93,,,,,,,,
,,,,,,,,16,2021-05-08_14h36.42.201,premceCat2_ses-02_part-02_label-phase2,2020.2.10,MacIntel,60,,,,,left,2.232,2,0.446,left,0.399,0,0,0,0,1,,,,,,,,,,,,,,,,,
,,,,,,,,16,2021-05-08_14h36.42.201,premceCat2_ses-02_part-02_label-phase2,2020.2.10,MacIntel,60,,,,,,,,,,,,,,,,0,88,88,8,1,stimuli/objects/basketballhoop01.jpg,right,new,9,,,,,,,,
,,,,,,,,16,2021-05-08_14h36.42.201,premceCat2_ses-02_part-02_label-phase2,2020.2.10,MacIntel,60,,,,,left,1.13,2,0.86,right,0.197,0,0,0,0,1,,,,,,,,,,,,,,,,,
,,,,,,,,16,2021-05-08_14h36.42.201,premceCat2_ses-02_part-02_label-phase2,2020.2.10,MacIntel,60,,,,,,,,,,,,,,,,0,89,89,21,1,stimuli/objects/paintbrush01.jpg,right,new,22,,,,,,,,
,,,,,,,,16,2021-05-08_14h36.42.201,premceCat2_ses-02_part-02_label-phase2,2020.2.10,MacIntel,60,,,,,right,0.936,3,1.156,,,,,,,,0,90,90,85,1,stimuli/objects/golfball.jpg,right,new,86,,,,,,,,
,,,,,,,,16,2021-05-08_14h36.42.201,premceCat2_ses-02_part-02_label-phase2,2020.2.10,MacIntel,60,,,,,right,0.999,3,0.58,,,,,,,,0,91,91,22,1,stimuli/objects/umbrella04.jpg,right,new,23,,,,,,,,
,,,,,,,,16,2021-05-08_14h36.42.201,premceCat2_ses-02_part-02_label-phase2,2020.2.10,MacIntel,60,,,,,right,1.697,3,0.565,,,,,,,,0,92,92,26,1,stimuli/objects/boogieboard.jpg,right,new,27,,,,,,,,
,,,,,,,,16,2021-05-08_14h36.42.201,premceCat2_ses-02_part-02_label-phase2,2020.2.10,MacIntel,60,,,,,right,2.499,3,0.648,,,,,,,,0,93,93,113,1,stimuli/objects/powercable.jpg,right,new,114,,,,,,,,
,,,,,,,,16,2021-05-08_14h36.42.201,premceCat2_ses-02_part-02_label-phase2,2020.2.10,MacIntel,60,,,,,left,0.8,3,0.822,right,0.342,0,0,0,0,1,,,,,,,,,,,,,,,,,
,,,,,,,,16,2021-05-08_14h36.42.201,premceCat2_ses-02_part-02_label-phase2,2020.2.10,MacIntel,60,,,,,,,,,,,,,,,,0,94,94,44,1,stimuli/objects/toyhardhat.jpg,left,old,45,,,,,,,,
,,,,,,,,16,2021-05-08_14h36.42.201,premceCat2_ses-02_part-02_label-phase2,2020.2.10,MacIntel,60,,,,,left,1.069,4,0.394,right,0.564,0,0,0,0,1,,,,,,,,,,,,,,,,,
,,,,,,,,16,2021-05-08_14h36.42.201,premceCat2_ses-02_part-02_label-phase2,2020.2.10,MacIntel,60,,,,,,,,,,,,,,,,0,95,95,10,1,stimuli/objects/vhstape.jpg,left,old,11,,,,,,,,
,,,,,,,,16,2021-05-08_14h36.42.201,premceCat2_ses-02_part-02_label-phase2,2020.2.10,MacIntel,60,,,,,right,1.624,2,0.779,,,,,,,,0,96,96,94,1,stimuli/objects/electricmixer.jpg,right,new,95,,,,,,,,
,,,,,,,,16,2021-05-08_14h36.42.201,premceCat2_ses-02_part-02_label-phase2,2020.2.10,MacIntel,60,,,,,left,1.313,3,0.752,left,0.309,0,0,0,0,1,,,,,,,,,,,,,,,,,
,,,,,,,,16,2021-05-08_14h36.42.201,premceCat2_ses-02_part-02_label-phase2,2020.2.10,MacIntel,60,,,,,,,,,,,,,,,,0,97,97,114,1,stimuli/objects/pitcher02b.jpg,left,old,115,,,,,,,,
,,,,,,,,16,2021-05-08_14h36.42.201,premceCat2_ses-02_part-02_label-phase2,2020.2.10,MacIntel,60,,,,,right,1.759,2,0.891,,,,,,,,0,98,98,71,1,stimuli/objects/faxmachine.jpg,right,new,72,,,,,,,,
,,,,,,,,16,2021-05-08_14h36.42.201,premceCat2_ses-02_part-02_label-phase2,2020.2.10,MacIntel,60,,,,,right,1.296,2,0.373,,,,,,,,0,99,99,133,1,stimuli/objects/icebucket.jpg,right,new,134,,,,,,,,
,,,,,,,,16,2021-05-08_14h36.42.201,premceCat2_ses-02_part-02_label-phase2,2020.2.10,MacIntel,60,,,,,right,1.313,2,0.466,,,,,,,,0,100,100,111,1,stimuli/objects/speaker04.jpg,right,new,112,,,,,,,,
,,,,,,,,16,2021-05-08_14h36.42.201,premceCat2_ses-02_part-02_label-phase2,2020.2.10,MacIntel,60,,,,,left,1.22,4,0.609,right,0.347,0,0,0,0,1,,,,,,,,,,,,,,,,,
,,,,,,,,16,2021-05-08_14h36.42.201,premceCat2_ses-02_part-02_label-phase2,2020.2.10,MacIntel,60,,,,,,,,,,,,,,,,0,101,101,79,1,stimuli/objects/gps.jpg,left,old,80,,,,,,,,
,,,,,,,,16,2021-05-08_14h36.42.201,premceCat2_ses-02_part-02_label-phase2,2020.2.10,MacIntel,60,,,,,left,1.125,4,1.157,right,0.366,0,0,0,0,1,,,,,,,,,,,,,,,,,
,,,,,,,,16,2021-05-08_14h36.42.201,premceCat2_ses-02_part-02_label-phase2,2020.2.10,MacIntel,60,,,,,,,,,,,,,,,,0,102,102,35,1,stimuli/objects/chandelier.jpg,left,old,36,,,,,,,,
,,,,,,,,16,2021-05-08_14h36.42.201,premceCat2_ses-02_part-02_label-phase2,2020.2.10,MacIntel,60,,,,,right,2.576,3,1.609,,,,,,,,0,103,103,90,1,stimuli/objects/carlighter02.jpg,right,new,91,,,,,,,,
,,,,,,,,16,2021-05-08_14h36.42.201,premceCat2_ses-02_part-02_label-phase2,2020.2.10,MacIntel,60,,,,,right,1.359,2,0.527,,,,,,,,0,104,104,106,1,stimuli/objects/minifridge.jpg,right,new,107,,,,,,,,
,,,,,,,,16,2021-05-08_14h36.42.201,premceCat2_ses-02_part-02_label-phase2,2020.2.10,MacIntel,60,,,,,right,1.438,2,0.483,,,,,,,,0,105,105,83,1,stimuli/objects/kitchenscale01a.jpg,right,new,84,,,,,,,,
,,,,,,,,16,2021-05-08_14h36.42.201,premceCat2_ses-02_part-02_label-phase2,2020.2.10,MacIntel,60,,,,,right,0.957,2,0.389,,,,,,,,0,106,106,128,1,stimuli/objects/tripod01.jpg,right,new,129,,,,,,,,
,,,,,,,,16,2021-05-08_14h36.42.201,premceCat2_ses-02_part-02_label-phase2,2020.2.10,MacIntel,60,,,,,left,0.864,4,1.421,left,0.382,0,0,0,0,1,,,,,,,,,,,,,,,,,
,,,,,,,,16,2021-05-08_14h36.42.201,premceCat2_ses-02_part-02_label-phase2,2020.2.10,MacIntel,60,,,,,,,,,,,,,,,,0,107,107,137,1,stimuli/objects/podium.jpg,left,old,138,,,,,,,,
,,,,,,,,16,2021-05-08_14h36.42.201,premceCat2_ses-02_part-02_label-phase2,2020.2.10,MacIntel,60,,,,,right,1.166,2,0.575,,,,,,,,0,108,108,119,1,stimuli/objects/tongs01b.jpg,right,new,120,,,,,,,,
,,,,,,,,16,2021-05-08_14h36.42.201,premceCat2_ses-02_part-02_label-phase2,2020.2.10,MacIntel,60,,,,,right,1.985,2,0.493,,,,,,,,0,109,109,30,1,stimuli/objects/printer02.jpg,right,new,31,,,,,,,,
,,,,,,,,16,2021-05-08_14h36.42.201,premceCat2_ses-02_part-02_label-phase2,2020.2.10,MacIntel,60,,,,,right,1.169,2,0.391,,,,,,,,0,110,110,18,1,stimuli/objects/cashregister01.jpg,right,new,19,,,,,,,,
,,,,,,,,16,2021-05-08_14h36.42.201,premceCat2_ses-02_part-02_label-phase2,2020.2.10,MacIntel,60,,,,,right,2.653,2,0.785,,,,,,,,0,111,111,89,1,stimuli/objects/ducttape.jpg,right,new,90,,,,,,,,
,,,,,,,,16,2021-05-08_14h36.42.201,premceCat2_ses-02_part-02_label-phase2,2020.2.10,MacIntel,60,,,,,left,1.282,3,1.289,right,0.369,0,0,0,0,1,,,,,,,,,,,,,,,,,
,,,,,,,,16,2021-05-08_14h36.42.201,premceCat2_ses-02_part-02_label-phase2,2020.2.10,MacIntel,60,,,,,,,,,,,,,,,,0,112,112,2,1,stimuli/objects/crocodileclips.jpg,left,old,3,,,,,,,,
,,,,,,,,16,2021-05-08_14h36.42.201,premceCat2_ses-02_part-02_label-phase2,2020.2.10,MacIntel,60,,,,,left,2.093,3,0.314,right,0.292,0,0,0,0,1,,,,,,,,,,,,,,,,,
,,,,,,,,16,2021-05-08_14h36.42.201,premceCat2_ses-02_part-02_label-phase2,2020.2.10,MacIntel,60,,,,,,,,,,,,,,,,0,113,113,105,1,stimuli/objects/cellphone.jpg,left,old,106,,,,,,,,
,,,,,,,,16,2021-05-08_14h36.42.201,premceCat2_ses-02_part-02_label-phase2,2020.2.10,MacIntel,60,,,,,left,1.346,3,0.876,left,0.326,0,0,0,0,1,,,,,,,,,,,,,,,,,
,,,,,,,,16,2021-05-08_14h36.42.201,premceCat2_ses-02_part-02_label-phase2,2020.2.10,MacIntel,60,,,,,,,,,,,,,,,,0,114,114,118,1,stimuli/objects/rope03.jpg,left,old,119,,,,,,,,
,,,,,,,,16,2021-05-08_14h36.42.201,premceCat2_ses-02_part-02_label-phase2,2020.2.10,MacIntel,60,,,,,left,1.046,4,0.487,right,0.529,0,0,0,0,1,,,,,,,,,,,,,,,,,
,,,,,,,,16,2021-05-08_14h36.42.201,premceCat2_ses-02_part-02_label-phase2,2020.2.10,MacIntel,60,,,,,,,,,,,,,,,,0,115,115,104,1,stimuli/objects/securitycamera.jpg,left,old,105,,,,,,,,
,,,,,,,,16,2021-05-08_14h36.42.201,premceCat2_ses-02_part-02_label-phase2,2020.2.10,MacIntel,60,,,,,right,2.019,1,1.326,,,,,,,,0,116,116,81,1,stimuli/objects/avcable.jpg,right,new,82,,,,,,,,
,,,,,,,,16,2021-05-08_14h36.42.201,premceCat2_ses-02_part-02_label-phase2,2020.2.10,MacIntel,60,,,,,left,1.393,3,1.206,right,0.552,0,0,0,0,1,,,,,,,,,,,,,,,,,
,,,,,,,,16,2021-05-08_14h36.42.201,premceCat2_ses-02_part-02_label-phase2,2020.2.10,MacIntel,60,,,,,,,,,,,,,,,,0,117,117,122,1,stimuli/objects/wire.jpg,left,old,123,,,,,,,,
,,,,,,,,16,2021-05-08_14h36.42.201,premceCat2_ses-02_part-02_label-phase2,2020.2.10,MacIntel,60,,,,,left,1.394,2,0.773,left,0.324,0,0,0,0,1,,,,,,,,,,,,,,,,,
,,,,,,,,16,2021-05-08_14h36.42.201,premceCat2_ses-02_part-02_label-phase2,2020.2.10,MacIntel,60,,,,,,,,,,,,,,,,0,118,118,39,1,stimuli/objects/sippycup.jpg,right,new,40,,,,,,,,
,,,,,,,,16,2021-05-08_14h36.42.201,premceCat2_ses-02_part-02_label-phase2,2020.2.10,MacIntel,60,,,,,left,1.355,3,1.951,right,0.342,0,0,0,0,1,,,,,,,,,,,,,,,,,
,,,,,,,,16,2021-05-08_14h36.42.201,premceCat2_ses-02_part-02_label-phase2,2020.2.10,MacIntel,60,,,,,,,,,,,,,,,,0,119,119,138,1,stimuli/objects/taperecorder.jpg,right,new,139,,,,,,,,
,,,,,,,,16,2021-05-08_14h36.42.201,premceCat2_ses-02_part-02_label-phase2,2020.2.10,MacIntel,60,,,,,left,0.913,3,2.046,left,0.482,0,0,0,0,1,,,,,,,,,,,,,,,,,
,,,,,,,,16,2021-05-08_14h36.42.201,premceCat2_ses-02_part-02_label-phase2,2020.2.10,MacIntel,60,,,,,,,,,,,,,,,,0,120,120,70,1,stimuli/objects/oven.jpg,left,old,71,,,,,,,,
,,,,,,,,16,2021-05-08_14h36.42.201,premceCat2_ses-02_part-02_label-phase2,2020.2.10,MacIntel,60,,,,,left,1.244,3,1.038,left,0.441,0,0,0,0,1,,,,,,,,,,,,,,,,,
,,,,,,,,16,2021-05-08_14h36.42.201,premceCat2_ses-02_part-02_label-phase2,2020.2.10,MacIntel,60,,,,,,,,,,,,,,,,0,121,121,123,1,stimuli/objects/breadknife.jpg,left,old,124,,,,,,,,
,,,,,,,,16,2021-05-08_14h36.42.201,premceCat2_ses-02_part-02_label-phase2,2020.2.10,MacIntel,60,,,,,right,1.018,3,0.906,,,,,,,,0,122,122,131,1,stimuli/objects/spotlight.jpg,right,new,132,,,,,,,,
,,,,,,,,16,2021-05-08_14h36.42.201,premceCat2_ses-02_part-02_label-phase2,2020.2.10,MacIntel,60,,,,,left,1.566,2,0.71,left,0.341,0,0,0,0,1,,,,,,,,,,,,,,,,,
,,,,,,,,16,2021-05-08_14h36.42.201,premceCat2_ses-02_part-02_label-phase2,2020.2.10,MacIntel,60,,,,,,,,,,,,,,,,0,123,123,103,1,stimuli/objects/bowl02a.jpg,left,old,104,,,,,,,,
,,,,,,,,16,2021-05-08_14h36.42.201,premceCat2_ses-02_part-02_label-phase2,2020.2.10,MacIntel,60,,,,,left,0.991,3,0.769,left,0.323,0,0,0,0,1,,,,,,,,,,,,,,,,,
,,,,,,,,16,2021-05-08_14h36.42.201,premceCat2_ses-02_part-02_label-phase2,2020.2.10,MacIntel,60,,,,,,,,,,,,,,,,0,124,124,62,1,stimuli/objects/tray.jpg,left,old,63,,,,,,,,
,,,,,,,,16,2021-05-08_14h36.42.201,premceCat2_ses-02_part-02_label-phase2,2020.2.10,MacIntel,60,,,,,left,2.442,1,0.266,right,0.288,0,0,0,0,1,,,,,,,,,,,,,,,,,
,,,,,,,,16,2021-05-08_14h36.42.201,premceCat2_ses-02_part-02_label-phase2,2020.2.10,MacIntel,60,,,,,,,,,,,,,,,,0,125,125,117,1,stimuli/objects/videotape01b.jpg,right,new,118,,,,,,,,
,,,,,,,,16,2021-05-08_14h36.42.201,premceCat2_ses-02_part-02_label-phase2,2020.2.10,MacIntel,60,,,,,right,1.47,2,0.355,,,,,,,,0,126,126,132,1,stimuli/objects/airconditioner.jpg,left,old,133,,,,,,,,
,,,,,,,,16,2021-05-08_14h36.42.201,premceCat2_ses-02_part-02_label-phase2,2020.2.10,MacIntel,60,,,,,right,1.505,3,0.454,,,,,,,,0,127,127,54,1,stimuli/objects/pda.jpg,right,new,55,,,,,,,,
,,,,,,,,16,2021-05-08_14h36.42.201,premceCat2_ses-02_part-02_label-phase2,2020.2.10,MacIntel,60,,,,,right,1.394,3,0.579,,,,,,,,0,128,128,20,1,stimuli/objects/laptop01a.jpg,right,new,21,,,,,,,,
,,,,,,,,16,2021-05-08_14h36.42.201,premceCat2_ses-02_part-02_label-phase2,2020.2.10,MacIntel,60,,,,,left,0.848,3,0.554,right,0.373,0,0,0,0,1,,,,,,,,,,,,,,,,,
,,,,,,,,16,2021-05-08_14h36.42.201,premceCat2_ses-02_part-02_label-phase2,2020.2.10,MacIntel,60,,,,,,,,,,,,,,,,0,129,129,14,1,stimuli/objects/mallet01b.jpg,left,old,15,,,,,,,,
,,,,,,,,16,2021-05-08_14h36.42.201,premceCat2_ses-02_part-02_label-phase2,2020.2.10,MacIntel,60,,,,,left,0.903,3,0.433,left,0.439,0,0,0,0,1,,,,,,,,,,,,,,,,,
,,,,,,,,16,2021-05-08_14h36.42.201,premceCat2_ses-02_part-02_label-phase2,2020.2.10,MacIntel,60,,,,,,,,,,,,,,,,0,130,130,78,1,stimuli/objects/servingspoon01.jpg,left,old,79,,,,,,,,
,,,,,,,,16,2021-05-08_14h36.42.201,premceCat2_ses-02_part-02_label-phase2,2020.2.10,MacIntel,60,,,,,left,1.124,3,0.946,right,0.339,0,0,0,0,1,,,,,,,,,,,,,,,,,
,,,,,,,,16,2021-05-08_14h36.42.201,premceCat2_ses-02_part-02_label-phase2,2020.2.10,MacIntel,60,,,,,,,,,,,,,,,,0,131,131,29,1,stimuli/objects/ipad02.jpg,left,old,30,,,,,,,,
,,,,,,,,16,2021-05-08_14h36.42.201,premceCat2_ses-02_part-02_label-phase2,2020.2.10,MacIntel,60,,,,,left,1.085,3,0.788,left,0.286,0,0,0,0,1,,,,,,,,,,,,,,,,,
,,,,,,,,16,2021-05-08_14h36.42.201,premceCat2_ses-02_part-02_label-phase2,2020.2.10,MacIntel,60,,,,,,,,,,,,,,,,0,132,132,127,1,stimuli/objects/cooler01.jpg,left,old,128,,,,,,,,
,,,,,,,,16,2021-05-08_14h36.42.201,premceCat2_ses-02_part-02_label-phase2,2020.2.10,MacIntel,60,,,,,left,1.243,3,0.425,right,0.262,0,0,0,0,1,,,,,,,,,,,,,,,,,
,,,,,,,,16,2021-05-08_14h36.42.201,premceCat2_ses-02_part-02_label-phase2,2020.2.10,MacIntel,60,,,,,,,,,,,,,,,,0,133,133,87,1,stimuli/objects/coffeemachine.jpg,left,old,88,,,,,,,,
,,,,,,,,16,2021-05-08_14h36.42.201,premceCat2_ses-02_part-02_label-phase2,2020.2.10,MacIntel,60,,,,,left,0.881,3,0.552,left,0.493,0,0,0,0,1,,,,,,,,,,,,,,,,,
,,,,,,,,16,2021-05-08_14h36.42.201,premceCat2_ses-02_part-02_label-phase2,2020.2.10,MacIntel,60,,,,,,,,,,,,,,,,0,134,134,140,1,stimuli/objects/volleyball.jpg,left,old,141,,,,,,,,
,,,,,,,,16,2021-05-08_14h36.42.201,premceCat2_ses-02_part-02_label-phase2,2020.2.10,MacIntel,60,,,,,left,3.187,4,0.926,right,0.267,0,0,0,0,1,,,,,,,,,,,,,,,,,
,,,,,,,,16,2021-05-08_14h36.42.201,premceCat2_ses-02_part-02_label-phase2,2020.2.10,MacIntel,60,,,,,,,,,,,,,,,,0,135,135,68,1,stimuli/objects/leafblower01.jpg,right,new,69,,,,,,,,
,,,,,,,,16,2021-05-08_14h36.42.201,premceCat2_ses-02_part-02_label-phase2,2020.2.10,MacIntel,60,,,,,right,3.758,2,0.302,,,,,,,,0,136,136,57,1,stimuli/objects/audiocablesplitter.jpg,right,new,58,,,,,,,,
,,,,,,,,16,2021-05-08_14h36.42.201,premceCat2_ses-02_part-02_label-phase2,2020.2.10,MacIntel,60,,,,,right,1.324,3,0.601,,,,,,,,0,137,137,25,1,stimuli/objects/bowlingball.jpg,right,new,26,,,,,,,,
,,,,,,,,16,2021-05-08_14h36.42.201,premceCat2_ses-02_part-02_label-phase2,2020.2.10,MacIntel,60,,,,,left,1.357,3,1.011,left,0.345,0,0,0,0,1,,,,,,,,,,,,,,,,,
,,,,,,,,16,2021-05-08_14h36.42.201,premceCat2_ses-02_part-02_label-phase2,2020.2.10,MacIntel,60,,,,,,,,,,,,,,,,0,138,138,48,1,stimuli/objects/gasburner.jpg,left,old,49,,,,,,,,
,,,,,,,,16,2021-05-08_14h36.42.201,premceCat2_ses-02_part-02_label-phase2,2020.2.10,MacIntel,60,,,,,right,1.146,3,0.455,,,,,,,,0,139,139,55,1,stimuli/objects/toolbox02.jpg,right,new,56,,,,,,,,
,,,,,,,,16,2021-05-08_14h36.42.201,premceCat2_ses-02_part-02_label-phase2,2020.2.10,MacIntel,60,,,,,left,1.017,3,1.037,left,0.375,0,0,0,0,1,,,,,,,,,,,,,,,,,
,,,,,,,,16,2021-05-08_14h36.42.201,premceCat2_ses-02_part-02_label-phase2,2020.2.10,MacIntel,60,,,,,,,,,,,,,,,,0,140,140,34,1,stimuli/objects/surfboard.jpg,left,old,35,,,,,,,,
,,,,,,,,16,2021-05-08_14h36.42.201,premceCat2_ses-02_part-02_label-phase2,2020.2.10,MacIntel,60,,,,,right,2.301,2,1.009,,,,,,,,0,141,141,93,1,stimuli/objects/icepack.jpg,right,new,94,,,,,,,,
,,,,,,,,16,2021-05-08_14h36.42.201,premceCat2_ses-02_part-02_label-phase2,2020.2.10,MacIntel,60,,,,,right,1.181,2,0.355,,,,,,,,0,142,142,38,1,stimuli/objects/soundmixer.jpg,right,new,39,,,,,,,,
,,,,,,,,16,2021-05-08_14h36.42.201,premceCat2_ses-02_part-02_label-phase2,2020.2.10,MacIntel,60,,,,,,,,,,,,,,,,,,,,,,,,,space,11.709,0,0,0,0,1,condition_files/ImagesforRecog1_1.csv
,,,,,,,,16,2021-05-08_14h36.42.201,premceCat2_ses-02_part-02_label-phase2,2020.2.10,MacIntel,60,,,,,left,6.261,2,0.617,left,0.173,0,0,0,0,1,,,,,,,,,,,,,,,,,
,,,,,,,,16,2021-05-08_14h36.42.201,premceCat2_ses-02_part-02_label-phase2,2020.2.10,MacIntel,60,,,,,,,,,,,,,,,,0,0,0,124,1,stimuli/objects/basketball01.jpg,right,new,268,,,,,,,,
,,,,,,,,16,2021-05-08_14h36.42.201,premceCat2_ses-02_part-02_label-phase2,2020.2.10,MacIntel,60,,,,,left,0.869,3,0.875,left,0.674,0,0,0,0,1,,,,,,,,,,,,,,,,,
,,,,,,,,16,2021-05-08_14h36.42.201,premceCat2_ses-02_part-02_label-phase2,2020.2.10,MacIntel,60,,,,,,,,,,,,,,,,0,1,1,58,1,stimuli/objects/ellipticalmachine.jpg,left,old,202,,,,,,,,
,,,,,,,,16,2021-05-08_14h36.42.201,premceCat2_ses-02_part-02_label-phase2,2020.2.10,MacIntel,60,,,,,left,1.487,3,0.507,left,0.276,0,0,0,0,1,,,,,,,,,,,,,,,,,
,,,,,,,,16,2021-05-08_14h36.42.201,premceCat2_ses-02_part-02_label-phase2,2020.2.10,MacIntel,60,,,,,,,,,,,,,,,,0,2,2,103,1,stimuli/objects/swissarmyknife01a.jpg,right,new,247,,,,,,,,
,,,,,,,,16,2021-05-08_14h36.42.201,premceCat2_ses-02_part-02_label-phase2,2020.2.10,MacIntel,60,,,,,left,2.244,3,0.962,right,0.292,0,0,0,0,1,,,,,,,,,,,,,,,,,
,,,,,,,,16,2021-05-08_14h36.42.201,premceCat2_ses-02_part-02_label-phase2,2020.2.10,MacIntel,60,,,,,,,,,,,,,,,,0,3,3,65,1,stimuli/objects/hoe.jpg,left,old,209,,,,,,,,
,,,,,,,,16,2021-05-08_14h36.42.201,premceCat2_ses-02_part-02_label-phase2,2020.2.10,MacIntel,60,,,,,left,1.764,3,1.105,left,0.564,0,0,0,0,1,,,,,,,,,,,,,,,,,
,,,,,,,,16,2021-05-08_14h36.42.201,premceCat2_ses-02_part-02_label-phase2,2020.2.10,MacIntel,60,,,,,,,,,,,,,,,,0,4,4,84,1,stimuli/objects/sportbag.jpg,left,old,228,,,,,,,,
,,,,,,,,16,2021-05-08_14h36.42.201,premceCat2_ses-02_part-02_label-phase2,2020.2.10,MacIntel,60,,,,,left,2.455,3,0.326,right,0.199,0,0,0,0,1,,,,,,,,,,,,,,,,,
,,,,,,,,16,2021-05-08_14h36.42.201,premceCat2_ses-02_part-02_label-phase2,2020.2.10,MacIntel,60,,,,,,,,,,,,,,,,0,5,5,108,1,stimuli/objects/slidetray.jpg,left,old,252,,,,,,,,
,,,,,,,,16,2021-05-08_14h36.42.201,premceCat2_ses-02_part-02_label-phase2,2020.2.10,MacIntel,60,,,,,right,1.252,2,0.32,,,,,,,,0,6,6,131,1,stimuli/objects/handblender.jpg,right,new,275,,,,,,,,
,,,,,,,,16,2021-05-08_14h36.42.201,premceCat2_ses-02_part-02_label-phase2,2020.2.10,MacIntel,60,,,,,left,1.324,4,0.491,right,0.437,0,0,0,0,1,,,,,,,,,,,,,,,,,
,,,,,,,,16,2021-05-08_14h36.42.201,premceCat2_ses-02_part-02_label-phase2,2020.2.10,MacIntel,60,,,,,,,,,,,,,,,,0,7,7,104,1,stimuli/objects/lectern01.jpg,left,old,248,,,,,,,,
,,,,,,,,16,2021-05-08_14h36.42.201,premceCat2_ses-02_part-02_label-phase2,2020.2.10,MacIntel,60,,,,,left,1.199,3,0.517,right,0.57,0,0,0,0,1,,,,,,,,,,,,,,,,,
,,,,,,,,16,2021-05-08_14h36.42.201,premceCat2_ses-02_part-02_label-phase2,2020.2.10,MacIntel,60,,,,,,,,,,,,,,,,0,8,8,93,1,stimuli/objects/axe01.jpg,left,old,237,,,,,,,,
,,,,,,,,16,2021-05-08_14h36.42.201,premceCat2_ses-02_part-02_label-phase2,2020.2.10,MacIntel,60,,,,,left,1.432,3,0.532,right,0.528,0,0,0,0,1,,,,,,,,,,,,,,,,,
,,,,,,,,16,2021-05-08_14h36.42.201,premceCat2_ses-02_part-02_label-phase2,2020.2.10,MacIntel,60,,,,,,,,,,,,,,,,0,9,9,67,1,stimuli/objects/nintendods.jpg,left,old,211,,,,,,,,
,,,,,,,,16,2021-05-08_14h36.42.201,premceCat2_ses-02_part-02_label-phase2,2020.2.10,MacIntel,60,,,,,left,1.027,3,0.417,left,0.419,0,0,0,0,1,,,,,,,,,,,,,,,,,
,,,,,,,,16,2021-05-08_14h36.42.201,premceCat2_ses-02_part-02_label-phase2,2020.2.10,MacIntel,60,,,,,,,,,,,,,,,,0,10,10,119,1,stimuli/objects/cookiecutter.jpg,left,old,263,,,,,,,,
,,,,,,,,16,2021-05-08_14h36.42.201,premceCat2_ses-02_part-02_label-phase2,2020.2.10,MacIntel,60,,,,,right,1.23,3,0.401,,,,,,,,0,11,11,101,1,stimuli/objects/lifejacket.jpg,right,new,245,,,,,,,,
,,,,,,,,16,2021-05-08_14h36.42.201,premceCat2_ses-02_part-02_label-phase2,2020.2.10,MacIntel,60,,,,,right,1.108,3,0.493,,,,,,,,0,12,12,111,1,stimuli/objects/diaperbag.jpg,right,new,255,,,,,,,,
,,,,,,,,16,2021-05-08_14h36.42.201,premceCat2_ses-02_part-02_label-phase2,2020.2.10,MacIntel,60,,,,,right,2.506,2,0.268,,,,,,,,0,13,13,107,1,stimuli/objects/dolly01.jpg,right,new,251,,,,,,,,
,,,,,,,,16,2021-05-08_14h36.42.201,premceCat2_ses-02_part-02_label-phase2,2020.2.10,MacIntel,60,,,,,left,2.644,2,0.649,left,0.338,0,0,0,0,1,,,,,,,,,,,,,,,,,
,,,,,,,,16,2021-05-08_14h36.42.201,premceCat2_ses-02_part-02_label-phase2,2020.2.10,MacIntel,60,,,,,,,,,,,,,,,,0,14,14,55,1,stimuli/objects/fonduefork01.jpg,right,new,199,,,,,,,,
,,,,,,,,16,2021-05-08_14h36.42.201,premceCat2_ses-02_part-02_label-phase2,2020.2.10,MacIntel,60,,,,,left,1.47,3,0.262,left,0.246,0,0,0,0,1,,,,,,,,,,,,,,,,,
,,,,,,,,16,2021-05-08_14h36.42.201,premceCat2_ses-02_part-02_label-phase2,2020.2.10,MacIntel,60,,,,,,,,,,,,,,,,0,15,15,140,1,stimuli/objects/wineglass01.jpg,right,new,284,,,,,,,,
,,,,,,,,16,2021-05-08_14h36.42.201,premceCat2_ses-02_part-02_label-phase2,2020.2.10,MacIntel,60,,,,,left,1.119,3,0.553,left,0.303,0,0,0,0,1,,,,,,,,,,,,,,,,,
,,,,,,,,16,2021-05-08_14h36.42.201,premceCat2_ses-02_part-02_label-phase2,2020.2.10,MacIntel,60,,,,,,,,,,,,,,,,0,16,16,136,1,stimuli/objects/exercisebike.jpg,left,old,280,,,,,,,,
,,,,,,,,16,2021-05-08_14h36.42.201,premceCat2_ses-02_part-02_label-phase2,2020.2.10,MacIntel,60,,,,,right,1.153,2,0.311,,,,,,,,0,17,17,40,1,stimuli/objects/tablesaw.jpg,right,new,184,,,,,,,,
,,,,,,,,16,2021-05-08_14h36.42.201,premceCat2_ses-02_part-02_label-phase2,2020.2.10,MacIntel,60,,,,,left,1.332,3,0.677,right,0.286,0,0,0,0,1,,,,,,,,,,,,,,,,,
,,,,,,,,16,2021-05-08_14h36.42.201,premceCat2_ses-02_part-02_label-phase2,2020.2.10,MacIntel,60,,,,,,,,,,,,,,,,0,18,18,8,1,stimuli/objects/sledgehammer.jpg,left,old,152,,,,,,,,
,,,,,,,,16,2021-05-08_14h36.42.201,premceCat2_ses-02_part-02_label-phase2,2020.2.10,MacIntel,60,,,,,left,1.354,2,0.376,right,0.227,0,0,0,0,1,,,,,,,,,,,,,,,,,
,,,,,,,,16,2021-05-08_14h36.42.201,premceCat2_ses-02_part-02_label-phase2,2020.2.10,MacIntel,60,,,,,,,,,,,,,,,,0,19,19,26,1,stimuli/objects/flashlight02b.jpg,right,new,170,,,,,,,,
,,,,,,,,16,2021-05-08_14h36.42.201,premceCat2_ses-02_part-02_label-phase2,2020.2.10,MacIntel,60,,,,,left,0.89,3,0.393,left,0.284,0,0,0,0,1,,,,,,,,,,,,,,,,,
,,,,,,,,16,2021-05-08_14h36.42.201,premceCat2_ses-02_part-02_label-phase2,2020.2.10,MacIntel,60,,,,,,,,,,,,,,,,0,20,20,28,1,stimuli/objects/saladspinner.jpg,left,old,172,,,,,,,,
,,,,,,,,16,2021-05-08_14h36.42.201,premceCat2_ses-02_part-02_label-phase2,2020.2.10,MacIntel,60,,,,,left,2.193,3,0.586,right,0.211,0,0,0,0,1,,,,,,,,,,,,,,,,,
,,,,,,,,16,2021-05-08_14h36.42.201,premceCat2_ses-02_part-02_label-phase2,2020.2.10,MacIntel,60,,,,,,,,,,,,,,,,0,21,21,96,1,stimuli/objects/knifesharpener.jpg,left,old,240,,,,,,,,
,,,,,,,,16,2021-05-08_14h36.42.201,premceCat2_ses-02_part-02_label-phase2,2020.2.10,MacIntel,60,,,,,left,0.971,3,1.549,left,0.246,0,0,0,0,1,,,,,,,,,,,,,,,,,
,,,,,,,,16,2021-05-08_14h36.42.201,premceCat2_ses-02_part-02_label-phase2,2020.2.10,MacIntel,60,,,,,,,,,,,,,,,,0,22,22,57,1,stimuli/objects/soccerball.jpg,left,old,201,,,,,,,,
,,,,,,,,16,2021-05-08_14h36.42.201,premceCat2_ses-02_part-02_label-phase2,2020.2.10,MacIntel,60,,,,,left,1.062,3,0.303,left,0.233,0,0,0,0,1,,,,,,,,,,,,,,,,,
,,,,,,,,16,2021-05-08_14h36.42.201,premceCat2_ses-02_part-02_label-phase2,2020.2.10,MacIntel,60,,,,,,,,,,,,,,,,0,23,23,20,1,stimuli/objects/fishinghook03.jpg,left,old,164,,,,,,,,
,,,,,,,,16,2021-05-08_14h36.42.201,premceCat2_ses-02_part-02_label-phase2,2020.2.10,MacIntel,60,,,,,right,1.42,2,0.725,,,,,,,,0,24,24,41,1,stimuli/objects/flask.jpg,right,new,185,,,,,,,,
,,,,,,,,16,2021-05-08_14h36.42.201,premceCat2_ses-02_part-02_label-phase2,2020.2.10,MacIntel,60,,,,,left,0.97,4,0.287,left,0.274,0,0,0,0,1,,,,,,,,,,,,,,,,,
,,,,,,,,16,2021-05-08_14h36.42.201,premceCat2_ses-02_part-02_label-phase2,2020.2.10,MacIntel,60,,,,,,,,,,,,,,,,0,25,25,90,1,stimuli/objects/patioumbrella.jpg,left,old,234,,,,,,,,
,,,,,,,,16,2021-05-08_14h36.42.201,premceCat2_ses-02_part-02_label-phase2,2020.2.10,MacIntel,60,,,,,left,1.326,3,0.597,left,0.249,0,0,0,0,1,,,,,,,,,,,,,,,,,
,,,,,,,,16,2021-05-08_14h36.42.201,premceCat2_ses-02_part-02_label-phase2,2020.2.10,MacIntel,60,,,,,,,,,,,,,,,,0,26,26,79,1,stimuli/objects/snowboard.jpg,left,old,223,,,,,,,,
,,,,,,,,16,2021-05-08_14h36.42.201,premceCat2_ses-02_part-02_label-phase2,2020.2.10,MacIntel,60,,,,,right,1.09,2,2.535,,,,,,,,0,27,27,10,1,stimuli/objects/downhillski.jpg,left,old,154,,,,,,,,
,,,,,,,,16,2021-05-08_14h36.42.201,premceCat2_ses-02_part-02_label-phase2,2020.2.10,MacIntel,60,,,,,left,0.969,3,0.758,right,0.302,0,0,0,0,1,,,,,,,,,,,,,,,,,
,,,,,,,,16,2021-05-08_14h36.42.201,premceCat2_ses-02_part-02_label-phase2,2020.2.10,MacIntel,60,,,,,,,,,,,,,,,,0,28,28,113,1,stimuli/objects/boltcutter.jpg,left,old,257,,,,,,,,
,,,,,,,,16,2021-05-08_14h36.42.201,premceCat2_ses-02_part-02_label-phase2,2020.2.10,MacIntel,60,,,,,right,1.024,2,0.335,,,,,,,,0,29,29,5,1,stimuli/objects/pickaxe02.jpg,right,new,149,,,,,,,,
,,,,,,,,16,2021-05-08_14h36.42.201,premceCat2_ses-02_part-02_label-phase2,2020.2.10,MacIntel,60,,,,,left,0.903,4,0.36,left,0.308,0,0,0,0,1,,,,,,,,,,,,,,,,,
,,,,,,,,16,2021-05-08_14h36.42.201,premceCat2_ses-02_part-02_label-phase2,2020.2.10,MacIntel,60,,,,,,,,,,,,,,,,0,30,30,64,1,stimuli/objects/fishingrod.jpg,left,old,208,,,,,,,,
,,,,,,,,16,2021-05-08_14h36.42.201,premceCat2_ses-02_part-02_label-phase2,2020.2.10,MacIntel,60,,,,,left,1.64,3,0.585,right,0.253,0,0,0,0,1,,,,,,,,,,,,,,,,,
,,,,,,,,16,2021-05-08_14h36.42.201,premceCat2_ses-02_part-02_label-phase2,2020.2.10,MacIntel,60,,,,,,,,,,,,,,,,0,31,31,52,1,stimuli/objects/extensioncord.jpg,left,old,196,,,,,,,,
,,,,,,,,16,2021-05-08_14h36.42.201,premceCat2_ses-02_part-02_label-phase2,2020.2.10,MacIntel,60,,,,,right,2.789,1,0.486,,,,,,,,0,32,32,49,1,stimuli/objects/cakeplatter.jpg,right,new,193,,,,,,,,
,,,,,,,,16,2021-05-08_14h36.42.201,premceCat2_ses-02_part-02_label-phase2,2020.2.10,MacIntel,60,,,,,right,1.146,2,0.529,,,,,,,,0,33,33,2,1,stimuli/objects/wetfloorsign.jpg,right,new,146,,,,,,,,
,,,,,,,,16,2021-05-08_14h36.42.201,premceCat2_ses-02_part-02_label-phase2,2020.2.10,MacIntel,60,,,,,left,1.022,3,0.531,left,0.393,0,0,0,0,1,,,,,,,,,,,,,,,,,
,,,,,,,,16,2021-05-08_14h36.42.201,premceCat2_ses-02_part-02_label-phase2,2020.2.10,MacIntel,60,,,,,,,,,,,,,,,,0,34,34,105,1,stimuli/objects/cork02.jpg,left,old,249,,,,,,,,
,,,,,,,,16,2021-05-08_14h36.42.201,premceCat2_ses-02_part-02_label-phase2,2020.2.10,MacIntel,60,,,,,right,2.149,2,0.812,,,,,,,,0,35,35,34,1,stimuli/objects/kneepad01c.jpg,right,new,178,,,,,,,,
,,,,,,,,16,2021-05-08_14h36.42.201,premceCat2_ses-02_part-02_label-phase2,2020.2.10,MacIntel,60,,,,,right,1.966,2,0.384,,,,,,,,0,36,36,122,1,stimuli/objects/hockeystick.jpg,right,new,266,,,,,,,,
,,,,,,,,16,2021-05-08_14h36.42.201,premceCat2_ses-02_part-02_label-phase2,2020.2.10,MacIntel,60,,,,,right,1.181,3,1.011,,,,,,,,0,37,37,59,1,stimuli/objects/speedball.jpg,right,new,203,,,,,,,,
,,,,,,,,16,2021-05-08_14h36.42.201,premceCat2_ses-02_part-02_label-phase2,2020.2.10,MacIntel,60,,,,,left,0.905,3,1.007,right,0.118,0,0,0,0,1,,,,,,,,,,,,,,,,,
,,,,,,,,16,2021-05-08_14h36.42.201,premceCat2_ses-02_part-02_label-phase2,2020.2.10,MacIntel,60,,,,,,,,,,,,,,,,0,38,38,53,1,stimuli/objects/chainsaw.jpg,left,old,197,,,,,,,,
,,,,,,,,16,2021-05-08_14h36.42.201,premceCat2_ses-02_part-02_label-phase2,2020.2.10,MacIntel,60,,,,,left,0.998,2,0.659,right,0.13,0,0,0,0,1,,,,,,,,,,,,,,,,,
,,,,,,,,16,2021-05-08_14h36.42.201,premceCat2_ses-02_part-02_label-phase2,2020.2.10,MacIntel,60,,,,,,,,,,,,,,,,0,39,39,12,1,stimuli/objects/fanheater.jpg,right,new,156,,,,,,,,
,,,,,,,,16,2021-05-08_14h36.42.201,premceCat2_ses-02_part-02_label-phase2,2020.2.10,MacIntel,60,,,,,right,1.184,3,0.175,,,,,,,,0,40,40,35,1,stimuli/objects/stroller.jpg,right,new,179,,,,,,,,
,,,,,,,,16,2021-05-08_14h36.42.201,premceCat2_ses-02_part-02_label-phase2,2020.2.10,MacIntel,60,,,,,right,1.317,3,0.377,,,,,,,,0,41,41,133,1,stimuli/objects/birdie.jpg,right,new,277,,,,,,,,
,,,,,,,,16,2021-05-08_14h36.42.201,premceCat2_ses-02_part-02_label-phase2,2020.2.10,MacIntel,60,,,,,right,2.285,2,0.228,,,,,,,,0,42,42,123,1,stimuli/objects/jackhammer.jpg,right,new,267,,,,,,,,
,,,,,,,,16,2021-05-08_14h36.42.201,premceCat2_ses-02_part-02_label-phase2,2020.2.10,MacIntel,60,,,,,left,0.946,3,0.278,left,0.249,0,0,0,0,1,,,,,,,,,,,,,,,,,
,,,,,,,,16,2021-05-08_14h36.42.201,premceCat2_ses-02_part-02_label-phase2,2020.2.10,MacIntel,60,,,,,,,,,,,,,,,,0,43,43,23,1,stimuli/objects/baseballglove.jpg,left,old,167,,,,,,,,
,,,,,,,,16,2021-05-08_14h36.42.201,premceCat2_ses-02_part-02_label-phase2,2020.2.10,MacIntel,60,,,,,right,0.858,1,1.634,,,,,,,,0,44,44,70,1,stimuli/objects/shovel01.jpg,right,new,214,,,,,,,,
,,,,,,,,16,2021-05-08_14h36.42.201,premceCat2_ses-02_part-02_label-phase2,2020.2.10,MacIntel,60,,,,,left,1.137,2,0.724,right,0.506,0,0,0,0,1,,,,,,,,,,,,,,,,,
,,,,,,,,16,2021-05-08_14h36.42.201,premceCat2_ses-02_part-02_label-phase2,2020.2.10,MacIntel,60,,,,,,,,,,,,,,,,0,45,45,13,1,stimuli/objects/leafrake.jpg,left,old,157,,,,,,,,
,,,,,,,,16,2021-05-08_14h36.42.201,premceCat2_ses-02_part-02_label-phase2,2020.2.10,MacIntel,60,,,,,right,2.935,3,0.383,,,,,,,,0,46,46,16,1,stimuli/objects/bottleopener01.jpg,right,new,160,,,,,,,,
,,,,,,,,16,2021-05-08_14h36.42.201,premceCat2_ses-02_part-02_label-phase2,2020.2.10,MacIntel,60,,,,,right,1.036,3,0.39,,,,,,,,0,47,47,81,1,stimuli/objects/grill.jpg,right,new,225,,,,,,,,
,,,,,,,,16,2021-05-08_14h36.42.201,premceCat2_ses-02_part-02_label-phase2,2020.2.10,MacIntel,60,,,,,left,3.78,2,0.343,right,0.228,0,0,0,0,1,,,,,,,,,,,,,,,,,
,,,,,,,,16,2021-05-08_14h36.42.201,premceCat2_ses-02_part-02_label-phase2,2020.2.10,MacIntel,60,,,,,,,,,,,,,,,,0,48,48,33,1,stimuli/objects/ethernetcable02.jpg,left,old,177,,,,,,,,
,,,,,,,,16,2021-05-08_14h36.42.201,premceCat2_ses-02_part-02_label-phase2,2020.2.10,MacIntel,60,,,,,right,1.638,2,0.637,,,,,,,,0,49,49,87,1,stimuli/objects/wiicontroller.jpg,right,new,231,,,,,,,,
,,,,,,,,16,2021-05-08_14h36.42.201,premceCat2_ses-02_part-02_label-phase2,2020.2.10,MacIntel,60,,,,,left,4.49,1,0.305,left,0.023,0,0,0,0,1,,,,,,,,,,,,,,,,,
,,,,,,,,16,2021-05-08_14h36.42.201,premceCat2_ses-02_part-02_label-phase2,2020.2.10,MacIntel,60,,,,,,,,,,,,,,,,0,50,50,77,1,stimuli/objects/thermos.jpg,left,old,221,,,,,,,,
,,,,,,,,16,2021-05-08_14h36.42.201,premceCat2_ses-02_part-02_label-phase2,2020.2.10,MacIntel,60,,,,,left,1.299,3,0.467,left,0.266,0,0,0,0,1,,,,,,,,,,,,,,,,,
,,,,,,,,16,2021-05-08_14h36.42.201,premceCat2_ses-02_part-02_label-phase2,2020.2.10,MacIntel,60,,,,,,,,,,,,,,,,0,51,51,97,1,stimuli/objects/shotglass.jpg,left,old,241,,,,,,,,
,,,,,,,,16,2021-05-08_14h36.42.201,premceCat2_ses-02_part-02_label-phase2,2020.2.10,MacIntel,60,,,,,left,1.762,3,0.837,right,0.264,0,0,0,0,1,,,,,,,,,,,,,,,,,
,,,,,,,,16,2021-05-08_14h36.42.201,premceCat2_ses-02_part-02_label-phase2,2020.2.10,MacIntel,60,,,,,,,,,,,,,,,,0,52,52,1,1,stimuli/objects/expansioncard.jpg,left,old,145,,,,,,,,
,,,,,,,,16,2021-05-08_14h36.42.201,premceCat2_ses-02_part-02_label-phase2,2020.2.10,MacIntel,60,,,,,left,3.136,3,0.82,right,0.006,0,0,0,0,1,,,,,,,,,,,,,,,,,
,,,,,,,,16,2021-05-08_14h36.42.201,premceCat2_ses-02_part-02_label-phase2,2020.2.10,MacIntel,60,,,,,,,,,,,,,,,,0,53,53,22,1,stimuli/objects/pipewrench.jpg,left,old,166,,,,,,,,
,,,,,,,,16,2021-05-08_14h36.42.201,premceCat2_ses-02_part-02_label-phase2,2020.2.10,MacIntel,60,,,,,left,1.05,3,0.322,right,0.616,0,0,0,0,1,,,,,,,,,,,,,,,,,
,,,,,,,,16,2021-05-08_14h36.42.201,premceCat2_ses-02_part-02_label-phase2,2020.2.10,MacIntel,60,,,,,,,,,,,,,,,,0,54,54,91,1,stimuli/objects/cuttingpliers02.jpg,right,new,235,,,,,,,,
,,,,,,,,16,2021-05-08_14h36.42.201,premceCat2_ses-02_part-02_label-phase2,2020.2.10,MacIntel,60,,,,,left,3.546,3,1.184,left,0.404,0,0,0,0,1,,,,,,,,,,,,,,,,,
,,,,,,,,16,2021-05-08_14h36.42.201,premceCat2_ses-02_part-02_label-phase2,2020.2.10,MacIntel,60,,,,,,,,,,,,,,,,0,55,55,25,1,stimuli/objects/gravyboat.jpg,left,old,169,,,,,,,,
,,,,,,,,16,2021-05-08_14h36.42.201,premceCat2_ses-02_part-02_label-phase2,2020.2.10,MacIntel,60,,,,,left,1.238,3,0.265,right,0.307,0,0,0,0,1,,,,,,,,,,,,,,,,,
,,,,,,,,16,2021-05-08_14h36.42.201,premceCat2_ses-02_part-02_label-phase2,2020.2.10,MacIntel,60,,,,,,,,,,,,,,,,0,56,56,118,1,stimuli/objects/pressurewasher.jpg,left,old,262,,,,,,,,
,,,,,,,,16,2021-05-08_14h36.42.201,premceCat2_ses-02_part-02_label-phase2,2020.2.10,MacIntel,60,,,,,left,1.404,3,0.266,right,0.32,0,0,0,0,1,,,,,,,,,,,,,,,,,
,,,,,,,,16,2021-05-08_14h36.42.201,premceCat2_ses-02_part-02_label-phase2,2020.2.10,MacIntel,60,,,,,,,,,,,,,,,,0,57,57,18,1,stimuli/objects/dvdplayer.jpg,left,old,162,,,,,,,,
,,,,,,,,16,2021-05-08_14h36.42.201,premceCat2_ses-02_part-02_label-phase2,2020.2.10,MacIntel,60,,,,,left,1.023,3,0.723,right,0.137,0,0,0,0,1,,,,,,,,,,,,,,,,,
,,,,,,,,16,2021-05-08_14h36.42.201,premceCat2_ses-02_part-02_label-phase2,2020.2.10,MacIntel,60,,,,,,,,,,,,,,,,0,58,58,63,1,stimuli/objects/watercooler.jpg,left,old,207,,,,,,,,
,,,,,,,,16,2021-05-08_14h36.42.201,premceCat2_ses-02_part-02_label-phase2,2020.2.10,MacIntel,60,,,,,right,1.277,2,0.818,,,,,,,,0,59,59,0,1,stimuli/objects/smokedetector02.jpg,right,new,144,,,,,,,,
,,,,,,,,16,2021-05-08_14h36.42.201,premceCat2_ses-02_part-02_label-phase2,2020.2.10,MacIntel,60,,,,,left,1.37,1,0.79,left,0.267,0,0,0,0,1,,,,,,,,,,,,,,,,,
,,,,,,,,16,2021-05-08_14h36.42.201,premceCat2_ses-02_part-02_label-phase2,2020.2.10,MacIntel,60,,,,,,,,,,,,,,,,0,60,60,121,1,stimuli/objects/parachute.jpg,right,new,265,,,,,,,,
,,,,,,,,16,2021-05-08_14h36.42.201,premceCat2_ses-02_part-02_label-phase2,2020.2.10,MacIntel,60,,,,,right,0.791,1,0.908,,,,,,,,0,61,61,134,1,stimuli/objects/filmnegative.jpg,left,old,278,,,,,,,,
,,,,,,,,16,2021-05-08_14h36.42.201,premceCat2_ses-02_part-02_label-phase2,2020.2.10,MacIntel,60,,,,,right,1.372,3,0.169,,,,,,,,0,62,62,39,1,stimuli/objects/wafflemaker.jpg,right,new,183,,,,,,,,
,,,,,,,,16,2021-05-08_14h36.42.201,premceCat2_ses-02_part-02_label-phase2,2020.2.10,MacIntel,60,,,,,right,2.004,3,0.573,,,,,,,,0,63,63,48,1,stimuli/objects/eggslicer.jpg,right,new,192,,,,,,,,
,,,,,,,,16,2021-05-08_14h36.42.201,premceCat2_ses-02_part-02_label-phase2,2020.2.10,MacIntel,60,,,,,right,1.952,2,0.863,,,,,,,,0,64,64,15,1,stimuli/objects/computermouse06.jpg,right,new,159,,,,,,,,
,,,,,,,,16,2021-05-08_14h36.42.201,premceCat2_ses-02_part-02_label-phase2,2020.2.10,MacIntel,60,,,,,right,1.33,3,0.899,,,,,,,,0,65,65,78,1,stimuli/objects/lightswitch01.jpg,right,new,222,,,,,,,,
,,,,,,,,16,2021-05-08_14h36.42.201,premceCat2_ses-02_part-02_label-phase2,2020.2.10,MacIntel,60,,,,,left,1.349,4,1.286,left,1.665,0,0,0,0,1,,,,,,,,,,,,,,,,,
,,,,,,,,16,2021-05-08_14h36.42.201,premceCat2_ses-02_part-02_label-phase2,2020.2.10,MacIntel,60,,,,,,,,,,,,,,,,0,66,66,128,1,stimuli/objects/espressomachine.jpg,left,old,272,,,,,,,,
,,,,,,,,16,2021-05-08_14h36.42.201,premceCat2_ses-02_part-02_label-phase2,2020.2.10,MacIntel,60,,,,,right,0.912,3,0.905,,,,,,,,0,67,67,138,1,stimuli/objects/beermug01a.jpg,right,new,282,,,,,,,,
,,,,,,,,16,2021-05-08_14h36.42.201,premceCat2_ses-02_part-02_label-phase2,2020.2.10,MacIntel,60,,,,,left,0.982,3,0.576,right,0.249,0,0,0,0,1,,,,,,,,,,,,,,,,,
,,,,,,,,16,2021-05-08_14h36.42.201,premceCat2_ses-02_part-02_label-phase2,2020.2.10,MacIntel,60,,,,,,,,,,,,,,,,0,68,68,4,1,stimuli/objects/cassettetape01a.jpg,right,new,148,,,,,,,,
,,,,,,,,16,2021-05-08_14h36.42.201,premceCat2_ses-02_part-02_label-phase2,2020.2.10,MacIntel,60,,,,,left,4.101,2,0.324,right,1.278,0,0,0,0,1,,,,,,,,,,,,,,,,,
,,,,,,,,16,2021-05-08_14h36.42.201,premceCat2_ses-02_part-02_label-phase2,2020.2.10,MacIntel,60,,,,,,,,,,,,,,,,0,69,69,137,1,stimuli/objects/nutcracker01.jpg,right,new,281,,,,,,,,
,,,,,,,,16,2021-05-08_14h36.42.201,premceCat2_ses-02_part-02_label-phase2,2020.2.10,MacIntel,60,,,,,right,1.146,2,0.338,,,,,,,,0,70,70,46,1,stimuli/objects/waterbottleholder.jpg,right,new,190,,,,,,,,
,,,,,,,,16,2021-05-08_14h36.42.201,premceCat2_ses-02_part-02_label-phase2,2020.2.10,MacIntel,60,,,,,left,1.084,3,0.804,left,0.253,0,0,0,0,1,,,,,,,,,,,,,,,,,
,,,,,,,,16,2021-05-08_14h36.42.201,premceCat2_ses-02_part-02_label-phase2,2020.2.10,MacIntel,60,,,,,,,,,,,,,,,,0,71,71,38,1,stimuli/objects/rollingpin01a.jpg,left,old,182,,,,,,,,
,,,,,,,,16,2021-05-08_14h36.42.201,premceCat2_ses-02_part-02_label-phase2,2020.2.10,MacIntel,60,,,,,right,1.295,3,0.393,,,,,,,,0,72,72,120,1,stimuli/objects/tent.jpg,right,new,264,,,,,,,,
,,,,,,,,16,2021-05-08_14h36.42.201,premceCat2_ses-02_part-02_label-phase2,2020.2.10,MacIntel,60,,,,,left,1.093,3,0.74,left,0.343,0,0,0,0,1,,,,,,,,,,,,,,,,,
,,,,,,,,16,2021-05-08_14h36.42.201,premceCat2_ses-02_part-02_label-phase2,2020.2.10,MacIntel,60,,,,,,,,,,,,,,,,0,73,73,110,1,stimuli/objects/bikewheel.jpg,left,old,254,,,,,,,,
,,,,,,,,16,2021-05-08_14h36.42.201,premceCat2_ses-02_part-02_label-phase2,2020.2.10,MacIntel,60,,,,,right,2.688,2,0.263,,,,,,,,0,74,74,47,1,stimuli/objects/plate01b.jpg,right,new,191,,,,,,,,
,,,,,,,,16,2021-05-08_14h36.42.201,premceCat2_ses-02_part-02_label-phase2,2020.2.10,MacIntel,60,,,,,left,1.934,3,0.371,right,0.318,0,0,0,0,1,,,,,,,,,,,,,,,,,
,,,,,,,,16,2021-05-08_14h36.42.201,premceCat2_ses-02_part-02_label-phase2,2020.2.10,MacIntel,60,,,,,,,,,,,,,,,,0,75,75,112,1,stimuli/objects/filmroll.jpg,left,old,256,,,,,,,,
,,,,,,,,16,2021-05-08_14h36.42.201,premceCat2_ses-02_part-02_label-phase2,2020.2.10,MacIntel,60,,,,,right,1.352,3,0.321,,,,,,,,0,76,76,86,1,stimuli/objects/trampoline.jpg,right,new,230,,,,,,,,
,,,,,,,,16,2021-05-08_14h36.42.201,premceCat2_ses-02_part-02_label-phase2,2020.2.10,MacIntel,60,,,,,right,1.314,2,1.549,,,,,,,,0,77,77,135,1,stimuli/objects/mortarandpestle.jpg,right,new,279,,,,,,,,
,,,,,,,,16,2021-05-08_14h36.42.201,premceCat2_ses-02_part-02_label-phase2,2020.2.10,MacIntel,60,,,,,right,1.528,3,0.171,,,,,,,,0,78,78,66,1,stimuli/objects/heatpump.jpg,right,new,210,,,,,,,,
,,,,,,,,16,2021-05-08_14h36.42.201,premceCat2_ses-02_part-02_label-phase2,2020.2.10,MacIntel,60,,,,,right,1.196,2,0.158,,,,,,,,0,79,79,98,1,stimuli/objects/cameracase01a.jpg,right,new,242,,,,,,,,
,,,,,,,,16,2021-05-08_14h36.42.201,premceCat2_ses-02_part-02_label-phase2,2020.2.10,MacIntel,60,,,,,left,1.269,3,0.783,right,0.452,0,0,0,0,1,,,,,,,,,,,,,,,,,
,,,,,,,,16,2021-05-08_14h36.42.201,premceCat2_ses-02_part-02_label-phase2,2020.2.10,MacIntel,60,,,,,,,,,,,,,,,,0,80,80,129,1,stimuli/objects/jigsaw.jpg,left,old,273,,,,,,,,
,,,,,,,,16,2021-05-08_14h36.42.201,premceCat2_ses-02_part-02_label-phase2,2020.2.10,MacIntel,60,,,,,right,1.282,2,0.062,,,,,,,,0,81,81,44,1,stimuli/objects/toaster01.jpg,right,new,188,,,,,,,,
,,,,,,,,16,2021-05-08_14h36.42.201,premceCat2_ses-02_part-02_label-phase2,2020.2.10,MacIntel,60,,,,,left,2.643,3,0.378,right,0.135,0,0,0,0,1,,,,,,,,,,,,,,,,,
,,,,,,,,16,2021-05-08_14h36.42.201,premceCat2_ses-02_part-02_label-phase2,2020.2.10,MacIntel,60,,,,,,,,,,,,,,,,0,82,82,92,1,stimuli/objects/gluetube.jpg,left,old,236,,,,,,,,
,,,,,,,,16,2021-05-08_14h36.42.201,premceCat2_ses-02_part-02_label-phase2,2020.2.10,MacIntel,60,,,,,left,0.964,4,0.855,right,0.286,0,0,0,0,1,,,,,,,,,,,,,,,,,
,,,,,,,,16,2021-05-08_14h36.42.201,premceCat2_ses-02_part-02_label-phase2,2020.2.10,MacIntel,60,,,,,,,,,,,,,,,,0,83,83,29,1,stimuli/objects/ipod.jpg,left,old,173,,,,,,,,
,,,,,,,,16,2021-05-08_14h36.42.201,premceCat2_ses-02_part-02_label-phase2,2020.2.10,MacIntel,60,,,,,left,1.618,3,0.837,left,0.327,0,0,0,0,1,,,,,,,,,,,,,,,,,
,,,,,,,,16,2021-05-08_14h36.42.201,premceCat2_ses-02_part-02_label-phase2,2020.2.10,MacIntel,60,,,,,,,,,,,,,,,,0,84,84,88,1,stimuli/objects/charcoalbarbecue.jpg,left,old,232,,,,,,,,
,,,,,,,,16,2021-05-08_14h36.42.201,premceCat2_ses-02_part-02_label-phase2,2020.2.10,MacIntel,60,,,,,left,1.08,3,0.73,left,0.383,0,0,0,0,1,,,,,,,,,,,,,,,,,
,,,,,,,,16,2021-05-08_14h36.42.201,premceCat2_ses-02_part-02_label-phase2,2020.2.10,MacIntel,60,,,,,,,,,,,,,,,,0,85,85,7,1,stimuli/objects/handmixer01d.jpg,left,old,151,,,,,,,,
,,,,,,,,16,2021-05-08_14h36.42.201,premceCat2_ses-02_part-02_label-phase2,2020.2.10,MacIntel,60,,,,,left,5.621,2,0.845,right,0.162,0,0,0,0,1,,,,,,,,,,,,,,,,,
,,,,,,,,16,2021-05-08_14h36.42.201,premceCat2_ses-02_part-02_label-phase2,2020.2.10,MacIntel,60,,,,,,,,,,,,,,,,0,86,86,94,1,stimuli/objects/file.jpg,right,new,238,,,,,,,,
,,,,,,,,16,2021-05-08_14h36.42.201,premceCat2_ses-02_part-02_label-phase2,2020.2.10,MacIntel,60,,,,,right,1.058,3,1.843,,,,,,,,0,87,87,24,1,stimuli/objects/monitor.jpg,right,new,168,,,,,,,,
,,,,,,,,16,2021-05-08_14h36.42.201,premceCat2_ses-02_part-02_label-phase2,2020.2.10,MacIntel,60,,,,,left,2.168,3,1.909,right,0.631,0,0,0,0,1,,,,,,,,,,,,,,,,,
,,,,,,,,16,2021-05-08_14h36.42.201,premceCat2_ses-02_part-02_label-phase2,2020.2.10,MacIntel,60,,,,,,,,,,,,,,,,0,88,88,36,1,stimuli/objects/loppingshears.jpg,right,new,180,,,,,,,,
,,,,,,,,16,2021-05-08_14h36.42.201,premceCat2_ses-02_part-02_label-phase2,2020.2.10,MacIntel,60,,,,,left,2.621,4,1.658,left,0.541,0,0,0,0,1,,,,,,,,,,,,,,,,,
,,,,,,,,16,2021-05-08_14h36.42.201,premceCat2_ses-02_part-02_label-phase2,2020.2.10,MacIntel,60,,,,,,,,,,,,,,,,0,89,89,32,1,stimuli/objects/potatomasher03b.jpg,left,old,176,,,,,,,,
,,,,,,,,16,2021-05-08_14h36.42.201,premceCat2_ses-02_part-02_label-phase2,2020.2.10,MacIntel,60,,,,,left,1.796,2,0.243,right,0.422,0,0,0,0,1,,,,,,,,,,,,,,,,,
,,,,,,,,16,2021-05-08_14h36.42.201,premceCat2_ses-02_part-02_label-phase2,2020.2.10,MacIntel,60,,,,,,,,,,,,,,,,0,90,90,142,1,stimuli/objects/needlenosepliers01.jpg,right,new,286,,,,,,,,
,,,,,,,,16,2021-05-08_14h36.42.201,premceCat2_ses-02_part-02_label-phase2,2020.2.10,MacIntel,60,,,,,left,1.733,3,1.025,right,1.093,0,0,0,0,1,,,,,,,,,,,,,,,,,
,,,,,,,,16,2021-05-08_14h36.42.201,premceCat2_ses-02_part-02_label-phase2,2020.2.10,MacIntel,60,,,,,,,,,,,,,,,,0,91,91,106,1,stimuli/objects/usbcable01a.jpg,left,old,250,,,,,,,,
,,,,,,,,16,2021-05-08_14h36.42.201,premceCat2_ses-02_part-02_label-phase2,2020.2.10,MacIntel,60,,,,,left,4.136,3,0.676,right,0.702,0,0,0,0,1,,,,,,,,,,,,,,,,,
,,,,,,,,16,2021-05-08_14h36.42.201,premceCat2_ses-02_part-02_label-phase2,2020.2.10,MacIntel,60,,,,,,,,,,,,,,,,0,92,92,37,1,stimuli/objects/papershredder.jpg,left,old,181,,,,,,,,
,,,,,,,,16,2021-05-08_14h36.42.201,premceCat2_ses-02_part-02_label-phase2,2020.2.10,MacIntel,60,,,,,left,0.857,3,1.091,left,0.431,0,0,0,0,1,,,,,,,,,,,,,,,,,
,,,,,,,,16,2021-05-08_14h36.42.201,premceCat2_ses-02_part-02_label-phase2,2020.2.10,MacIntel,60,,,,,,,,,,,,,,,,0,93,93,89,1,stimuli/objects/pastaspoon.jpg,left,old,233,,,,,,,,
,,,,,,,,16,2021-05-08_14h36.42.201,premceCat2_ses-02_part-02_label-phase2,2020.2.10,MacIntel,60,,,,,left,1.453,2,1.238,right,0.166,0,0,0,0,1,,,,,,,,,,,,,,,,,
,,,,,,,,16,2021-05-08_14h36.42.201,premceCat2_ses-02_part-02_label-phase2,2020.2.10,MacIntel,60,,,,,,,,,,,,,,,,0,94,94,43,1,stimuli/objects/bowrake.jpg,right,new,187,,,,,,,,
,,,,,,,,16,2021-05-08_14h36.42.201,premceCat2_ses-02_part-02_label-phase2,2020.2.10,MacIntel,60,,,,,left,2.814,2,0.541,left,0.308,0,0,0,0,1,,,,,,,,,,,,,,,,,
,,,,,,,,16,2021-05-08_14h36.42.201,premceCat2_ses-02_part-02_label-phase2,2020.2.10,MacIntel,60,,,,,,,,,,,,,,,,0,95,95,68,1,stimuli/objects/ladle02a.jpg,right,new,212,,,,,,,,
,,,,,,,,16,2021-05-08_14h36.42.201,premceCat2_ses-02_part-02_label-phase2,2020.2.10,MacIntel,60,,,,,right,1.254,3,0.867,,,,,,,,0,96,96,30,1,stimuli/objects/halogenlightbulb.jpg,right,new,174,,,,,,,,
,,,,,,,,16,2021-05-08_14h36.42.201,premceCat2_ses-02_part-02_label-phase2,2020.2.10,MacIntel,60,,,,,right,1.729,3,0.643,,,,,,,,0,97,97,60,1,stimuli/objects/kite.jpg,right,new,204,,,,,,,,
,,,,,,,,16,2021-05-08_14h36.42.201,premceCat2_ses-02_part-02_label-phase2,2020.2.10,MacIntel,60,,,,,right,1.154,3,0.662,,,,,,,,0,98,98,42,1,stimuli/objects/tennisracket.jpg,right,new,186,,,,,,,,
,,,,,,,,16,2021-05-08_14h36.42.201,premceCat2_ses-02_part-02_label-phase2,2020.2.10,MacIntel,60,,,,,left,1.416,2,1.171,left,0.252,0,0,0,0,1,,,,,,,,,,,,,,,,,
,,,,,,,,16,2021-05-08_14h36.42.201,premceCat2_ses-02_part-02_label-phase2,2020.2.10,MacIntel,60,,,,,,,,,,,,,,,,0,99,99,14,1,stimuli/objects/canoepaddle02.jpg,left,old,158,,,,,,,,
,,,,,,,,16,2021-05-08_14h36.42.201,premceCat2_ses-02_part-02_label-phase2,2020.2.10,MacIntel,60,,,,,right,1.804,2,0.355,,,,,,,,0,100,100,102,1,stimuli/objects/beachumbrella01.jpg,right,new,246,,,,,,,,
,,,,,,,,16,2021-05-08_14h36.42.201,premceCat2_ses-02_part-02_label-phase2,2020.2.10,MacIntel,60,,,,,left,1.786,3,0.691,right,0.265,0,0,0,0,1,,,,,,,,,,,,,,,,,
,,,,,,,,16,2021-05-08_14h36.42.201,premceCat2_ses-02_part-02_label-phase2,2020.2.10,MacIntel,60,,,,,,,,,,,,,,,,0,101,101,9,1,stimuli/objects/alarmsystem.jpg,right,new,153,,,,,,,,
,,,,,,,,16,2021-05-08_14h36.42.201,premceCat2_ses-02_part-02_label-phase2,2020.2.10,MacIntel,60,,,,,left,1.569,3,1.163,left,0.287,0,0,0,0,1,,,,,,,,,,,,,,,,,
,,,,,,,,16,2021-05-08_14h36.42.201,premceCat2_ses-02_part-02_label-phase2,2020.2.10,MacIntel,60,,,,,,,,,,,,,,,,0,102,102,74,1,stimuli/objects/poolnet.jpg,left,old,218,,,,,,,,
,,,,,,,,16,2021-05-08_14h36.42.201,premceCat2_ses-02_part-02_label-phase2,2020.2.10,MacIntel,60,,,,,left,1.334,3,0.446,right,0.289,0,0,0,0,1,,,,,,,,,,,,,,,,,
,,,,,,,,16,2021-05-08_14h36.42.201,premceCat2_ses-02_part-02_label-phase2,2020.2.10,MacIntel,60,,,,,,,,,,,,,,,,0,103,103,125,1,stimuli/objects/saw02b.jpg,left,old,269,,,,,,,,
,,,,,,,,16,2021-05-08_14h36.42.201,premceCat2_ses-02_part-02_label-phase2,2020.2.10,MacIntel,60,,,,,left,1.951,1,1.083,right,0.546,0,0,0,0,1,,,,,,,,,,,,,,,,,
,,,,,,,,16,2021-05-08_14h36.42.201,premceCat2_ses-02_part-02_label-phase2,2020.2.10,MacIntel,60,,,,,,,,,,,,,,,,0,104,104,132,1,stimuli/objects/wirestripper.jpg,right,new,276,,,,,,,,
,,,,,,,,16,2021-05-08_14h36.42.201,premceCat2_ses-02_part-02_label-phase2,2020.2.10,MacIntel,60,,,,,left,1.146,3,1.087,right,0.207,0,0,0,0,1,,,,,,,,,,,,,,,,,
,,,,,,,,16,2021-05-08_14h36.42.201,premceCat2_ses-02_part-02_label-phase2,2020.2.10,MacIntel,60,,,,,,,,,,,,,,,,0,105,105,75,1,stimuli/objects/ladder.jpg,left,old,219,,,,,,,,
,,,,,,,,16,2021-05-08_14h36.42.201,premceCat2_ses-02_part-02_label-phase2,2020.2.10,MacIntel,60,,,,,right,1.012,3,0.378,,,,,,,,0,106,106,82,1,stimuli/objects/shopvac.jpg,right,new,226,,,,,,,,
,,,,,,,,16,2021-05-08_14h36.42.201,premceCat2_ses-02_part-02_label-phase2,2020.2.10,MacIntel,60,,,,,left,1.217,2,0.757,left,0.226,0,0,0,0,1,,,,,,,,,,,,,,,,,
,,,,,,,,16,2021-05-08_14h36.42.201,premceCat2_ses-02_part-02_label-phase2,2020.2.10,MacIntel,60,,,,,,,,,,,,,,,,0,107,107,83,1,stimuli/objects/icecubetray01a.jpg,right,new,227,,,,,,,,
,,,,,,,,16,2021-05-08_14h36.42.201,premceCat2_ses-02_part-02_label-phase2,2020.2.10,MacIntel,60,,,,,left,1.736,2,0.713,left,0.258,0,0,0,0,1,,,,,,,,,,,,,,,,,
,,,,,,,,16,2021-05-08_14h36.42.201,premceCat2_ses-02_part-02_label-phase2,2020.2.10,MacIntel,60,,,,,,,,,,,,,,,,0,108,108,56,1,stimuli/objects/hourglass.jpg,left,old,200,,,,,,,,
,,,,,,,,16,2021-05-08_14h36.42.201,premceCat2_ses-02_part-02_label-phase2,2020.2.10,MacIntel,60,,,,,right,1.729,3,1.07,,,,,,,,0,109,109,69,1,stimuli/objects/straw.jpg,right,new,213,,,,,,,,
,,,,,,,,16,2021-05-08_14h36.42.201,premceCat2_ses-02_part-02_label-phase2,2020.2.10,MacIntel,60,,,,,right,1.185,3,0.337,,,,,,,,0,110,110,80,1,stimuli/objects/barbecue03.jpg,right,new,224,,,,,,,,
,,,,,,,,16,2021-05-08_14h36.42.201,premceCat2_ses-02_part-02_label-phase2,2020.2.10,MacIntel,60,,,,,left,1.025,3,0.358,right,0.174,0,0,0,0,1,,,,,,,,,,,,,,,,,
,,,,,,,,16,2021-05-08_14h36.42.201,premceCat2_ses-02_part-02_label-phase2,2020.2.10,MacIntel,60,,,,,,,,,,,,,,,,0,111,111,76,1,stimuli/objects/satellitedish01.jpg,left,old,220,,,,,,,,
,,,,,,,,16,2021-05-08_14h36.42.201,premceCat2_ses-02_part-02_label-phase2,2020.2.10,MacIntel,60,,,,,left,1.001,3,0.439,left,0.273,0,0,0,0,1,,,,,,,,,,,,,,,,,
,,,,,,,,16,2021-05-08_14h36.42.201,premceCat2_ses-02_part-02_label-phase2,2020.2.10,MacIntel,60,,,,,,,,,,,,,,,,0,112,112,71,1,stimuli/objects/anchor.jpg,left,old,215,,,,,,,,
,,,,,,,,16,2021-05-08_14h36.42.201,premceCat2_ses-02_part-02_label-phase2,2020.2.10,MacIntel,60,,,,,left,0.979,4,0.311,right,0.138,0,0,0,0,1,,,,,,,,,,,,,,,,,
,,,,,,,,16,2021-05-08_14h36.42.201,premceCat2_ses-02_part-02_label-phase2,2020.2.10,MacIntel,60,,,,,,,,,,,,,,,,0,113,113,27,1,stimuli/objects/wateringcan.jpg,left,old,171,,,,,,,,
,,,,,,,,16,2021-05-08_14h36.42.201,premceCat2_ses-02_part-02_label-phase2,2020.2.10,MacIntel,60,,,,,left,2.926,3,0.326,right,0.114,0,0,0,0,1,,,,,,,,,,,,,,,,,
,,,,,,,,16,2021-05-08_14h36.42.201,premceCat2_ses-02_part-02_label-phase2,2020.2.10,MacIntel,60,,,,,,,,,,,,,,,,0,114,114,109,1,stimuli/objects/peeler01.jpg,left,old,253,,,,,,,,
,,,,,,,,16,2021-05-08_14h36.42.201,premceCat2_ses-02_part-02_label-phase2,2020.2.10,MacIntel,60,,,,,right,1.234,3,1.076,,,,,,,,0,115,115,127,1,stimuli/objects/skigoggles01.jpg,right,new,271,,,,,,,,
,,,,,,,,16,2021-05-08_14h36.42.201,premceCat2_ses-02_part-02_label-phase2,2020.2.10,MacIntel,60,,,,,left,1.183,3,0.661,right,0.273,0,0,0,0,1,,,,,,,,,,,,,,,,,
,,,,,,,,16,2021-05-08_14h36.42.201,premceCat2_ses-02_part-02_label-phase2,2020.2.10,MacIntel,60,,,,,,,,,,,,,,,,0,116,116,17,1,stimuli/objects/propanetank01.jpg,left,old,161,,,,,,,,
,,,,,,,,16,2021-05-08_14h36.42.201,premceCat2_ses-02_part-02_label-phase2,2020.2.10,MacIntel,60,,,,,left,2.024,2,0.194,left,0.23,0,0,0,0,1,,,,,,,,,,,,,,,,,
,,,,,,,,16,2021-05-08_14h36.42.201,premceCat2_ses-02_part-02_label-phase2,2020.2.10,MacIntel,60,,,,,,,,,,,,,,,,0,117,117,62,1,stimuli/objects/spoon01.jpg,left,old,206,,,,,,,,
,,,,,,,,16,2021-05-08_14h36.42.201,premceCat2_ses-02_part-02_label-phase2,2020.2.10,MacIntel,60,,,,,right,1.138,3,0.135,,,,,,,,0,118,118,95,1,stimuli/objects/tennisball01b.jpg,right,new,239,,,,,,,,
,,,,,,,,16,2021-05-08_14h36.42.201,premceCat2_ses-02_part-02_label-phase2,2020.2.10,MacIntel,60,,,,,left,0.922,3,0.43,right,0.193,0,0,0,0,1,,,,,,,,,,,,,,,,,
,,,,,,,,16,2021-05-08_14h36.42.201,premceCat2_ses-02_part-02_label-phase2,2020.2.10,MacIntel,60,,,,,,,,,,,,,,,,0,119,119,100,1,stimuli/objects/lawnmower.jpg,left,old,244,,,,,,,,
,,,,,,,,16,2021-05-08_14h36.42.201,premceCat2_ses-02_part-02_label-phase2,2020.2.10,MacIntel,60,,,,,left,1.254,2,0.157,right,0.255,0,0,0,0,1,,,,,,,,,,,,,,,,,
,,,,,,,,16,2021-05-08_14h36.42.201,premceCat2_ses-02_part-02_label-phase2,2020.2.10,MacIntel,60,,,,,,,,,,,,,,,,0,120,120,21,1,stimuli/objects/adjustablewrench01b.jpg,left,old,165,,,,,,,,
,,,,,,,,16,2021-05-08_14h36.42.201,premceCat2_ses-02_part-02_label-phase2,2020.2.10,MacIntel,60,,,,,left,1.048,4,0.344,left,0.272,0,0,0,0,1,,,,,,,,,,,,,,,,,
,,,,,,,,16,2021-05-08_14h36.42.201,premceCat2_ses-02_part-02_label-phase2,2020.2.10,MacIntel,60,,,,,,,,,,,,,,,,0,121,121,50,1,stimuli/objects/magneticcompass.jpg,left,old,194,,,,,,,,
,,,,,,,,16,2021-05-08_14h36.42.201,premceCat2_ses-02_part-02_label-phase2,2020.2.10,MacIntel,60,,,,,right,1.75,1,0.058,,,,,,,,0,122,122,116,1,stimuli/objects/lockingplier.jpg,right,new,260,,,,,,,,
,,,,,,,,16,2021-05-08_14h36.42.201,premceCat2_ses-02_part-02_label-phase2,2020.2.10,MacIntel,60,,,,,left,2.724,2,0.324,left,0.239,0,0,0,0,1,,,,,,,,,,,,,,,,,
,,,,,,,,16,2021-05-08_14h36.42.201,premceCat2_ses-02_part-02_label-phase2,2020.2.10,MacIntel,60,,,,,,,,,,,,,,,,0,123,123,126,1,stimuli/objects/shinpad.jpg,left,old,270,,,,,,,,
,,,,,,,,16,2021-05-08_14h36.42.201,premceCat2_ses-02_part-02_label-phase2,2020.2.10,MacIntel,60,,,,,left,1.384,4,0.451,right,0.597,0,0,0,0,1,,,,,,,,,,,,,,,,,
,,,,,,,,16,2021-05-08_14h36.42.201,premceCat2_ses-02_part-02_label-phase2,2020.2.10,MacIntel,60,,,,,,,,,,,,,,,,0,124,124,11,1,stimuli/objects/antenna.jpg,left,old,155,,,,,,,,
,,,,,,,,16,2021-05-08_14h36.42.201,premceCat2_ses-02_part-02_label-phase2,2020.2.10,MacIntel,60,,,,,left,1.011,4,0.189,left,0.565,0,0,0,0,1,,,,,,,,,,,,,,,,,
,,,,,,,,16,2021-05-08_14h36.42.201,premceCat2_ses-02_part-02_label-phase2,2020.2.10,MacIntel,60,,,,,,,,,,,,,,,,0,125,125,31,1,stimuli/objects/outdoorheater.jpg,left,old,175,,,,,,,,
,,,,,,,,16,2021-05-08_14h36.42.201,premceCat2_ses-02_part-02_label-phase2,2020.2.10,MacIntel,60,,,,,left,0.997,3,0.667,right,0.159,0,0,0,0,1,,,,,,,,,,,,,,,,,
,,,,,,,,16,2021-05-08_14h36.42.201,premceCat2_ses-02_part-02_label-phase2,2020.2.10,MacIntel,60,,,,,,,,,,,,,,,,0,126,126,85,1,stimuli/objects/fan.jpg,left,old,229,,,,,,,,
,,,,,,,,16,2021-05-08_14h36.42.201,premceCat2_ses-02_part-02_label-phase2,2020.2.10,MacIntel,60,,,,,left,0.79,3,0.596,left,0.196,0,0,0,0,1,,,,,,,,,,,,,,,,,
,,,,,,,,16,2021-05-08_14h36.42.201,premceCat2_ses-02_part-02_label-phase2,2020.2.10,MacIntel,60,,,,,,,,,,,,,,,,0,127,127,117,1,stimuli/objects/iceskate.jpg,left,old,261,,,,,,,,
,,,,,,,,16,2021-05-08_14h36.42.201,premceCat2_ses-02_part-02_label-phase2,2020.2.10,MacIntel,60,,,,,left,0.901,3,0.337,left,0.271,0,0,0,0,1,,,,,,,,,,,,,,,,,
,,,,,,,,16,2021-05-08_14h36.42.201,premceCat2_ses-02_part-02_label-phase2,2020.2.10,MacIntel,60,,,,,,,,,,,,,,,,0,128,128,141,1,stimuli/objects/coffeepot03a.jpg,left,old,285,,,,,,,,
,,,,,,,,16,2021-05-08_14h36.42.201,premceCat2_ses-02_part-02_label-phase2,2020.2.10,MacIntel,60,,,,,right,2.956,2,0.76,,,,,,,,0,129,129,54,1,stimuli/objects/stubbywrench01a.jpg,left,old,198,,,,,,,,
,,,,,,,,16,2021-05-08_14h36.42.201,premceCat2_ses-02_part-02_label-phase2,2020.2.10,MacIntel,60,,,,,left,0.969,3,1.439,left,0.446,0,0,0,0,1,,,,,,,,,,,,,,,,,
,,,,,,,,16,2021-05-08_14h36.42.201,premceCat2_ses-02_part-02_label-phase2,2020.2.10,MacIntel,60,,,,,,,,,,,,,,,,0,130,130,139,1,stimuli/objects/measuringcup01.jpg,left,old,283,,,,,,,,
,,,,,,,,16,2021-05-08_14h36.42.201,premceCat2_ses-02_part-02_label-phase2,2020.2.10,MacIntel,60,,,,,left,1.736,2,0.827,right,0.076,0,0,0,0,1,,,,,,,,,,,,,,,,,
,,,,,,,,16,2021-05-08_14h36.42.201,premceCat2_ses-02_part-02_label-phase2,2020.2.10,MacIntel,60,,,,,,,,,,,,,,,,0,131,131,99,1,stimuli/objects/floodlight.jpg,right,new,243,,,,,,,,
,,,,,,,,16,2021-05-08_14h36.42.201,premceCat2_ses-02_part-02_label-phase2,2020.2.10,MacIntel,60,,,,,left,2.869,1,0.33,right,0.192,0,0,0,0,1,,,,,,,,,,,,,,,,,
,,,,,,,,16,2021-05-08_14h36.42.201,premceCat2_ses-02_part-02_label-phase2,2020.2.10,MacIntel,60,,,,,,,,,,,,,,,,0,132,132,130,1,stimuli/objects/scanner.jpg,left,old,274,,,,,,,,
,,,,,,,,16,2021-05-08_14h36.42.201,premceCat2_ses-02_part-02_label-phase2,2020.2.10,MacIntel,60,,,,,left,1.163,3,0.318,left,0.326,0,0,0,0,1,,,,,,,,,,,,,,,,,
,,,,,,,,16,2021-05-08_14h36.42.201,premceCat2_ses-02_part-02_label-phase2,2020.2.10,MacIntel,60,,,,,,,,,,,,,,,,0,133,133,45,1,stimuli/objects/bikelock.jpg,left,old,189,,,,,,,,
,,,,,,,,16,2021-05-08_14h36.42.201,premceCat2_ses-02_part-02_label-phase2,2020.2.10,MacIntel,60,,,,,right,1.398,2,0.374,,,,,,,,0,134,134,3,1,stimuli/objects/boxingglove01.jpg,right,new,147,,,,,,,,
,,,,,,,,16,2021-05-08_14h36.42.201,premceCat2_ses-02_part-02_label-phase2,2020.2.10,MacIntel,60,,,,,left,1.436,3,1.106,right,0.34,0,0,0,0,1,,,,,,,,,,,,,,,,,
,,,,,,,,16,2021-05-08_14h36.42.201,premceCat2_ses-02_part-02_label-phase2,2020.2.10,MacIntel,60,,,,,,,,,,,,,,,,0,135,135,61,1,stimuli/objects/setsquare.jpg,left,old,205,,,,,,,,
,,,,,,,,16,2021-05-08_14h36.42.201,premceCat2_ses-02_part-02_label-phase2,2020.2.10,MacIntel,60,,,,,left,1.155,2,1.218,left,0.276,0,0,0,0,1,,,,,,,,,,,,,,,,,
,,,,,,,,16,2021-05-08_14h36.42.201,premceCat2_ses-02_part-02_label-phase2,2020.2.10,MacIntel,60,,,,,,,,,,,,,,,,0,136,136,73,1,stimuli/objects/weight01.jpg,left,old,217,,,,,,,,
,,,,,,,,16,2021-05-08_14h36.42.201,premceCat2_ses-02_part-02_label-phase2,2020.2.10,MacIntel,60,,,,,left,0.968,3,0.229,right,0.228,0,0,0,0,1,,,,,,,,,,,,,,,,,
,,,,,,,,16,2021-05-08_14h36.42.201,premceCat2_ses-02_part-02_label-phase2,2020.2.10,MacIntel,60,,,,,,,,,,,,,,,,0,137,137,72,1,stimuli/objects/wheel01.jpg,left,old,216,,,,,,,,
,,,,,,,,16,2021-05-08_14h36.42.201,premceCat2_ses-02_part-02_label-phase2,2020.2.10,MacIntel,60,,,,,right,1.597,1,0.416,,,,,,,,0,138,138,19,1,stimuli/objects/mug01.jpg,right,new,163,,,,,,,,
,,,,,,,,16,2021-05-08_14h36.42.201,premceCat2_ses-02_part-02_label-phase2,2020.2.10,MacIntel,60,,,,,left,1.644,2,0.255,right,0.174,0,0,0,0,1,,,,,,,,,,,,,,,,,
,,,,,,,,16,2021-05-08_14h36.42.201,premceCat2_ses-02_part-02_label-phase2,2020.2.10,MacIntel,60,,,,,,,,,,,,,,,,0,139,139,51,1,stimuli/objects/cheeseknife01.jpg,right,new,195,,,,,,,,
,,,,,,,,16,2021-05-08_14h36.42.201,premceCat2_ses-02_part-02_label-phase2,2020.2.10,MacIntel,60,,,,,left,0.897,3,0.428,left,0.285,0,0,0,0,1,,,,,,,,,,,,,,,,,
,,,,,,,,16,2021-05-08_14h36.42.201,premceCat2_ses-02_part-02_label-phase2,2020.2.10,MacIntel,60,,,,,,,,,,,,,,,,0,140,140,115,1,stimuli/objects/dishrack.jpg,left,old,259,,,,,,,,
,,,,,,,,16,2021-05-08_14h36.42.201,premceCat2_ses-02_part-02_label-phase2,2020.2.10,MacIntel,60,,,,,left,3.309,2,0.317,left,0.23,0,0,0,0,1,,,,,,,,,,,,,,,,,
,,,,,,,,16,2021-05-08_14h36.42.201,premceCat2_ses-02_part-02_label-phase2,2020.2.10,MacIntel,60,,,,,,,,,,,,,,,,0,141,141,114,1,stimuli/objects/drinkshaker.jpg,right,new,258,,,,,,,,
,,,,,,,,16,2021-05-08_14h36.42.201,premceCat2_ses-02_part-02_label-phase2,2020.2.10,MacIntel,60,,,,,right,1.051,3,0.763,,,,,,,,0,142,142,6,1,stimuli/objects/solderingwire.jpg,right,new,150,,,,,,,,
,,,,,,,,16,2021-05-08_14h36.42.201,premceCat2_ses-02_part-02_label-phase2,2020.2.10,MacIntel,60,,,,,,,,,,,,,,,,,,,,,,,,,space,5.108,0,1,1,1,1,condition_files/ImagesforRecog1_2.csv
