myownaccuracy,respcorrs,minNrPractice,considerNrTrials,Instr_resp.keys,Instr_resp.rt,taskGoresp.keys,taskGoresp.rt,warmup_resp.keys,warmup_resp.corr,warmup_resp.rt,myownaccuracyCORR,trials.thisRepN,trials.thisTrialN,trials.thisN,trials.thisIndex,trials.ran,first_character,second_character,Cue,left_categ,centleft_categ,centright_categ,right_categ,corr_ans,trial_cond,switch_cond,cuedCharacter,obj_category,image,participant,date,expName,psychopyVersion,OS,frameRate,task_resp.keys,task_resp.corr,task_resp.rt,task_loop.thisRepN,task_loop.thisTrialN,task_loop.thisN,task_loop.thisIndex,task_loop.ran,list_loop.thisRepN,list_loop.thisTrialN,list_loop.thisN,list_loop.thisIndex,list_loop.ran,conditions
0,[],10,10,space,11.887,space,8.915,1,0,2.366,0,0,0,0,0,1,stimuli/m5.jpg,stimuli/m2.jpg,1,stimuli/Outdoor activity & sport item.png,stimuli/Hand labour tool & accessory.png,stimuli/Kitchen & utensil.png,stimuli/Electronic device & accessory.png,2,1,1,stimuli/m5.jpg,Hand labour tool & accessory,stimuli/objects/handrake01a.jpg,16,2021-05-08_14h05.08.359,premceCat2_ses-02_part-01_label-phase1,2020.2.9,MacIntel,60,,,,,,,,,,,,,,
1,[],,,,,,,4,1,2.109,1,0,1,1,1,1,stimuli/m2.jpg,stimuli/m5.jpg,2,stimuli/Outdoor activity & sport item.png,stimuli/Electronic device & accessory.png,stimuli/Kitchen & utensil.png,stimuli/Hand labour tool & accessory.png,4,1,1,stimuli/m5.jpg,Hand labour tool & accessory,stimuli/objects/jumpingjack.jpg,16,2021-05-08_14h05.08.359,premceCat2_ses-02_part-01_label-phase1,2020.2.9,MacIntel,60,,,,,,,,,,,,,,
1,[],,,,,,,3,1,1.175,1,0,2,2,2,1,stimuli/m2.jpg,stimuli/m5.jpg,1,stimuli/Kitchen & utensil.png,stimuli/Hand labour tool & accessory.png,stimuli/Outdoor activity & sport item.png,stimuli/Electronic device & accessory.png,3,1,1,stimuli/m2.jpg,Outdoor activity & sport item,stimuli/objects/racquetballracket.jpg,16,2021-05-08_14h05.08.359,premceCat2_ses-02_part-01_label-phase1,2020.2.9,MacIntel,60,,,,,,,,,,,,,,
1,[],,,,,,,4,1,0.998,1,0,3,3,3,1,stimuli/m2.jpg,stimuli/m5.jpg,1,stimuli/Electronic device & accessory.png,stimuli/Hand labour tool & accessory.png,stimuli/Kitchen & utensil.png,stimuli/Outdoor activity & sport item.png,4,1,1,stimuli/m2.jpg,Outdoor activity & sport item,stimuli/objects/racquetballracket.jpg,16,2021-05-08_14h05.08.359,premceCat2_ses-02_part-01_label-phase1,2020.2.9,MacIntel,60,,,,,,,,,,,,,,
1,[],,,,,,,1,1,1.058,1,0,4,4,4,1,stimuli/m2.jpg,stimuli/m5.jpg,1,stimuli/Outdoor activity & sport item.png,stimuli/Kitchen & utensil.png,stimuli/Hand labour tool & accessory.png,stimuli/Electronic device & accessory.png,1,1,1,stimuli/m2.jpg,Outdoor activity & sport item,stimuli/objects/crosscountryski.jpg,16,2021-05-08_14h05.08.359,premceCat2_ses-02_part-01_label-phase1,2020.2.9,MacIntel,60,,,,,,,,,,,,,,
1,[],,,,,,,1,1,0.593,1,0,5,5,5,1,stimuli/m2.jpg,stimuli/m5.jpg,1,stimuli/Outdoor activity & sport item.png,stimuli/Electronic device & accessory.png,stimuli/Hand labour tool & accessory.png,stimuli/Kitchen & utensil.png,1,1,1,stimuli/m2.jpg,Outdoor activity & sport item,stimuli/objects/crosscountryski.jpg,16,2021-05-08_14h05.08.359,premceCat2_ses-02_part-01_label-phase1,2020.2.9,MacIntel,60,,,,,,,,,,,,,,
1,[],,,,,,,3,1,0.858,1,0,6,6,6,1,stimuli/m5.jpg,stimuli/m2.jpg,1,stimuli/Outdoor activity & sport item.png,stimuli/Electronic device & accessory.png,stimuli/Hand labour tool & accessory.png,stimuli/Kitchen & utensil.png,3,1,1,stimuli/m5.jpg,Hand labour tool & accessory,stimuli/objects/jumpingjack.jpg,16,2021-05-08_14h05.08.359,premceCat2_ses-02_part-01_label-phase1,2020.2.9,MacIntel,60,,,,,,,,,,,,,,
0,[],,,,,,,3,0,0.816,1,0,7,7,7,1,stimuli/m2.jpg,stimuli/m5.jpg,2,stimuli/Outdoor activity & sport item.png,stimuli/Electronic device & accessory.png,stimuli/Hand labour tool & accessory.png,stimuli/Kitchen & utensil.png,4,0,1,stimuli/m5.jpg,Kitchen & utensil,stimuli/objects/jug.jpg,16,2021-05-08_14h05.08.359,premceCat2_ses-02_part-01_label-phase1,2020.2.9,MacIntel,60,,,,,,,,,,,,,,
1,[],,,,,,,2,1,1.066,1,0,8,8,8,1,stimuli/m5.jpg,stimuli/m2.jpg,1,stimuli/Outdoor activity & sport item.png,stimuli/Hand labour tool & accessory.png,stimuli/Electronic device & accessory.png,stimuli/Kitchen & utensil.png,2,1,1,stimuli/m5.jpg,Hand labour tool & accessory,stimuli/objects/pitchfork.jpg,16,2021-05-08_14h05.08.359,premceCat2_ses-02_part-01_label-phase1,2020.2.9,MacIntel,60,,,,,,,,,,,,,,
0,[],,,,,,,4,0,0.998,1,0,9,9,9,1,stimuli/m5.jpg,stimuli/m2.jpg,2,stimuli/Kitchen & utensil.png,stimuli/Hand labour tool & accessory.png,stimuli/Electronic device & accessory.png,stimuli/Outdoor activity & sport item.png,2,0,1,stimuli/m2.jpg,Hand labour tool & accessory,stimuli/objects/boxcutter03a.jpg,16,2021-05-08_14h05.08.359,premceCat2_ses-02_part-01_label-phase1,2020.2.9,MacIntel,60,,,,,,,,,,,,,,
1,[],,,,,,,4,1,1.632,1,0,10,10,10,1,stimuli/m5.jpg,stimuli/m2.jpg,1,stimuli/Kitchen & utensil.png,stimuli/Outdoor activity & sport item.png,stimuli/Electronic device & accessory.png,stimuli/Hand labour tool & accessory.png,4,1,1,stimuli/m5.jpg,Hand labour tool & accessory,stimuli/objects/gavel.jpg,16,2021-05-08_14h05.08.359,premceCat2_ses-02_part-01_label-phase1,2020.2.9,MacIntel,60,,,,,,,,,,,,,,
0,[],,,,,,,2,0,1.466,1,0,11,11,11,1,stimuli/m5.jpg,stimuli/m2.jpg,1,stimuli/Kitchen & utensil.png,stimuli/Hand labour tool & accessory.png,stimuli/Electronic device & accessory.png,stimuli/Outdoor activity & sport item.png,4,0,1,stimuli/m5.jpg,Outdoor activity & sport item,stimuli/objects/swing.jpg,16,2021-05-08_14h05.08.359,premceCat2_ses-02_part-01_label-phase1,2020.2.9,MacIntel,60,,,,,,,,,,,,,,
1,[],,,,,,,1,1,1.456,1,0,12,12,12,1,stimuli/m5.jpg,stimuli/m2.jpg,2,stimuli/Outdoor activity & sport item.png,stimuli/Electronic device & accessory.png,stimuli/Kitchen & utensil.png,stimuli/Hand labour tool & accessory.png,1,1,1,stimuli/m2.jpg,Outdoor activity & sport item,stimuli/objects/bicycle.jpg,16,2021-05-08_14h05.08.359,premceCat2_ses-02_part-01_label-phase1,2020.2.9,MacIntel,60,,,,,,,,,,,,,,
1,[],,,,,,,2,1,0.956,1,0,13,13,13,1,stimuli/m2.jpg,stimuli/m5.jpg,1,stimuli/Electronic device & accessory.png,stimuli/Outdoor activity & sport item.png,stimuli/Hand labour tool & accessory.png,stimuli/Kitchen & utensil.png,2,1,1,stimuli/m2.jpg,Outdoor activity & sport item,stimuli/objects/racquetballracket.jpg,16,2021-05-08_14h05.08.359,premceCat2_ses-02_part-01_label-phase1,2020.2.9,MacIntel,60,,,,,,,,,,,,,,
0,[],,,,,,,1,0,1.014,1,0,14,14,14,1,stimuli/m5.jpg,stimuli/m2.jpg,1,stimuli/Hand labour tool & accessory.png,stimuli/Outdoor activity & sport item.png,stimuli/Kitchen & utensil.png,stimuli/Electronic device & accessory.png,3,0,1,stimuli/m5.jpg,Kitchen & utensil,stimuli/objects/freezer02.jpg,16,2021-05-08_14h05.08.359,premceCat2_ses-02_part-01_label-phase1,2020.2.9,MacIntel,60,,,,,,,,,,,,,,
0,[],,,,,,,4,0,1.072,1,0,15,15,15,1,stimuli/m2.jpg,stimuli/m5.jpg,1,stimuli/Kitchen & utensil.png,stimuli/Hand labour tool & accessory.png,stimuli/Electronic device & accessory.png,stimuli/Outdoor activity & sport item.png,2,0,1,stimuli/m2.jpg,Hand labour tool & accessory,stimuli/objects/handrake01a.jpg,16,2021-05-08_14h05.08.359,premceCat2_ses-02_part-01_label-phase1,2020.2.9,MacIntel,60,,,,,,,,,,,,,,
1,[],,,,,,,2,1,1.322,1,0,16,16,16,1,stimuli/m5.jpg,stimuli/m2.jpg,2,stimuli/Hand labour tool & accessory.png,stimuli/Outdoor activity & sport item.png,stimuli/Kitchen & utensil.png,stimuli/Electronic device & accessory.png,2,1,1,stimuli/m2.jpg,Outdoor activity & sport item,stimuli/objects/rollerblade.jpg,16,2021-05-08_14h05.08.359,premceCat2_ses-02_part-01_label-phase1,2020.2.9,MacIntel,60,,,,,,,,,,,,,,
0,[],,,,,,,2,0,1.529,0,0,17,17,17,1,stimuli/m2.jpg,stimuli/m5.jpg,2,stimuli/Hand labour tool & accessory.png,stimuli/Kitchen & utensil.png,stimuli/Electronic device & accessory.png,stimuli/Outdoor activity & sport item.png,1,1,1,stimuli/m5.jpg,Hand labour tool & accessory,stimuli/objects/hedgetrimmer.jpg,16,2021-05-08_14h05.08.359,premceCat2_ses-02_part-01_label-phase1,2020.2.9,MacIntel,60,,,,,,,,,,,,,,
1,[],,,,,,,1,1,0.944,1,0,18,18,18,1,stimuli/m5.jpg,stimuli/m2.jpg,1,stimuli/Hand labour tool & accessory.png,stimuli/Outdoor activity & sport item.png,stimuli/Electronic device & accessory.png,stimuli/Kitchen & utensil.png,1,1,1,stimuli/m5.jpg,Hand labour tool & accessory,stimuli/objects/jumpingjack.jpg,16,2021-05-08_14h05.08.359,premceCat2_ses-02_part-01_label-phase1,2020.2.9,MacIntel,60,,,,,,,,,,,,,,
1,[],,,,,,,,,,1,,,,,,stimuli/m2.jpg,stimuli/m5.jpg,2,stimuli/Electronic device & accessory.png,stimuli/Kitchen & utensil.png,stimuli/Hand labour tool & accessory.png,stimuli/Outdoor activity & sport item.png,2,0,2,stimuli/m5.jpg,Kitchen & utensil,stimuli/objects/woodenspoon.jpg,16,2021-05-08_14h05.08.359,premceCat2_ses-02_part-01_label-phase1,2020.2.9,MacIntel,60,2,1,1.24,0,0,0,0,1,,,,,,
1,[],,,,,,,,,,1,,,,,,stimuli/m2.jpg,stimuli/m5.jpg,1,stimuli/Kitchen & utensil.png,stimuli/Outdoor activity & sport item.png,stimuli/Electronic device & accessory.png,stimuli/Hand labour tool & accessory.png,2,1,2,stimuli/m2.jpg,Outdoor activity & sport item,stimuli/objects/ellipticalmachine.jpg,16,2021-05-08_14h05.08.359,premceCat2_ses-02_part-01_label-phase1,2020.2.9,MacIntel,60,2,1,1.302,0,1,1,1,1,,,,,,
0,[1],,,,,,,,,,1,,,,,,stimuli/m2.jpg,stimuli/m5.jpg,2,stimuli/Electronic device & accessory.png,stimuli/Hand labour tool & accessory.png,stimuli/Outdoor activity & sport item.png,stimuli/Kitchen & utensil.png,3,0,2,stimuli/m5.jpg,Outdoor activity & sport item,stimuli/objects/reflector.jpg,16,2021-05-08_14h05.08.359,premceCat2_ses-02_part-01_label-phase1,2020.2.9,MacIntel,60,4,0,0.873,0,2,2,2,1,,,,,,
0,[1],,,,,,,,,,0,,,,,,stimuli/m2.jpg,stimuli/m5.jpg,2,stimuli/Kitchen & utensil.png,stimuli/Hand labour tool & accessory.png,stimuli/Electronic device & accessory.png,stimuli/Outdoor activity & sport item.png,2,1,2,stimuli/m5.jpg,Hand labour tool & accessory,stimuli/objects/rope03.jpg,16,2021-05-08_14h05.08.359,premceCat2_ses-02_part-01_label-phase1,2020.2.9,MacIntel,60,1,0,1.133,0,3,3,3,1,,,,,,
0,"[1,0]",,,,,,,,,,0,,,,,,stimuli/m2.jpg,stimuli/m5.jpg,1,stimuli/Kitchen & utensil.png,stimuli/Hand labour tool & accessory.png,stimuli/Electronic device & accessory.png,stimuli/Outdoor activity & sport item.png,3,0,2,stimuli/m2.jpg,Electronic device & accessory,stimuli/objects/usbkey.jpg,16,2021-05-08_14h05.08.359,premceCat2_ses-02_part-01_label-phase1,2020.2.9,MacIntel,60,4,0,0.768,0,4,4,4,1,,,,,,
0,"[1,0]",,,,,,,,,,0,,,,,,stimuli/m5.jpg,stimuli/m2.jpg,2,stimuli/Hand labour tool & accessory.png,stimuli/Electronic device & accessory.png,stimuli/Kitchen & utensil.png,stimuli/Outdoor activity & sport item.png,4,1,2,stimuli/m2.jpg,Outdoor activity & sport item,stimuli/objects/sportbag.jpg,16,2021-05-08_14h05.08.359,premceCat2_ses-02_part-01_label-phase1,2020.2.9,MacIntel,60,2,0,0.752,0,5,5,5,1,,,,,,
0,"[1,0,0]",,,,,,,,,,0,,,,,,stimuli/m5.jpg,stimuli/m2.jpg,1,stimuli/Electronic device & accessory.png,stimuli/Outdoor activity & sport item.png,stimuli/Kitchen & utensil.png,stimuli/Hand labour tool & accessory.png,1,0,2,stimuli/m5.jpg,Electronic device & accessory,stimuli/objects/lamp04a.jpg,16,2021-05-08_14h05.08.359,premceCat2_ses-02_part-01_label-phase1,2020.2.9,MacIntel,60,2,0,1.318,0,6,6,6,1,,,,,,
0,"[1,0,0]",,,,,,,,,,0,,,,,,stimuli/m2.jpg,stimuli/m5.jpg,2,stimuli/Electronic device & accessory.png,stimuli/Kitchen & utensil.png,stimuli/Outdoor activity & sport item.png,stimuli/Hand labour tool & accessory.png,2,0,2,stimuli/m5.jpg,Kitchen & utensil,stimuli/objects/fryingpan02a.jpg,16,2021-05-08_14h05.08.359,premceCat2_ses-02_part-01_label-phase1,2020.2.9,MacIntel,60,1,0,1.101,0,7,7,7,1,,,,,,
0,"[1,0,0]",,,,,,,,,,0,,,,,,stimuli/m5.jpg,stimuli/m2.jpg,2,stimuli/Outdoor activity & sport item.png,stimuli/Hand labour tool & accessory.png,stimuli/Kitchen & utensil.png,stimuli/Electronic device & accessory.png,1,1,2,stimuli/m2.jpg,Outdoor activity & sport item,stimuli/objects/toyhockeystick01.jpg,16,2021-05-08_14h05.08.359,premceCat2_ses-02_part-01_label-phase1,2020.2.9,MacIntel,60,3,0,1.505,0,8,8,8,1,,,,,,
1,"[1,0,0,0]",,,,,,,,,,1,,,,,,stimuli/m2.jpg,stimuli/m5.jpg,1,stimuli/Electronic device & accessory.png,stimuli/Hand labour tool & accessory.png,stimuli/Kitchen & utensil.png,stimuli/Outdoor activity & sport item.png,4,1,2,stimuli/m2.jpg,Outdoor activity & sport item,stimuli/objects/fishinghook03.jpg,16,2021-05-08_14h05.08.359,premceCat2_ses-02_part-01_label-phase1,2020.2.9,MacIntel,60,4,1,0.919,0,9,9,9,1,,,,,,
1,"[1,0,0,0,1]",,,,,,,,,,1,,,,,,stimuli/m2.jpg,stimuli/m5.jpg,1,stimuli/Electronic device & accessory.png,stimuli/Outdoor activity & sport item.png,stimuli/Hand labour tool & accessory.png,stimuli/Kitchen & utensil.png,2,1,2,stimuli/m2.jpg,Outdoor activity & sport item,stimuli/objects/volleyball.jpg,16,2021-05-08_14h05.08.359,premceCat2_ses-02_part-01_label-phase1,2020.2.9,MacIntel,60,2,1,1.236,0,10,10,10,1,,,,,,
0,"[1,0,0,0,1,1]",,,,,,,,,,0,,,,,,stimuli/m5.jpg,stimuli/m2.jpg,1,stimuli/Electronic device & accessory.png,stimuli/Outdoor activity & sport item.png,stimuli/Hand labour tool & accessory.png,stimuli/Kitchen & utensil.png,3,1,2,stimuli/m5.jpg,Hand labour tool & accessory,stimuli/objects/gluetube.jpg,16,2021-05-08_14h05.08.359,premceCat2_ses-02_part-01_label-phase1,2020.2.9,MacIntel,60,1,0,0.971,0,11,11,11,1,,,,,,
1,"[1,0,0,0,1,1,0]",,,,,,,,,,1,,,,,,stimuli/m2.jpg,stimuli/m5.jpg,2,stimuli/Kitchen & utensil.png,stimuli/Hand labour tool & accessory.png,stimuli/Outdoor activity & sport item.png,stimuli/Electronic device & accessory.png,2,1,2,stimuli/m5.jpg,Hand labour tool & accessory,stimuli/objects/toyhardhat.jpg,16,2021-05-08_14h05.08.359,premceCat2_ses-02_part-01_label-phase1,2020.2.9,MacIntel,60,2,1,0.886,0,12,12,12,1,,,,,,
1,"[1,0,0,0,1,1,0,1]",,,,,,,,,,1,,,,,,stimuli/m5.jpg,stimuli/m2.jpg,2,stimuli/Kitchen & utensil.png,stimuli/Outdoor activity & sport item.png,stimuli/Hand labour tool & accessory.png,stimuli/Electronic device & accessory.png,2,1,2,stimuli/m2.jpg,Outdoor activity & sport item,stimuli/objects/cooler01.jpg,16,2021-05-08_14h05.08.359,premceCat2_ses-02_part-01_label-phase1,2020.2.9,MacIntel,60,2,1,1.216,0,13,13,13,1,,,,,,
0,"[1,0,0,0,1,1,0,1,1]",,,,,,,,,,1,,,,,,stimuli/m2.jpg,stimuli/m5.jpg,1,stimuli/Outdoor activity & sport item.png,stimuli/Kitchen & utensil.png,stimuli/Hand labour tool & accessory.png,stimuli/Electronic device & accessory.png,2,0,2,stimuli/m2.jpg,Kitchen & utensil,stimuli/objects/toothpick02.jpg,16,2021-05-08_14h05.08.359,premceCat2_ses-02_part-01_label-phase1,2020.2.9,MacIntel,60,1,0,0.902,0,14,14,14,1,,,,,,
0,"[1,0,0,0,1,1,0,1,1]",,,,,,,,,,1,,,,,,stimuli/m2.jpg,stimuli/m5.jpg,1,stimuli/Electronic device & accessory.png,stimuli/Hand labour tool & accessory.png,stimuli/Outdoor activity & sport item.png,stimuli/Kitchen & utensil.png,4,0,2,stimuli/m2.jpg,Kitchen & utensil,stimuli/objects/spatula04.jpg,16,2021-05-08_14h05.08.359,premceCat2_ses-02_part-01_label-phase1,2020.2.9,MacIntel,60,3,0,1.037,0,15,15,15,1,,,,,,
1,"[1,0,0,0,1,1,0,1,1]",,,,,,,,,,1,,,,,,stimuli/m5.jpg,stimuli/m2.jpg,1,stimuli/Kitchen & utensil.png,stimuli/Outdoor activity & sport item.png,stimuli/Hand labour tool & accessory.png,stimuli/Electronic device & accessory.png,3,1,2,stimuli/m5.jpg,Hand labour tool & accessory,stimuli/objects/saw02b.jpg,16,2021-05-08_14h05.08.359,premceCat2_ses-02_part-01_label-phase1,2020.2.9,MacIntel,60,3,1,1.953,0,16,16,16,1,,,,,,
0,"[1,0,0,0,1,1,0,1,1,1]",,,,,,,,,,1,,,,,,stimuli/m2.jpg,stimuli/m5.jpg,2,stimuli/Outdoor activity & sport item.png,stimuli/Electronic device & accessory.png,stimuli/Hand labour tool & accessory.png,stimuli/Kitchen & utensil.png,2,0,2,stimuli/m5.jpg,Electronic device & accessory,stimuli/objects/carantenna.jpg,16,2021-05-08_14h05.08.359,premceCat2_ses-02_part-01_label-phase1,2020.2.9,MacIntel,60,3,0,0.569,0,17,17,17,1,,,,,,
0,"[1,0,0,0,1,1,0,1,1,1]",,,,,,,,,,0,,,,,,stimuli/m5.jpg,stimuli/m2.jpg,2,stimuli/Electronic device & accessory.png,stimuli/Outdoor activity & sport item.png,stimuli/Kitchen & utensil.png,stimuli/Hand labour tool & accessory.png,2,1,2,stimuli/m2.jpg,Outdoor activity & sport item,stimuli/objects/canoepaddle02.jpg,16,2021-05-08_14h05.08.359,premceCat2_ses-02_part-01_label-phase1,2020.2.9,MacIntel,60,3,0,1.069,0,18,18,18,1,,,,,,
1,"[1,0,0,0,1,1,0,1,1,1,0]",,,,,,,,,,1,,,,,,stimuli/m2.jpg,stimuli/m5.jpg,2,stimuli/Hand labour tool & accessory.png,stimuli/Outdoor activity & sport item.png,stimuli/Kitchen & utensil.png,stimuli/Electronic device & accessory.png,1,1,2,stimuli/m5.jpg,Hand labour tool & accessory,stimuli/objects/snowshovel.jpg,16,2021-05-08_14h05.08.359,premceCat2_ses-02_part-01_label-phase1,2020.2.9,MacIntel,60,1,1,1.807,0,19,19,19,1,,,,,,
1,"[1,0,0,0,1,1,0,1,1,1,0,1]",,,,,,,,,,1,,,,,,stimuli/m2.jpg,stimuli/m5.jpg,1,stimuli/Hand labour tool & accessory.png,stimuli/Electronic device & accessory.png,stimuli/Outdoor activity & sport item.png,stimuli/Kitchen & utensil.png,3,1,2,stimuli/m2.jpg,Outdoor activity & sport item,stimuli/objects/surfboard.jpg,16,2021-05-08_14h05.08.359,premceCat2_ses-02_part-01_label-phase1,2020.2.9,MacIntel,60,3,1,0.887,0,20,20,20,1,,,,,,
1,"[1,0,0,0,1,1,0,1,1,1,0,1,1]",,,,,,,,,,1,,,,,,stimuli/m5.jpg,stimuli/m2.jpg,1,stimuli/Electronic device & accessory.png,stimuli/Kitchen & utensil.png,stimuli/Outdoor activity & sport item.png,stimuli/Hand labour tool & accessory.png,4,1,2,stimuli/m5.jpg,Hand labour tool & accessory,stimuli/objects/chainsaw.jpg,16,2021-05-08_14h05.08.359,premceCat2_ses-02_part-01_label-phase1,2020.2.9,MacIntel,60,4,1,1.903,0,21,21,21,1,,,,,,
1,"[1,0,0,0,1,1,0,1,1,1,0,1,1,1]",,,,,,,,,,1,,,,,,stimuli/m2.jpg,stimuli/m5.jpg,1,stimuli/Hand labour tool & accessory.png,stimuli/Kitchen & utensil.png,stimuli/Electronic device & accessory.png,stimuli/Outdoor activity & sport item.png,4,1,2,stimuli/m2.jpg,Outdoor activity & sport item,stimuli/objects/bikelock.jpg,16,2021-05-08_14h05.08.359,premceCat2_ses-02_part-01_label-phase1,2020.2.9,MacIntel,60,4,1,1.092,0,22,22,22,1,,,,,,
1,"[1,0,0,0,1,1,0,1,1,1,0,1,1,1,1]",,,,,,,,,,1,,,,,,stimuli/m2.jpg,stimuli/m5.jpg,2,stimuli/Kitchen & utensil.png,stimuli/Electronic device & accessory.png,stimuli/Hand labour tool & accessory.png,stimuli/Outdoor activity & sport item.png,3,1,2,stimuli/m5.jpg,Hand labour tool & accessory,stimuli/objects/lawnmower.jpg,16,2021-05-08_14h05.08.359,premceCat2_ses-02_part-01_label-phase1,2020.2.9,MacIntel,60,3,1,1.023,0,23,23,23,1,,,,,,
0,"[1,0,0,0,1,1,0,1,1,1,0,1,1,1,1,1]",,,,,,,,,,1,,,,,,stimuli/m5.jpg,stimuli/m2.jpg,2,stimuli/Electronic device & accessory.png,stimuli/Hand labour tool & accessory.png,stimuli/Kitchen & utensil.png,stimuli/Outdoor activity & sport item.png,1,0,2,stimuli/m2.jpg,Electronic device & accessory,stimuli/objects/fluorescentlightbulb.jpg,16,2021-05-08_14h05.08.359,premceCat2_ses-02_part-01_label-phase1,2020.2.9,MacIntel,60,4,0,0.734,0,24,24,24,1,,,,,,
0,"[1,0,0,0,1,1,0,1,1,1,0,1,1,1,1,1]",,,,,,,,,,0,,,,,,stimuli/m2.jpg,stimuli/m5.jpg,2,stimuli/Hand labour tool & accessory.png,stimuli/Outdoor activity & sport item.png,stimuli/Electronic device & accessory.png,stimuli/Kitchen & utensil.png,1,1,2,stimuli/m5.jpg,Hand labour tool & accessory,stimuli/objects/adjustablewrench01b.jpg,16,2021-05-08_14h05.08.359,premceCat2_ses-02_part-01_label-phase1,2020.2.9,MacIntel,60,3,0,0.926,0,25,25,25,1,,,,,,
1,"[1,0,0,0,1,1,0,1,1,1,0,1,1,1,1,1,0]",,,,,,,,,,1,,,,,,stimuli/m5.jpg,stimuli/m2.jpg,1,stimuli/Kitchen & utensil.png,stimuli/Hand labour tool & accessory.png,stimuli/Outdoor activity & sport item.png,stimuli/Electronic device & accessory.png,2,1,2,stimuli/m5.jpg,Hand labour tool & accessory,stimuli/objects/boltcutter.jpg,16,2021-05-08_14h05.08.359,premceCat2_ses-02_part-01_label-phase1,2020.2.9,MacIntel,60,2,1,0.755,0,26,26,26,1,,,,,,
1,"[1,0,0,0,1,1,0,1,1,1,0,1,1,1,1,1,0,1]",,,,,,,,,,1,,,,,,stimuli/m5.jpg,stimuli/m2.jpg,2,stimuli/Kitchen & utensil.png,stimuli/Hand labour tool & accessory.png,stimuli/Electronic device & accessory.png,stimuli/Outdoor activity & sport item.png,4,1,2,stimuli/m2.jpg,Outdoor activity & sport item,stimuli/objects/fishingrod.jpg,16,2021-05-08_14h05.08.359,premceCat2_ses-02_part-01_label-phase1,2020.2.9,MacIntel,60,4,1,0.554,0,27,27,27,1,,,,,,
1,"[1,0,0,0,1,1,0,1,1,1,0,1,1,1,1,1,0,1,1]",,,,,,,,,,1,,,,,,stimuli/m2.jpg,stimuli/m5.jpg,1,stimuli/Hand labour tool & accessory.png,stimuli/Kitchen & utensil.png,stimuli/Outdoor activity & sport item.png,stimuli/Electronic device & accessory.png,3,1,2,stimuli/m2.jpg,Outdoor activity & sport item,stimuli/objects/swimgoggles.jpg,16,2021-05-08_14h05.08.359,premceCat2_ses-02_part-01_label-phase1,2020.2.9,MacIntel,60,3,1,1.084,0,28,28,28,1,,,,,,
1,"[1,0,0,0,1,1,0,1,1,1,0,1,1,1,1,1,0,1,1,1]",,,,,,,,,,1,,,,,,stimuli/m5.jpg,stimuli/m2.jpg,2,stimuli/Electronic device & accessory.png,stimuli/Outdoor activity & sport item.png,stimuli/Hand labour tool & accessory.png,stimuli/Kitchen & utensil.png,2,1,2,stimuli/m2.jpg,Outdoor activity & sport item,stimuli/objects/outdoorheater.jpg,16,2021-05-08_14h05.08.359,premceCat2_ses-02_part-01_label-phase1,2020.2.9,MacIntel,60,2,1,0.754,0,29,29,29,1,,,,,,
1,"[1,0,0,0,1,1,0,1,1,1,0,1,1,1,1,1,0,1,1,1,1]",,,,,,,,,,1,,,,,,stimuli/m2.jpg,stimuli/m5.jpg,2,stimuli/Kitchen & utensil.png,stimuli/Outdoor activity & sport item.png,stimuli/Electronic device & accessory.png,stimuli/Hand labour tool & accessory.png,4,1,2,stimuli/m5.jpg,Hand labour tool & accessory,stimuli/objects/aircompressor.jpg,16,2021-05-08_14h05.08.359,premceCat2_ses-02_part-01_label-phase1,2020.2.9,MacIntel,60,4,1,0.667,0,30,30,30,1,,,,,,
1,"[1,0,0,0,1,1,0,1,1,1,0,1,1,1,1,1,0,1,1,1,1,1]",,,,,,,,,,1,,,,,,stimuli/m2.jpg,stimuli/m5.jpg,2,stimuli/Hand labour tool & accessory.png,stimuli/Kitchen & utensil.png,stimuli/Outdoor activity & sport item.png,stimuli/Electronic device & accessory.png,1,1,2,stimuli/m5.jpg,Hand labour tool & accessory,stimuli/objects/flooringstapler.jpg,16,2021-05-08_14h05.08.359,premceCat2_ses-02_part-01_label-phase1,2020.2.9,MacIntel,60,1,1,1.702,0,31,31,31,1,,,,,,
0,"[1,0,0,0,1,1,0,1,1,1,0,1,1,1,1,1,0,1,1,1,1,1,1]",,,,,,,,,,1,,,,,,stimuli/m5.jpg,stimuli/m2.jpg,2,stimuli/Kitchen & utensil.png,stimuli/Hand labour tool & accessory.png,stimuli/Outdoor activity & sport item.png,stimuli/Electronic device & accessory.png,2,0,2,stimuli/m2.jpg,Hand labour tool & accessory,stimuli/objects/hedgeshears.jpg,16,2021-05-08_14h05.08.359,premceCat2_ses-02_part-01_label-phase1,2020.2.9,MacIntel,60,3,0,1.001,0,32,32,32,1,,,,,,
1,"[1,0,0,0,1,1,0,1,1,1,0,1,1,1,1,1,0,1,1,1,1,1,1]",,,,,,,,,,1,,,,,,stimuli/m5.jpg,stimuli/m2.jpg,1,stimuli/Outdoor activity & sport item.png,stimuli/Hand labour tool & accessory.png,stimuli/Kitchen & utensil.png,stimuli/Electronic device & accessory.png,2,1,2,stimuli/m5.jpg,Hand labour tool & accessory,stimuli/objects/sledgehammer.jpg,16,2021-05-08_14h05.08.359,premceCat2_ses-02_part-01_label-phase1,2020.2.9,MacIntel,60,2,1,2.405,0,33,33,33,1,,,,,,
1,"[1,0,0,0,1,1,0,1,1,1,0,1,1,1,1,1,0,1,1,1,1,1,1,1]",,,,,,,,,,1,,,,,,stimuli/m5.jpg,stimuli/m2.jpg,1,stimuli/Electronic device & accessory.png,stimuli/Hand labour tool & accessory.png,stimuli/Kitchen & utensil.png,stimuli/Outdoor activity & sport item.png,2,1,2,stimuli/m5.jpg,Hand labour tool & accessory,stimuli/objects/mallet01b.jpg,16,2021-05-08_14h05.08.359,premceCat2_ses-02_part-01_label-phase1,2020.2.9,MacIntel,60,2,1,0.984,0,34,34,34,1,,,,,,
0,"[1,0,0,0,1,1,0,1,1,1,0,1,1,1,1,1,0,1,1,1,1,1,1,1,1]",,,,,,,,,,1,,,,,,stimuli/m5.jpg,stimuli/m2.jpg,1,stimuli/Outdoor activity & sport item.png,stimuli/Hand labour tool & accessory.png,stimuli/Electronic device & accessory.png,stimuli/Kitchen & utensil.png,1,0,2,stimuli/m5.jpg,Outdoor activity & sport item,stimuli/objects/skiboot01a.jpg,16,2021-05-08_14h05.08.359,premceCat2_ses-02_part-01_label-phase1,2020.2.9,MacIntel,60,2,0,0.685,0,35,35,35,1,,,,,,
1,"[1,0,0,0,1,1,0,1,1,1,0,1,1,1,1,1,0,1,1,1,1,1,1,1,1]",,,,,,,,,,1,,,,,,stimuli/m2.jpg,stimuli/m5.jpg,1,stimuli/Outdoor activity & sport item.png,stimuli/Electronic device & accessory.png,stimuli/Kitchen & utensil.png,stimuli/Hand labour tool & accessory.png,1,1,2,stimuli/m2.jpg,Outdoor activity & sport item,stimuli/objects/badmintonracket.jpg,16,2021-05-08_14h05.08.359,premceCat2_ses-02_part-01_label-phase1,2020.2.9,MacIntel,60,1,1,1.069,0,36,36,36,1,,,,,,
1,"[1,0,0,0,1,1,0,1,1,1,0,1,1,1,1,1,0,1,1,1,1,1,1,1,1,1]",,,,,,,,,,1,,,,,,stimuli/m5.jpg,stimuli/m2.jpg,2,stimuli/Hand labour tool & accessory.png,stimuli/Outdoor activity & sport item.png,stimuli/Kitchen & utensil.png,stimuli/Electronic device & accessory.png,2,1,2,stimuli/m2.jpg,Outdoor activity & sport item,stimuli/objects/propanetank01.jpg,16,2021-05-08_14h05.08.359,premceCat2_ses-02_part-01_label-phase1,2020.2.9,MacIntel,60,2,1,0.651,0,37,37,37,1,,,,,,
1,"[1,0,0,0,1,1,0,1,1,1,0,1,1,1,1,1,0,1,1,1,1,1,1,1,1,1,1]",,,,,,,,,,1,,,,,,stimuli/m5.jpg,stimuli/m2.jpg,2,stimuli/Outdoor activity & sport item.png,stimuli/Electronic device & accessory.png,stimuli/Hand labour tool & accessory.png,stimuli/Kitchen & utensil.png,1,1,2,stimuli/m2.jpg,Outdoor activity & sport item,stimuli/objects/exercisebike.jpg,16,2021-05-08_14h05.08.359,premceCat2_ses-02_part-01_label-phase1,2020.2.9,MacIntel,60,1,1,0.72,0,38,38,38,1,,,,,,
1,"[1,0,0,0,1,1,0,1,1,1,0,1,1,1,1,1,0,1,1,1,1,1,1,1,1,1,1,1]",,,,,,,,,,1,,,,,,stimuli/m2.jpg,stimuli/m5.jpg,1,stimuli/Hand labour tool & accessory.png,stimuli/Outdoor activity & sport item.png,stimuli/Electronic device & accessory.png,stimuli/Kitchen & utensil.png,2,1,2,stimuli/m2.jpg,Outdoor activity & sport item,stimuli/objects/weight01.jpg,16,2021-05-08_14h05.08.359,premceCat2_ses-02_part-01_label-phase1,2020.2.9,MacIntel,60,2,1,0.654,0,39,39,39,1,,,,,,
1,"[1,0,0,0,1,1,0,1,1,1,0,1,1,1,1,1,0,1,1,1,1,1,1,1,1,1,1,1,1]",,,,,,,,,,1,,,,,,stimuli/m5.jpg,stimuli/m2.jpg,1,stimuli/Outdoor activity & sport item.png,stimuli/Electronic device & accessory.png,stimuli/Kitchen & utensil.png,stimuli/Hand labour tool & accessory.png,4,1,2,stimuli/m5.jpg,Hand labour tool & accessory,stimuli/objects/puttyknife.jpg,16,2021-05-08_14h05.08.359,premceCat2_ses-02_part-01_label-phase1,2020.2.9,MacIntel,60,4,1,0.789,0,40,40,40,1,,,,,,
0,"[1,0,0,0,1,1,0,1,1,1,0,1,1,1,1,1,0,1,1,1,1,1,1,1,1,1,1,1,1,1]",,,,,,,,,,1,,,,,,stimuli/m2.jpg,stimuli/m5.jpg,1,stimuli/Kitchen & utensil.png,stimuli/Hand labour tool & accessory.png,stimuli/Outdoor activity & sport item.png,stimuli/Electronic device & accessory.png,2,0,2,stimuli/m2.jpg,Hand labour tool & accessory,stimuli/objects/level03a.jpg,16,2021-05-08_14h05.08.359,premceCat2_ses-02_part-01_label-phase1,2020.2.9,MacIntel,60,3,0,0.604,0,41,41,41,1,,,,,,
1,"[1,0,0,0,1,1,0,1,1,1,0,1,1,1,1,1,0,1,1,1,1,1,1,1,1,1,1,1,1,1]",,,,,,,,,,1,,,,,,stimuli/m2.jpg,stimuli/m5.jpg,2,stimuli/Outdoor activity & sport item.png,stimuli/Hand labour tool & accessory.png,stimuli/Kitchen & utensil.png,stimuli/Electronic device & accessory.png,2,1,2,stimuli/m5.jpg,Hand labour tool & accessory,stimuli/objects/bungeecord02.jpg,16,2021-05-08_14h05.08.359,premceCat2_ses-02_part-01_label-phase1,2020.2.9,MacIntel,60,2,1,1.702,0,42,42,42,1,,,,,,
1,"[1,0,0,0,1,1,0,1,1,1,0,1,1,1,1,1,0,1,1,1,1,1,1,1,1,1,1,1,1,1,1]",,,,,,,,,,1,,,,,,stimuli/m5.jpg,stimuli/m2.jpg,2,stimuli/Electronic device & accessory.png,stimuli/Kitchen & utensil.png,stimuli/Outdoor activity & sport item.png,stimuli/Hand labour tool & accessory.png,3,1,2,stimuli/m2.jpg,Outdoor activity & sport item,stimuli/objects/patioumbrella.jpg,16,2021-05-08_14h05.08.359,premceCat2_ses-02_part-01_label-phase1,2020.2.9,MacIntel,60,3,1,0.839,0,43,43,43,1,,,,,,
1,"[1,0,0,0,1,1,0,1,1,1,0,1,1,1,1,1,0,1,1,1,1,1,1,1,1,1,1,1,1,1,1,1]",,,,,,,,,,1,,,,,,stimuli/m2.jpg,stimuli/m5.jpg,2,stimuli/Outdoor activity & sport item.png,stimuli/Electronic device & accessory.png,stimuli/Kitchen & utensil.png,stimuli/Hand labour tool & accessory.png,4,1,2,stimuli/m5.jpg,Hand labour tool & accessory,stimuli/objects/wateringcan.jpg,16,2021-05-08_14h05.08.359,premceCat2_ses-02_part-01_label-phase1,2020.2.9,MacIntel,60,4,1,1.335,0,44,44,44,1,,,,,,
1,"[1,0,0,0,1,1,0,1,1,1,0,1,1,1,1,1,0,1,1,1,1,1,1,1,1,1,1,1,1,1,1,1,1]",,,,,,,,,,1,,,,,,stimuli/m2.jpg,stimuli/m5.jpg,2,stimuli/Electronic device & accessory.png,stimuli/Hand labour tool & accessory.png,stimuli/Kitchen & utensil.png,stimuli/Outdoor activity & sport item.png,2,1,2,stimuli/m5.jpg,Hand labour tool & accessory,stimuli/objects/bucket02.jpg,16,2021-05-08_14h05.08.359,premceCat2_ses-02_part-01_label-phase1,2020.2.9,MacIntel,60,2,1,1.105,0,45,45,45,1,,,,,,
1,"[1,0,0,0,1,1,0,1,1,1,0,1,1,1,1,1,0,1,1,1,1,1,1,1,1,1,1,1,1,1,1,1,1,1]",,,,,,,,,,1,,,,,,stimuli/m5.jpg,stimuli/m2.jpg,2,stimuli/Electronic device & accessory.png,stimuli/Kitchen & utensil.png,stimuli/Hand labour tool & accessory.png,stimuli/Outdoor activity & sport item.png,4,1,2,stimuli/m2.jpg,Outdoor activity & sport item,stimuli/objects/soccerball.jpg,16,2021-05-08_14h05.08.359,premceCat2_ses-02_part-01_label-phase1,2020.2.9,MacIntel,60,4,1,0.886,0,46,46,46,1,,,,,,
1,"[1,0,0,0,1,1,0,1,1,1,0,1,1,1,1,1,0,1,1,1,1,1,1,1,1,1,1,1,1,1,1,1,1,1,1]",,,,,,,,,,1,,,,,,stimuli/m5.jpg,stimuli/m2.jpg,1,stimuli/Hand labour tool & accessory.png,stimuli/Electronic device & accessory.png,stimuli/Kitchen & utensil.png,stimuli/Outdoor activity & sport item.png,1,1,2,stimuli/m5.jpg,Hand labour tool & accessory,stimuli/objects/wheel01.jpg,16,2021-05-08_14h05.08.359,premceCat2_ses-02_part-01_label-phase1,2020.2.9,MacIntel,60,1,1,0.987,0,47,47,47,1,,,,,,
,,,,,,,,,,,,,,,,,,,,,,,,,,,,,,16,2021-05-08_14h05.08.359,premceCat2_ses-02_part-01_label-phase1,2020.2.9,MacIntel,60,,,,,,,,,0,0,0,0,1,condition_files/tasklistAplus1.csv
0,"[1,0,0,0,1,1,0,1,1,1,0,1,1,1,1,1,0,1,1,1,1,1,1,1,1,1,1,1,1,1,1,1,1,1,1,1]",,,,,,,,,,0,,,,,,stimuli/m2.jpg,stimuli/m5.jpg,2,stimuli/Outdoor activity & sport item.png,stimuli/Hand labour tool & accessory.png,stimuli/Electronic device & accessory.png,stimuli/Kitchen & utensil.png,4,1,3,stimuli/m5.jpg,Kitchen & utensil,stimuli/objects/measuringcup01.jpg,16,2021-05-08_14h05.08.359,premceCat2_ses-02_part-01_label-phase1,2020.2.9,MacIntel,60,2,0,0.87,0,0,0,0,1,,,,,,
0,"[1,0,0,0,1,1,0,1,1,1,0,1,1,1,1,1,0,1,1,1,1,1,1,1,1,1,1,1,1,1,1,1,1,1,1,1,0]",,,,,,,,,,0,,,,,,stimuli/m5.jpg,stimuli/m2.jpg,1,stimuli/Electronic device & accessory.png,stimuli/Kitchen & utensil.png,stimuli/Outdoor activity & sport item.png,stimuli/Hand labour tool & accessory.png,2,1,3,stimuli/m5.jpg,Kitchen & utensil,stimuli/objects/watercooler.jpg,16,2021-05-08_14h05.08.359,premceCat2_ses-02_part-01_label-phase1,2020.2.9,MacIntel,60,4,0,1.505,0,1,1,1,1,,,,,,
0,"[1,0,0,0,1,1,0,1,1,1,0,1,1,1,1,1,0,1,1,1,1,1,1,1,1,1,1,1,1,1,1,1,1,1,1,1,0,0]",,,,,,,,,,0,,,,,,stimuli/m5.jpg,stimuli/m2.jpg,1,stimuli/Hand labour tool & accessory.png,stimuli/Kitchen & utensil.png,stimuli/Electronic device & accessory.png,stimuli/Outdoor activity & sport item.png,4,0,3,stimuli/m5.jpg,Outdoor activity & sport item,stimuli/objects/hockeygoalieglove.jpg,16,2021-05-08_14h05.08.359,premceCat2_ses-02_part-01_label-phase1,2020.2.9,MacIntel,60,2,0,0.934,0,2,2,2,1,,,,,,
0,"[1,0,0,0,1,1,0,1,1,1,0,1,1,1,1,1,0,1,1,1,1,1,1,1,1,1,1,1,1,1,1,1,1,1,1,1,0,0]",,,,,,,,,,0,,,,,,stimuli/m5.jpg,stimuli/m2.jpg,1,stimuli/Electronic device & accessory.png,stimuli/Outdoor activity & sport item.png,stimuli/Hand labour tool & accessory.png,stimuli/Kitchen & utensil.png,4,1,3,stimuli/m5.jpg,Kitchen & utensil,stimuli/objects/cowbell.jpg,16,2021-05-08_14h05.08.359,premceCat2_ses-02_part-01_label-phase1,2020.2.9,MacIntel,60,3,0,1.07,0,3,3,3,1,,,,,,
0,"[1,0,0,0,1,1,0,1,1,1,0,1,1,1,1,1,0,1,1,1,1,1,1,1,1,1,1,1,1,1,1,1,1,1,1,1,0,0,0]",,,,,,,,,,0,,,,,,stimuli/m2.jpg,stimuli/m5.jpg,1,stimuli/Hand labour tool & accessory.png,stimuli/Electronic device & accessory.png,stimuli/Outdoor activity & sport item.png,stimuli/Kitchen & utensil.png,2,1,3,stimuli/m2.jpg,Electronic device & accessory,stimuli/objects/videocamera01a.jpg,16,2021-05-08_14h05.08.359,premceCat2_ses-02_part-01_label-phase1,2020.2.9,MacIntel,60,3,0,1.004,0,4,4,4,1,,,,,,
0,"[1,0,0,0,1,1,0,1,1,1,0,1,1,1,1,1,0,1,1,1,1,1,1,1,1,1,1,1,1,1,1,1,1,1,1,1,0,0,0,0]",,,,,,,,,,0,,,,,,stimuli/m2.jpg,stimuli/m5.jpg,2,stimuli/Hand labour tool & accessory.png,stimuli/Kitchen & utensil.png,stimuli/Electronic device & accessory.png,stimuli/Outdoor activity & sport item.png,2,1,3,stimuli/m5.jpg,Kitchen & utensil,stimuli/objects/shotglass.jpg,16,2021-05-08_14h05.08.359,premceCat2_ses-02_part-01_label-phase1,2020.2.9,MacIntel,60,1,0,1.22,0,5,5,5,1,,,,,,
1,"[1,0,0,0,1,1,0,1,1,1,0,1,1,1,1,1,0,1,1,1,1,1,1,1,1,1,1,1,1,1,1,1,1,1,1,1,0,0,0,0,0]",,,,,,,,,,1,,,,,,stimuli/m5.jpg,stimuli/m2.jpg,2,stimuli/Electronic device & accessory.png,stimuli/Kitchen & utensil.png,stimuli/Hand labour tool & accessory.png,stimuli/Outdoor activity & sport item.png,1,1,3,stimuli/m2.jpg,Electronic device & accessory,stimuli/objects/atm.jpg,16,2021-05-08_14h05.08.359,premceCat2_ses-02_part-01_label-phase1,2020.2.9,MacIntel,60,1,1,1.037,0,6,6,6,1,,,,,,
1,"[1,0,0,0,1,1,0,1,1,1,0,1,1,1,1,1,0,1,1,1,1,1,1,1,1,1,1,1,1,1,1,1,1,1,1,1,0,0,0,0,0,1]",,,,,,,,,,1,,,,,,stimuli/m2.jpg,stimuli/m5.jpg,2,stimuli/Outdoor activity & sport item.png,stimuli/Hand labour tool & accessory.png,stimuli/Kitchen & utensil.png,stimuli/Electronic device & accessory.png,3,1,3,stimuli/m5.jpg,Kitchen & utensil,stimuli/objects/handmixer01d.jpg,16,2021-05-08_14h05.08.359,premceCat2_ses-02_part-01_label-phase1,2020.2.9,MacIntel,60,3,1,0.654,0,7,7,7,1,,,,,,
0,"[1,0,0,0,1,1,0,1,1,1,0,1,1,1,1,1,0,1,1,1,1,1,1,1,1,1,1,1,1,1,1,1,1,1,1,1,0,0,0,0,0,1,1]",,,,,,,,,,1,,,,,,stimuli/m5.jpg,stimuli/m2.jpg,2,stimuli/Kitchen & utensil.png,stimuli/Outdoor activity & sport item.png,stimuli/Hand labour tool & accessory.png,stimuli/Electronic device & accessory.png,2,0,3,stimuli/m2.jpg,Outdoor activity & sport item,stimuli/objects/hockeygoaliepad.jpg,16,2021-05-08_14h05.08.359,premceCat2_ses-02_part-01_label-phase1,2020.2.9,MacIntel,60,4,0,1.158,0,8,8,8,1,,,,,,
1,"[1,0,0,0,1,1,0,1,1,1,0,1,1,1,1,1,0,1,1,1,1,1,1,1,1,1,1,1,1,1,1,1,1,1,1,1,0,0,0,0,0,1,1]",,,,,,,,,,1,,,,,,stimuli/m5.jpg,stimuli/m2.jpg,1,stimuli/Outdoor activity & sport item.png,stimuli/Hand labour tool & accessory.png,stimuli/Kitchen & utensil.png,stimuli/Electronic device & accessory.png,3,1,3,stimuli/m5.jpg,Kitchen & utensil,stimuli/objects/coffeepot03a.jpg,16,2021-05-08_14h05.08.359,premceCat2_ses-02_part-01_label-phase1,2020.2.9,MacIntel,60,3,1,0.619,0,9,9,9,1,,,,,,
0,"[1,0,0,0,1,1,0,1,1,1,0,1,1,1,1,1,0,1,1,1,1,1,1,1,1,1,1,1,1,1,1,1,1,1,1,1,0,0,0,0,0,1,1,1]",,,,,,,,,,1,,,,,,stimuli/m5.jpg,stimuli/m2.jpg,2,stimuli/Kitchen & utensil.png,stimuli/Hand labour tool & accessory.png,stimuli/Electronic device & accessory.png,stimuli/Outdoor activity & sport item.png,2,0,3,stimuli/m2.jpg,Hand labour tool & accessory,stimuli/objects/pliers02b.jpg,16,2021-05-08_14h05.08.359,premceCat2_ses-02_part-01_label-phase1,2020.2.9,MacIntel,60,3,0,1.322,0,10,10,10,1,,,,,,
1,"[1,0,0,0,1,1,0,1,1,1,0,1,1,1,1,1,0,1,1,1,1,1,1,1,1,1,1,1,1,1,1,1,1,1,1,1,0,0,0,0,0,1,1,1]",,,,,,,,,,1,,,,,,stimuli/m5.jpg,stimuli/m2.jpg,2,stimuli/Outdoor activity & sport item.png,stimuli/Hand labour tool & accessory.png,stimuli/Electronic device & accessory.png,stimuli/Kitchen & utensil.png,3,1,3,stimuli/m2.jpg,Electronic device & accessory,stimuli/objects/fan.jpg,16,2021-05-08_14h05.08.359,premceCat2_ses-02_part-01_label-phase1,2020.2.9,MacIntel,60,3,1,0.87,0,11,11,11,1,,,,,,
1,"[1,0,0,0,1,1,0,1,1,1,0,1,1,1,1,1,0,1,1,1,1,1,1,1,1,1,1,1,1,1,1,1,1,1,1,1,0,0,0,0,0,1,1,1,1]",,,,,,,,,,1,,,,,,stimuli/m5.jpg,stimuli/m2.jpg,2,stimuli/Kitchen & utensil.png,stimuli/Hand labour tool & accessory.png,stimuli/Outdoor activity & sport item.png,stimuli/Electronic device & accessory.png,4,1,3,stimuli/m2.jpg,Electronic device & accessory,stimuli/objects/extensioncord.jpg,16,2021-05-08_14h05.08.359,premceCat2_ses-02_part-01_label-phase1,2020.2.9,MacIntel,60,4,1,1.121,0,12,12,12,1,,,,,,
0,"[1,0,0,0,1,1,0,1,1,1,0,1,1,1,1,1,0,1,1,1,1,1,1,1,1,1,1,1,1,1,1,1,1,1,1,1,0,0,0,0,0,1,1,1,1,1]",,,,,,,,,,1,,,,,,stimuli/m2.jpg,stimuli/m5.jpg,2,stimuli/Electronic device & accessory.png,stimuli/Hand labour tool & accessory.png,stimuli/Kitchen & utensil.png,stimuli/Outdoor activity & sport item.png,1,0,3,stimuli/m5.jpg,Electronic device & accessory,stimuli/objects/computerkeyboard02.jpg,16,2021-05-08_14h05.08.359,premceCat2_ses-02_part-01_label-phase1,2020.2.9,MacIntel,60,3,0,0.835,0,13,13,13,1,,,,,,
1,"[1,0,0,0,1,1,0,1,1,1,0,1,1,1,1,1,0,1,1,1,1,1,1,1,1,1,1,1,1,1,1,1,1,1,1,1,0,0,0,0,0,1,1,1,1,1]",,,,,,,,,,1,,,,,,stimuli/m2.jpg,stimuli/m5.jpg,1,stimuli/Outdoor activity & sport item.png,stimuli/Hand labour tool & accessory.png,stimuli/Kitchen & utensil.png,stimuli/Electronic device & accessory.png,4,1,3,stimuli/m2.jpg,Electronic device & accessory,stimuli/objects/headphones02b.jpg,16,2021-05-08_14h05.08.359,premceCat2_ses-02_part-01_label-phase1,2020.2.9,MacIntel,60,4,1,0.602,0,14,14,14,1,,,,,,
1,"[1,0,0,0,1,1,0,1,1,1,0,1,1,1,1,1,0,1,1,1,1,1,1,1,1,1,1,1,1,1,1,1,1,1,1,1,0,0,0,0,0,1,1,1,1,1,1]",,,,,,,,,,1,,,,,,stimuli/m5.jpg,stimuli/m2.jpg,2,stimuli/Outdoor activity & sport item.png,stimuli/Kitchen & utensil.png,stimuli/Hand labour tool & accessory.png,stimuli/Electronic device & accessory.png,4,1,3,stimuli/m2.jpg,Electronic device & accessory,stimuli/objects/coffeemachine.jpg,16,2021-05-08_14h05.08.359,premceCat2_ses-02_part-01_label-phase1,2020.2.9,MacIntel,60,4,1,1.121,0,15,15,15,1,,,,,,
0,"[1,0,0,0,1,1,0,1,1,1,0,1,1,1,1,1,0,1,1,1,1,1,1,1,1,1,1,1,1,1,1,1,1,1,1,1,0,0,0,0,0,1,1,1,1,1,1,1]",,,,,,,,,,1,,,,,,stimuli/m2.jpg,stimuli/m5.jpg,1,stimuli/Kitchen & utensil.png,stimuli/Hand labour tool & accessory.png,stimuli/Electronic device & accessory.png,stimuli/Outdoor activity & sport item.png,2,0,3,stimuli/m2.jpg,Hand labour tool & accessory,stimuli/objects/snowblower.jpg,16,2021-05-08_14h05.08.359,premceCat2_ses-02_part-01_label-phase1,2020.2.9,MacIntel,60,3,0,0.817,0,16,16,16,1,,,,,,
1,"[1,0,0,0,1,1,0,1,1,1,0,1,1,1,1,1,0,1,1,1,1,1,1,1,1,1,1,1,1,1,1,1,1,1,1,1,0,0,0,0,0,1,1,1,1,1,1,1]",,,,,,,,,,1,,,,,,stimuli/m5.jpg,stimuli/m2.jpg,2,stimuli/Outdoor activity & sport item.png,stimuli/Electronic device & accessory.png,stimuli/Hand labour tool & accessory.png,stimuli/Kitchen & utensil.png,2,1,3,stimuli/m2.jpg,Electronic device & accessory,stimuli/objects/airconditioner.jpg,16,2021-05-08_14h05.08.359,premceCat2_ses-02_part-01_label-phase1,2020.2.9,MacIntel,60,2,1,0.986,0,17,17,17,1,,,,,,
1,"[1,0,0,0,1,1,0,1,1,1,0,1,1,1,1,1,0,1,1,1,1,1,1,1,1,1,1,1,1,1,1,1,1,1,1,1,0,0,0,0,0,1,1,1,1,1,1,1,1]",,,,,,,,,,1,,,,,,stimuli/m5.jpg,stimuli/m2.jpg,1,stimuli/Electronic device & accessory.png,stimuli/Hand labour tool & accessory.png,stimuli/Outdoor activity & sport item.png,stimuli/Kitchen & utensil.png,4,1,3,stimuli/m5.jpg,Kitchen & utensil,stimuli/objects/waterbottle03.jpg,16,2021-05-08_14h05.08.359,premceCat2_ses-02_part-01_label-phase1,2020.2.9,MacIntel,60,4,1,1.236,0,18,18,18,1,,,,,,
1,"[1,0,0,0,1,1,0,1,1,1,0,1,1,1,1,1,0,1,1,1,1,1,1,1,1,1,1,1,1,1,1,1,1,1,1,1,0,0,0,0,0,1,1,1,1,1,1,1,1,1]",,,,,,,,,,1,,,,,,stimuli/m2.jpg,stimuli/m5.jpg,1,stimuli/Kitchen & utensil.png,stimuli/Outdoor activity & sport item.png,stimuli/Hand labour tool & accessory.png,stimuli/Electronic device & accessory.png,4,1,3,stimuli/m2.jpg,Electronic device & accessory,stimuli/objects/lightbulb01.jpg,16,2021-05-08_14h05.08.359,premceCat2_ses-02_part-01_label-phase1,2020.2.9,MacIntel,60,4,1,1.02,0,19,19,19,1,,,,,,
1,"[1,0,0,0,1,1,0,1,1,1,0,1,1,1,1,1,0,1,1,1,1,1,1,1,1,1,1,1,1,1,1,1,1,1,1,1,0,0,0,0,0,1,1,1,1,1,1,1,1,1,1]",,,,,,,,,,1,,,,,,stimuli/m5.jpg,stimuli/m2.jpg,2,stimuli/Electronic device & accessory.png,stimuli/Hand labour tool & accessory.png,stimuli/Kitchen & utensil.png,stimuli/Outdoor activity & sport item.png,1,1,3,stimuli/m2.jpg,Electronic device & accessory,stimuli/objects/phonejack.jpg,16,2021-05-08_14h05.08.359,premceCat2_ses-02_part-01_label-phase1,2020.2.9,MacIntel,60,1,1,1.104,0,20,20,20,1,,,,,,
1,"[1,0,0,0,1,1,0,1,1,1,0,1,1,1,1,1,0,1,1,1,1,1,1,1,1,1,1,1,1,1,1,1,1,1,1,1,0,0,0,0,0,1,1,1,1,1,1,1,1,1,1,1]",,,,,,,,,,1,,,,,,stimuli/m2.jpg,stimuli/m5.jpg,2,stimuli/Hand labour tool & accessory.png,stimuli/Kitchen & utensil.png,stimuli/Outdoor activity & sport item.png,stimuli/Electronic device & accessory.png,2,1,3,stimuli/m5.jpg,Kitchen & utensil,stimuli/objects/bottlecap.jpg,16,2021-05-08_14h05.08.359,premceCat2_ses-02_part-01_label-phase1,2020.2.9,MacIntel,60,2,1,0.971,0,21,21,21,1,,,,,,
1,"[1,0,0,0,1,1,0,1,1,1,0,1,1,1,1,1,0,1,1,1,1,1,1,1,1,1,1,1,1,1,1,1,1,1,1,1,0,0,0,0,0,1,1,1,1,1,1,1,1,1,1,1,1]",,,,,,,,,,1,,,,,,stimuli/m2.jpg,stimuli/m5.jpg,2,stimuli/Electronic device & accessory.png,stimuli/Hand labour tool & accessory.png,stimuli/Outdoor activity & sport item.png,stimuli/Kitchen & utensil.png,4,1,3,stimuli/m5.jpg,Kitchen & utensil,stimuli/objects/contactlens.jpg,16,2021-05-08_14h05.08.359,premceCat2_ses-02_part-01_label-phase1,2020.2.9,MacIntel,60,4,1,0.819,0,22,22,22,1,,,,,,
1,"[1,0,0,0,1,1,0,1,1,1,0,1,1,1,1,1,0,1,1,1,1,1,1,1,1,1,1,1,1,1,1,1,1,1,1,1,0,0,0,0,0,1,1,1,1,1,1,1,1,1,1,1,1,1]",,,,,,,,,,1,,,,,,stimuli/m2.jpg,stimuli/m5.jpg,1,stimuli/Electronic device & accessory.png,stimuli/Outdoor activity & sport item.png,stimuli/Hand labour tool & accessory.png,stimuli/Kitchen & utensil.png,1,1,3,stimuli/m2.jpg,Electronic device & accessory,stimuli/objects/usbcable01a.jpg,16,2021-05-08_14h05.08.359,premceCat2_ses-02_part-01_label-phase1,2020.2.9,MacIntel,60,1,1,0.854,0,23,23,23,1,,,,,,
1,"[1,0,0,0,1,1,0,1,1,1,0,1,1,1,1,1,0,1,1,1,1,1,1,1,1,1,1,1,1,1,1,1,1,1,1,1,0,0,0,0,0,1,1,1,1,1,1,1,1,1,1,1,1,1,1]",,,,,,,,,,1,,,,,,stimuli/m2.jpg,stimuli/m5.jpg,2,stimuli/Outdoor activity & sport item.png,stimuli/Electronic device & accessory.png,stimuli/Hand labour tool & accessory.png,stimuli/Kitchen & utensil.png,4,1,3,stimuli/m5.jpg,Kitchen & utensil,stimuli/objects/towel01.jpg,16,2021-05-08_14h05.08.359,premceCat2_ses-02_part-01_label-phase1,2020.2.9,MacIntel,60,4,1,0.602,0,24,24,24,1,,,,,,
0,"[1,0,0,0,1,1,0,1,1,1,0,1,1,1,1,1,0,1,1,1,1,1,1,1,1,1,1,1,1,1,1,1,1,1,1,1,0,0,0,0,0,1,1,1,1,1,1,1,1,1,1,1,1,1,1,1]",,,,,,,,,,1,,,,,,stimuli/m2.jpg,stimuli/m5.jpg,1,stimuli/Outdoor activity & sport item.png,stimuli/Electronic device & accessory.png,stimuli/Kitchen & utensil.png,stimuli/Hand labour tool & accessory.png,3,0,3,stimuli/m2.jpg,Kitchen & utensil,stimuli/objects/travelmug.jpg,16,2021-05-08_14h05.08.359,premceCat2_ses-02_part-01_label-phase1,2020.2.9,MacIntel,60,2,0,0.622,0,25,25,25,1,,,,,,
1,"[1,0,0,0,1,1,0,1,1,1,0,1,1,1,1,1,0,1,1,1,1,1,1,1,1,1,1,1,1,1,1,1,1,1,1,1,0,0,0,0,0,1,1,1,1,1,1,1,1,1,1,1,1,1,1,1]",,,,,,,,,,1,,,,,,stimuli/m2.jpg,stimuli/m5.jpg,1,stimuli/Outdoor activity & sport item.png,stimuli/Electronic device & accessory.png,stimuli/Hand labour tool & accessory.png,stimuli/Kitchen & utensil.png,2,1,3,stimuli/m2.jpg,Electronic device & accessory,stimuli/objects/dvdplayer.jpg,16,2021-05-08_14h05.08.359,premceCat2_ses-02_part-01_label-phase1,2020.2.9,MacIntel,60,2,1,1.431,0,26,26,26,1,,,,,,
1,"[1,0,0,0,1,1,0,1,1,1,0,1,1,1,1,1,0,1,1,1,1,1,1,1,1,1,1,1,1,1,1,1,1,1,1,1,0,0,0,0,0,1,1,1,1,1,1,1,1,1,1,1,1,1,1,1,1]",,,,,,,,,,1,,,,,,stimuli/m2.jpg,stimuli/m5.jpg,1,stimuli/Hand labour tool & accessory.png,stimuli/Outdoor activity & sport item.png,stimuli/Kitchen & utensil.png,stimuli/Electronic device & accessory.png,4,1,3,stimuli/m2.jpg,Electronic device & accessory,stimuli/objects/fuse.jpg,16,2021-05-08_14h05.08.359,premceCat2_ses-02_part-01_label-phase1,2020.2.9,MacIntel,60,4,1,0.635,0,27,27,27,1,,,,,,
0,"[1,0,0,0,1,1,0,1,1,1,0,1,1,1,1,1,0,1,1,1,1,1,1,1,1,1,1,1,1,1,1,1,1,1,1,1,0,0,0,0,0,1,1,1,1,1,1,1,1,1,1,1,1,1,1,1,1,1]",,,,,,,,,,1,,,,,,stimuli/m5.jpg,stimuli/m2.jpg,1,stimuli/Outdoor activity & sport item.png,stimuli/Electronic device & accessory.png,stimuli/Kitchen & utensil.png,stimuli/Hand labour tool & accessory.png,4,0,3,stimuli/m5.jpg,Hand labour tool & accessory,stimuli/objects/jumpercables.jpg,16,2021-05-08_14h05.08.359,premceCat2_ses-02_part-01_label-phase1,2020.2.9,MacIntel,60,3,0,0.569,0,28,28,28,1,,,,,,
0,"[1,0,0,0,1,1,0,1,1,1,0,1,1,1,1,1,0,1,1,1,1,1,1,1,1,1,1,1,1,1,1,1,1,1,1,1,0,0,0,0,0,1,1,1,1,1,1,1,1,1,1,1,1,1,1,1,1,1]",,,,,,,,,,1,,,,,,stimuli/m5.jpg,stimuli/m2.jpg,1,stimuli/Hand labour tool & accessory.png,stimuli/Electronic device & accessory.png,stimuli/Kitchen & utensil.png,stimuli/Outdoor activity & sport item.png,4,0,3,stimuli/m5.jpg,Outdoor activity & sport item,stimuli/objects/handgripper.jpg,16,2021-05-08_14h05.08.359,premceCat2_ses-02_part-01_label-phase1,2020.2.9,MacIntel,60,3,0,0.554,0,29,29,29,1,,,,,,
0,"[1,0,0,0,1,1,0,1,1,1,0,1,1,1,1,1,0,1,1,1,1,1,1,1,1,1,1,1,1,1,1,1,1,1,1,1,0,0,0,0,0,1,1,1,1,1,1,1,1,1,1,1,1,1,1,1,1,1]",,,,,,,,,,0,,,,,,stimuli/m2.jpg,stimuli/m5.jpg,2,stimuli/Electronic device & accessory.png,stimuli/Outdoor activity & sport item.png,stimuli/Kitchen & utensil.png,stimuli/Hand labour tool & accessory.png,3,1,3,stimuli/m5.jpg,Kitchen & utensil,stimuli/objects/servingspoon01.jpg,16,2021-05-08_14h05.08.359,premceCat2_ses-02_part-01_label-phase1,2020.2.9,MacIntel,60,2,0,1.211,0,30,30,30,1,,,,,,
1,"[1,0,0,0,1,1,0,1,1,1,0,1,1,1,1,1,0,1,1,1,1,1,1,1,1,1,1,1,1,1,1,1,1,1,1,1,0,0,0,0,0,1,1,1,1,1,1,1,1,1,1,1,1,1,1,1,1,1,0]",,,,,,,,,,1,,,,,,stimuli/m2.jpg,stimuli/m5.jpg,1,stimuli/Electronic device & accessory.png,stimuli/Kitchen & utensil.png,stimuli/Outdoor activity & sport item.png,stimuli/Hand labour tool & accessory.png,1,1,3,stimuli/m2.jpg,Electronic device & accessory,stimuli/objects/ethernetcable02.jpg,16,2021-05-08_14h05.08.359,premceCat2_ses-02_part-01_label-phase1,2020.2.9,MacIntel,60,1,1,0.836,0,31,31,31,1,,,,,,
0,"[1,0,0,0,1,1,0,1,1,1,0,1,1,1,1,1,0,1,1,1,1,1,1,1,1,1,1,1,1,1,1,1,1,1,1,1,0,0,0,0,0,1,1,1,1,1,1,1,1,1,1,1,1,1,1,1,1,1,0,1]",,,,,,,,,,1,,,,,,stimuli/m5.jpg,stimuli/m2.jpg,1,stimuli/Kitchen & utensil.png,stimuli/Outdoor activity & sport item.png,stimuli/Hand labour tool & accessory.png,stimuli/Electronic device & accessory.png,4,0,3,stimuli/m5.jpg,Electronic device & accessory,stimuli/objects/alarmclock01.jpg,16,2021-05-08_14h05.08.359,premceCat2_ses-02_part-01_label-phase1,2020.2.9,MacIntel,60,2,0,0.921,0,32,32,32,1,,,,,,
0,"[1,0,0,0,1,1,0,1,1,1,0,1,1,1,1,1,0,1,1,1,1,1,1,1,1,1,1,1,1,1,1,1,1,1,1,1,0,0,0,0,0,1,1,1,1,1,1,1,1,1,1,1,1,1,1,1,1,1,0,1]",,,,,,,,,,0,,,,,,stimuli/m5.jpg,stimuli/m2.jpg,1,stimuli/Kitchen & utensil.png,stimuli/Electronic device & accessory.png,stimuli/Outdoor activity & sport item.png,stimuli/Hand labour tool & accessory.png,1,1,3,stimuli/m5.jpg,Kitchen & utensil,stimuli/objects/peeler01.jpg,16,2021-05-08_14h05.08.359,premceCat2_ses-02_part-01_label-phase1,2020.2.9,MacIntel,60,2,0,1.038,0,33,33,33,1,,,,,,
1,"[1,0,0,0,1,1,0,1,1,1,0,1,1,1,1,1,0,1,1,1,1,1,1,1,1,1,1,1,1,1,1,1,1,1,1,1,0,0,0,0,0,1,1,1,1,1,1,1,1,1,1,1,1,1,1,1,1,1,0,1,0]",,,,,,,,,,1,,,,,,stimuli/m2.jpg,stimuli/m5.jpg,2,stimuli/Outdoor activity & sport item.png,stimuli/Kitchen & utensil.png,stimuli/Electronic device & accessory.png,stimuli/Hand labour tool & accessory.png,2,1,3,stimuli/m5.jpg,Kitchen & utensil,stimuli/objects/corkscrew03a.jpg,16,2021-05-08_14h05.08.359,premceCat2_ses-02_part-01_label-phase1,2020.2.9,MacIntel,60,2,1,0.784,0,34,34,34,1,,,,,,
1,"[1,0,0,0,1,1,0,1,1,1,0,1,1,1,1,1,0,1,1,1,1,1,1,1,1,1,1,1,1,1,1,1,1,1,1,1,0,0,0,0,0,1,1,1,1,1,1,1,1,1,1,1,1,1,1,1,1,1,0,1,0,1]",,,,,,,,,,1,,,,,,stimuli/m5.jpg,stimuli/m2.jpg,2,stimuli/Electronic device & accessory.png,stimuli/Kitchen & utensil.png,stimuli/Outdoor activity & sport item.png,stimuli/Hand labour tool & accessory.png,1,1,3,stimuli/m2.jpg,Electronic device & accessory,stimuli/objects/vhstape.jpg,16,2021-05-08_14h05.08.359,premceCat2_ses-02_part-01_label-phase1,2020.2.9,MacIntel,60,1,1,0.888,0,35,35,35,1,,,,,,
0,"[1,0,0,0,1,1,0,1,1,1,0,1,1,1,1,1,0,1,1,1,1,1,1,1,1,1,1,1,1,1,1,1,1,1,1,1,0,0,0,0,0,1,1,1,1,1,1,1,1,1,1,1,1,1,1,1,1,1,0,1,0,1,1]",,,,,,,,,,0,,,,,,stimuli/m5.jpg,stimuli/m2.jpg,1,stimuli/Outdoor activity & sport item.png,stimuli/Kitchen & utensil.png,stimuli/Hand labour tool & accessory.png,stimuli/Electronic device & accessory.png,2,1,3,stimuli/m5.jpg,Kitchen & utensil,stimuli/objects/hourglass.jpg,16,2021-05-08_14h05.08.359,premceCat2_ses-02_part-01_label-phase1,2020.2.9,MacIntel,60,4,0,1.471,0,36,36,36,1,,,,,,
1,"[1,0,0,0,1,1,0,1,1,1,0,1,1,1,1,1,0,1,1,1,1,1,1,1,1,1,1,1,1,1,1,1,1,1,1,1,0,0,0,0,0,1,1,1,1,1,1,1,1,1,1,1,1,1,1,1,1,1,0,1,0,1,1,0]",,,,,,,,,,1,,,,,,stimuli/m2.jpg,stimuli/m5.jpg,2,stimuli/Outdoor activity & sport item.png,stimuli/Electronic device & accessory.png,stimuli/Kitchen & utensil.png,stimuli/Hand labour tool & accessory.png,3,1,3,stimuli/m5.jpg,Kitchen & utensil,stimuli/objects/rollingpin01a.jpg,16,2021-05-08_14h05.08.359,premceCat2_ses-02_part-01_label-phase1,2020.2.9,MacIntel,60,3,1,0.551,0,37,37,37,1,,,,,,
1,"[1,0,0,0,1,1,0,1,1,1,0,1,1,1,1,1,0,1,1,1,1,1,1,1,1,1,1,1,1,1,1,1,1,1,1,1,0,0,0,0,0,1,1,1,1,1,1,1,1,1,1,1,1,1,1,1,1,1,0,1,0,1,1,0,1]",,,,,,,,,,1,,,,,,stimuli/m2.jpg,stimuli/m5.jpg,2,stimuli/Hand labour tool & accessory.png,stimuli/Electronic device & accessory.png,stimuli/Outdoor activity & sport item.png,stimuli/Kitchen & utensil.png,4,1,3,stimuli/m5.jpg,Kitchen & utensil,stimuli/objects/oven.jpg,16,2021-05-08_14h05.08.359,premceCat2_ses-02_part-01_label-phase1,2020.2.9,MacIntel,60,4,1,0.887,0,38,38,38,1,,,,,,
1,"[1,0,0,0,1,1,0,1,1,1,0,1,1,1,1,1,0,1,1,1,1,1,1,1,1,1,1,1,1,1,1,1,1,1,1,1,0,0,0,0,0,1,1,1,1,1,1,1,1,1,1,1,1,1,1,1,1,1,0,1,0,1,1,0,1,1]",,,,,,,,,,1,,,,,,stimuli/m2.jpg,stimuli/m5.jpg,2,stimuli/Outdoor activity & sport item.png,stimuli/Kitchen & utensil.png,stimuli/Hand labour tool & accessory.png,stimuli/Electronic device & accessory.png,2,1,3,stimuli/m5.jpg,Kitchen & utensil,stimuli/objects/dishrack.jpg,16,2021-05-08_14h05.08.359,premceCat2_ses-02_part-01_label-phase1,2020.2.9,MacIntel,60,2,1,0.604,0,39,39,39,1,,,,,,
0,"[1,0,0,0,1,1,0,1,1,1,0,1,1,1,1,1,0,1,1,1,1,1,1,1,1,1,1,1,1,1,1,1,1,1,1,1,0,0,0,0,0,1,1,1,1,1,1,1,1,1,1,1,1,1,1,1,1,1,0,1,0,1,1,0,1,1,1]",,,,,,,,,,1,,,,,,stimuli/m5.jpg,stimuli/m2.jpg,1,stimuli/Electronic device & accessory.png,stimuli/Hand labour tool & accessory.png,stimuli/Kitchen & utensil.png,stimuli/Outdoor activity & sport item.png,2,0,3,stimuli/m5.jpg,Hand labour tool & accessory,stimuli/objects/squeegee01b.jpg,16,2021-05-08_14h05.08.359,premceCat2_ses-02_part-01_label-phase1,2020.2.9,MacIntel,60,3,0,0.604,0,40,40,40,1,,,,,,
1,"[1,0,0,0,1,1,0,1,1,1,0,1,1,1,1,1,0,1,1,1,1,1,1,1,1,1,1,1,1,1,1,1,1,1,1,1,0,0,0,0,0,1,1,1,1,1,1,1,1,1,1,1,1,1,1,1,1,1,0,1,0,1,1,0,1,1,1]",,,,,,,,,,1,,,,,,stimuli/m2.jpg,stimuli/m5.jpg,1,stimuli/Kitchen & utensil.png,stimuli/Outdoor activity & sport item.png,stimuli/Electronic device & accessory.png,stimuli/Hand labour tool & accessory.png,3,1,3,stimuli/m2.jpg,Electronic device & accessory,stimuli/objects/cellphone.jpg,16,2021-05-08_14h05.08.359,premceCat2_ses-02_part-01_label-phase1,2020.2.9,MacIntel,60,3,1,1.02,0,41,41,41,1,,,,,,
1,"[1,0,0,0,1,1,0,1,1,1,0,1,1,1,1,1,0,1,1,1,1,1,1,1,1,1,1,1,1,1,1,1,1,1,1,1,0,0,0,0,0,1,1,1,1,1,1,1,1,1,1,1,1,1,1,1,1,1,0,1,0,1,1,0,1,1,1,1]",,,,,,,,,,1,,,,,,stimuli/m5.jpg,stimuli/m2.jpg,2,stimuli/Outdoor activity & sport item.png,stimuli/Hand labour tool & accessory.png,stimuli/Kitchen & utensil.png,stimuli/Electronic device & accessory.png,4,1,3,stimuli/m2.jpg,Electronic device & accessory,stimuli/objects/ipad02.jpg,16,2021-05-08_14h05.08.359,premceCat2_ses-02_part-01_label-phase1,2020.2.9,MacIntel,60,4,1,1.27,0,42,42,42,1,,,,,,
1,"[1,0,0,0,1,1,0,1,1,1,0,1,1,1,1,1,0,1,1,1,1,1,1,1,1,1,1,1,1,1,1,1,1,1,1,1,0,0,0,0,0,1,1,1,1,1,1,1,1,1,1,1,1,1,1,1,1,1,0,1,0,1,1,0,1,1,1,1,1]",,,,,,,,,,1,,,,,,stimuli/m5.jpg,stimuli/m2.jpg,2,stimuli/Electronic device & accessory.png,stimuli/Outdoor activity & sport item.png,stimuli/Hand labour tool & accessory.png,stimuli/Kitchen & utensil.png,1,1,3,stimuli/m2.jpg,Electronic device & accessory,stimuli/objects/djmixer02.jpg,16,2021-05-08_14h05.08.359,premceCat2_ses-02_part-01_label-phase1,2020.2.9,MacIntel,60,1,1,0.67,0,43,43,43,1,,,,,,
1,"[1,0,0,0,1,1,0,1,1,1,0,1,1,1,1,1,0,1,1,1,1,1,1,1,1,1,1,1,1,1,1,1,1,1,1,1,0,0,0,0,0,1,1,1,1,1,1,1,1,1,1,1,1,1,1,1,1,1,0,1,0,1,1,0,1,1,1,1,1,1]",,,,,,,,,,1,,,,,,stimuli/m2.jpg,stimuli/m5.jpg,2,stimuli/Electronic device & accessory.png,stimuli/Kitchen & utensil.png,stimuli/Hand labour tool & accessory.png,stimuli/Outdoor activity & sport item.png,2,1,3,stimuli/m5.jpg,Kitchen & utensil,stimuli/objects/jar02.jpg,16,2021-05-08_14h05.08.359,premceCat2_ses-02_part-01_label-phase1,2020.2.9,MacIntel,60,2,1,0.605,0,44,44,44,1,,,,,,
0,"[1,0,0,0,1,1,0,1,1,1,0,1,1,1,1,1,0,1,1,1,1,1,1,1,1,1,1,1,1,1,1,1,1,1,1,1,0,0,0,0,0,1,1,1,1,1,1,1,1,1,1,1,1,1,1,1,1,1,0,1,0,1,1,0,1,1,1,1,1,1,1]",,,,,,,,,,1,,,,,,stimuli/m5.jpg,stimuli/m2.jpg,2,stimuli/Hand labour tool & accessory.png,stimuli/Outdoor activity & sport item.png,stimuli/Kitchen & utensil.png,stimuli/Electronic device & accessory.png,3,0,3,stimuli/m2.jpg,Kitchen & utensil,stimuli/objects/tupperware03a.jpg,16,2021-05-08_14h05.08.359,premceCat2_ses-02_part-01_label-phase1,2020.2.9,MacIntel,60,4,0,0.905,0,45,45,45,1,,,,,,
0,"[1,0,0,0,1,1,0,1,1,1,0,1,1,1,1,1,0,1,1,1,1,1,1,1,1,1,1,1,1,1,1,1,1,1,1,1,0,0,0,0,0,1,1,1,1,1,1,1,1,1,1,1,1,1,1,1,1,1,0,1,0,1,1,0,1,1,1,1,1,1,1]",,,,,,,,,,1,,,,,,stimuli/m5.jpg,stimuli/m2.jpg,2,stimuli/Kitchen & utensil.png,stimuli/Electronic device & accessory.png,stimuli/Outdoor activity & sport item.png,stimuli/Hand labour tool & accessory.png,3,0,3,stimuli/m2.jpg,Outdoor activity & sport item,stimuli/objects/hockeygoaliemask.jpg,16,2021-05-08_14h05.08.359,premceCat2_ses-02_part-01_label-phase1,2020.2.9,MacIntel,60,2,0,1.071,0,46,46,46,1,,,,,,
1,"[1,0,0,0,1,1,0,1,1,1,0,1,1,1,1,1,0,1,1,1,1,1,1,1,1,1,1,1,1,1,1,1,1,1,1,1,0,0,0,0,0,1,1,1,1,1,1,1,1,1,1,1,1,1,1,1,1,1,0,1,0,1,1,0,1,1,1,1,1,1,1]",,,,,,,,,,1,,,,,,stimuli/m2.jpg,stimuli/m5.jpg,1,stimuli/Hand labour tool & accessory.png,stimuli/Outdoor activity & sport item.png,stimuli/Electronic device & accessory.png,stimuli/Kitchen & utensil.png,3,1,3,stimuli/m2.jpg,Electronic device & accessory,stimuli/objects/electricoutlet.jpg,16,2021-05-08_14h05.08.359,premceCat2_ses-02_part-01_label-phase1,2020.2.9,MacIntel,60,3,1,0.67,0,47,47,47,1,,,,,,
,,,,,,,,,,,,,,,,,,,,,,,,,,,,,,16,2021-05-08_14h05.08.359,premceCat2_ses-02_part-01_label-phase1,2020.2.9,MacIntel,60,,,,,,,,,0,1,1,1,1,condition_files/tasklistB1.csv
0,"[1,0,0,0,1,1,0,1,1,1,0,1,1,1,1,1,0,1,1,1,1,1,1,1,1,1,1,1,1,1,1,1,1,1,1,1,0,0,0,0,0,1,1,1,1,1,1,1,1,1,1,1,1,1,1,1,1,1,0,1,0,1,1,0,1,1,1,1,1,1,1,1]",,,,,,,,,,1,,,,,,stimuli/m5.jpg,stimuli/m2.jpg,1,stimuli/Electronic device & accessory.png,stimuli/Outdoor activity & sport item.png,stimuli/Kitchen & utensil.png,stimuli/Hand labour tool & accessory.png,2,0,4,stimuli/m5.jpg,Outdoor activity & sport item,stimuli/objects/baseballbat.jpg,16,2021-05-08_14h05.08.359,premceCat2_ses-02_part-01_label-phase1,2020.2.9,MacIntel,60,3,0,1.002,0,0,0,0,1,,,,,,
0,"[1,0,0,0,1,1,0,1,1,1,0,1,1,1,1,1,0,1,1,1,1,1,1,1,1,1,1,1,1,1,1,1,1,1,1,1,0,0,0,0,0,1,1,1,1,1,1,1,1,1,1,1,1,1,1,1,1,1,0,1,0,1,1,0,1,1,1,1,1,1,1,1]",,,,,,,,,,0,,,,,,stimuli/m5.jpg,stimuli/m2.jpg,2,stimuli/Outdoor activity & sport item.png,stimuli/Electronic device & accessory.png,stimuli/Kitchen & utensil.png,stimuli/Hand labour tool & accessory.png,3,1,4,stimuli/m2.jpg,Kitchen & utensil,stimuli/objects/cork02.jpg,16,2021-05-08_14h05.08.359,premceCat2_ses-02_part-01_label-phase1,2020.2.9,MacIntel,60,2,0,0.953,0,1,1,1,1,,,,,,
0,"[1,0,0,0,1,1,0,1,1,1,0,1,1,1,1,1,0,1,1,1,1,1,1,1,1,1,1,1,1,1,1,1,1,1,1,1,0,0,0,0,0,1,1,1,1,1,1,1,1,1,1,1,1,1,1,1,1,1,0,1,0,1,1,0,1,1,1,1,1,1,1,1,0]",,,,,,,,,,0,,,,,,stimuli/m2.jpg,stimuli/m5.jpg,1,stimuli/Hand labour tool & accessory.png,stimuli/Electronic device & accessory.png,stimuli/Outdoor activity & sport item.png,stimuli/Kitchen & utensil.png,4,1,4,stimuli/m2.jpg,Kitchen & utensil,stimuli/objects/bowl02a.jpg,16,2021-05-08_14h05.08.359,premceCat2_ses-02_part-01_label-phase1,2020.2.9,MacIntel,60,2,0,0.765,0,2,2,2,1,,,,,,
1,"[1,0,0,0,1,1,0,1,1,1,0,1,1,1,1,1,0,1,1,1,1,1,1,1,1,1,1,1,1,1,1,1,1,1,1,1,0,0,0,0,0,1,1,1,1,1,1,1,1,1,1,1,1,1,1,1,1,1,0,1,0,1,1,0,1,1,1,1,1,1,1,1,0,0]",,,,,,,,,,1,,,,,,stimuli/m5.jpg,stimuli/m2.jpg,2,stimuli/Hand labour tool & accessory.png,stimuli/Kitchen & utensil.png,stimuli/Electronic device & accessory.png,stimuli/Outdoor activity & sport item.png,2,1,4,stimuli/m2.jpg,Kitchen & utensil,stimuli/objects/spoon01.jpg,16,2021-05-08_14h05.08.359,premceCat2_ses-02_part-01_label-phase1,2020.2.9,MacIntel,60,2,1,0.767,0,3,3,3,1,,,,,,
1,"[1,0,0,0,1,1,0,1,1,1,0,1,1,1,1,1,0,1,1,1,1,1,1,1,1,1,1,1,1,1,1,1,1,1,1,1,0,0,0,0,0,1,1,1,1,1,1,1,1,1,1,1,1,1,1,1,1,1,0,1,0,1,1,0,1,1,1,1,1,1,1,1,0,0,1]",,,,,,,,,,1,,,,,,stimuli/m2.jpg,stimuli/m5.jpg,1,stimuli/Kitchen & utensil.png,stimuli/Hand labour tool & accessory.png,stimuli/Electronic device & accessory.png,stimuli/Outdoor activity & sport item.png,1,1,4,stimuli/m2.jpg,Kitchen & utensil,stimuli/objects/cookiecutter.jpg,16,2021-05-08_14h05.08.359,premceCat2_ses-02_part-01_label-phase1,2020.2.9,MacIntel,60,1,1,1.373,0,4,4,4,1,,,,,,
0,"[1,0,0,0,1,1,0,1,1,1,0,1,1,1,1,1,0,1,1,1,1,1,1,1,1,1,1,1,1,1,1,1,1,1,1,1,0,0,0,0,0,1,1,1,1,1,1,1,1,1,1,1,1,1,1,1,1,1,0,1,0,1,1,0,1,1,1,1,1,1,1,1,0,0,1,1]",,,,,,,,,,0,,,,,,stimuli/m5.jpg,stimuli/m2.jpg,1,stimuli/Kitchen & utensil.png,stimuli/Outdoor activity & sport item.png,stimuli/Hand labour tool & accessory.png,stimuli/Electronic device & accessory.png,3,1,4,stimuli/m5.jpg,Hand labour tool & accessory,stimuli/objects/knifesharpener.jpg,16,2021-05-08_14h05.08.359,premceCat2_ses-02_part-01_label-phase1,2020.2.9,MacIntel,60,2,0,0.969,0,5,5,5,1,,,,,,
0,"[1,0,0,0,1,1,0,1,1,1,0,1,1,1,1,1,0,1,1,1,1,1,1,1,1,1,1,1,1,1,1,1,1,1,1,1,0,0,0,0,0,1,1,1,1,1,1,1,1,1,1,1,1,1,1,1,1,1,0,1,0,1,1,0,1,1,1,1,1,1,1,1,0,0,1,1,0]",,,,,,,,,,0,,,,,,stimuli/m2.jpg,stimuli/m5.jpg,2,stimuli/Outdoor activity & sport item.png,stimuli/Hand labour tool & accessory.png,stimuli/Electronic device & accessory.png,stimuli/Kitchen & utensil.png,2,1,4,stimuli/m5.jpg,Hand labour tool & accessory,stimuli/objects/pipewrench.jpg,16,2021-05-08_14h05.08.359,premceCat2_ses-02_part-01_label-phase1,2020.2.9,MacIntel,60,1,0,1.086,0,6,6,6,1,,,,,,
0,"[1,0,0,0,1,1,0,1,1,1,0,1,1,1,1,1,0,1,1,1,1,1,1,1,1,1,1,1,1,1,1,1,1,1,1,1,0,0,0,0,0,1,1,1,1,1,1,1,1,1,1,1,1,1,1,1,1,1,0,1,0,1,1,0,1,1,1,1,1,1,1,1,0,0,1,1,0,0]",,,,,,,,,,0,,,,,,stimuli/m2.jpg,stimuli/m5.jpg,2,stimuli/Electronic device & accessory.png,stimuli/Outdoor activity & sport item.png,stimuli/Kitchen & utensil.png,stimuli/Hand labour tool & accessory.png,1,0,4,stimuli/m5.jpg,Electronic device & accessory,stimuli/objects/payphone.jpg,16,2021-05-08_14h05.08.359,premceCat2_ses-02_part-01_label-phase1,2020.2.9,MacIntel,60,4,0,0.728,0,7,7,7,1,,,,,,
1,"[1,0,0,0,1,1,0,1,1,1,0,1,1,1,1,1,0,1,1,1,1,1,1,1,1,1,1,1,1,1,1,1,1,1,1,1,0,0,0,0,0,1,1,1,1,1,1,1,1,1,1,1,1,1,1,1,1,1,0,1,0,1,1,0,1,1,1,1,1,1,1,1,0,0,1,1,0,0]",,,,,,,,,,1,,,,,,stimuli/m2.jpg,stimuli/m5.jpg,1,stimuli/Hand labour tool & accessory.png,stimuli/Electronic device & accessory.png,stimuli/Kitchen & utensil.png,stimuli/Outdoor activity & sport item.png,3,1,4,stimuli/m2.jpg,Kitchen & utensil,stimuli/objects/butterknife.jpg,16,2021-05-08_14h05.08.359,premceCat2_ses-02_part-01_label-phase1,2020.2.9,MacIntel,60,3,1,0.953,0,8,8,8,1,,,,,,
0,"[1,0,0,0,1,1,0,1,1,1,0,1,1,1,1,1,0,1,1,1,1,1,1,1,1,1,1,1,1,1,1,1,1,1,1,1,0,0,0,0,0,1,1,1,1,1,1,1,1,1,1,1,1,1,1,1,1,1,0,1,0,1,1,0,1,1,1,1,1,1,1,1,0,0,1,1,0,0,1]",,,,,,,,,,1,,,,,,stimuli/m2.jpg,stimuli/m5.jpg,1,stimuli/Outdoor activity & sport item.png,stimuli/Hand labour tool & accessory.png,stimuli/Electronic device & accessory.png,stimuli/Kitchen & utensil.png,3,0,4,stimuli/m2.jpg,Electronic device & accessory,stimuli/objects/desktopcomputer.jpg,16,2021-05-08_14h05.08.359,premceCat2_ses-02_part-01_label-phase1,2020.2.9,MacIntel,60,4,0,0.904,0,9,9,9,1,,,,,,
1,"[1,0,0,0,1,1,0,1,1,1,0,1,1,1,1,1,0,1,1,1,1,1,1,1,1,1,1,1,1,1,1,1,1,1,1,1,0,0,0,0,0,1,1,1,1,1,1,1,1,1,1,1,1,1,1,1,1,1,0,1,0,1,1,0,1,1,1,1,1,1,1,1,0,0,1,1,0,0,1]",,,,,,,,,,1,,,,,,stimuli/m2.jpg,stimuli/m5.jpg,1,stimuli/Electronic device & accessory.png,stimuli/Kitchen & utensil.png,stimuli/Hand labour tool & accessory.png,stimuli/Outdoor activity & sport item.png,2,1,4,stimuli/m2.jpg,Kitchen & utensil,stimuli/objects/pitcher02b.jpg,16,2021-05-08_14h05.08.359,premceCat2_ses-02_part-01_label-phase1,2020.2.9,MacIntel,60,2,1,1.32,0,10,10,10,1,,,,,,
0,"[1,0,0,0,1,1,0,1,1,1,0,1,1,1,1,1,0,1,1,1,1,1,1,1,1,1,1,1,1,1,1,1,1,1,1,1,0,0,0,0,0,1,1,1,1,1,1,1,1,1,1,1,1,1,1,1,1,1,0,1,0,1,1,0,1,1,1,1,1,1,1,1,0,0,1,1,0,0,1,1]",,,,,,,,,,0,,,,,,stimuli/m5.jpg,stimuli/m2.jpg,1,stimuli/Outdoor activity & sport item.png,stimuli/Electronic device & accessory.png,stimuli/Kitchen & utensil.png,stimuli/Hand labour tool & accessory.png,4,1,4,stimuli/m5.jpg,Hand labour tool & accessory,stimuli/objects/leafrake.jpg,16,2021-05-08_14h05.08.359,premceCat2_ses-02_part-01_label-phase1,2020.2.9,MacIntel,60,1,0,1.972,0,11,11,11,1,,,,,,
1,"[1,0,0,0,1,1,0,1,1,1,0,1,1,1,1,1,0,1,1,1,1,1,1,1,1,1,1,1,1,1,1,1,1,1,1,1,0,0,0,0,0,1,1,1,1,1,1,1,1,1,1,1,1,1,1,1,1,1,0,1,0,1,1,0,1,1,1,1,1,1,1,1,0,0,1,1,0,0,1,1,0]",,,,,,,,,,1,,,,,,stimuli/m2.jpg,stimuli/m5.jpg,2,stimuli/Kitchen & utensil.png,stimuli/Electronic device & accessory.png,stimuli/Outdoor activity & sport item.png,stimuli/Hand labour tool & accessory.png,4,1,4,stimuli/m5.jpg,Hand labour tool & accessory,stimuli/objects/painttray.jpg,16,2021-05-08_14h05.08.359,premceCat2_ses-02_part-01_label-phase1,2020.2.9,MacIntel,60,4,1,0.767,0,12,12,12,1,,,,,,
1,"[1,0,0,0,1,1,0,1,1,1,0,1,1,1,1,1,0,1,1,1,1,1,1,1,1,1,1,1,1,1,1,1,1,1,1,1,0,0,0,0,0,1,1,1,1,1,1,1,1,1,1,1,1,1,1,1,1,1,0,1,0,1,1,0,1,1,1,1,1,1,1,1,0,0,1,1,0,0,1,1,0,1]",,,,,,,,,,1,,,,,,stimuli/m2.jpg,stimuli/m5.jpg,2,stimuli/Outdoor activity & sport item.png,stimuli/Electronic device & accessory.png,stimuli/Hand labour tool & accessory.png,stimuli/Kitchen & utensil.png,3,1,4,stimuli/m5.jpg,Hand labour tool & accessory,stimuli/objects/hammer01.jpg,16,2021-05-08_14h05.08.359,premceCat2_ses-02_part-01_label-phase1,2020.2.9,MacIntel,60,3,1,0.803,0,13,13,13,1,,,,,,
0,"[1,0,0,0,1,1,0,1,1,1,0,1,1,1,1,1,0,1,1,1,1,1,1,1,1,1,1,1,1,1,1,1,1,1,1,1,0,0,0,0,0,1,1,1,1,1,1,1,1,1,1,1,1,1,1,1,1,1,0,1,0,1,1,0,1,1,1,1,1,1,1,1,0,0,1,1,0,0,1,1,0,1,1]",,,,,,,,,,1,,,,,,stimuli/m2.jpg,stimuli/m5.jpg,1,stimuli/Electronic device & accessory.png,stimuli/Hand labour tool & accessory.png,stimuli/Kitchen & utensil.png,stimuli/Outdoor activity & sport item.png,2,0,4,stimuli/m2.jpg,Hand labour tool & accessory,stimuli/objects/gastank.jpg,16,2021-05-08_14h05.08.359,premceCat2_ses-02_part-01_label-phase1,2020.2.9,MacIntel,60,3,0,1.106,0,14,14,14,1,,,,,,
0,"[1,0,0,0,1,1,0,1,1,1,0,1,1,1,1,1,0,1,1,1,1,1,1,1,1,1,1,1,1,1,1,1,1,1,1,1,0,0,0,0,0,1,1,1,1,1,1,1,1,1,1,1,1,1,1,1,1,1,0,1,0,1,1,0,1,1,1,1,1,1,1,1,0,0,1,1,0,0,1,1,0,1,1]",,,,,,,,,,1,,,,,,stimuli/m2.jpg,stimuli/m5.jpg,2,stimuli/Kitchen & utensil.png,stimuli/Outdoor activity & sport item.png,stimuli/Hand labour tool & accessory.png,stimuli/Electronic device & accessory.png,2,0,4,stimuli/m5.jpg,Outdoor activity & sport item,stimuli/objects/kiddiepool.jpg,16,2021-05-08_14h05.08.359,premceCat2_ses-02_part-01_label-phase1,2020.2.9,MacIntel,60,3,0,0.872,0,15,15,15,1,,,,,,
1,"[1,0,0,0,1,1,0,1,1,1,0,1,1,1,1,1,0,1,1,1,1,1,1,1,1,1,1,1,1,1,1,1,1,1,1,1,0,0,0,0,0,1,1,1,1,1,1,1,1,1,1,1,1,1,1,1,1,1,0,1,0,1,1,0,1,1,1,1,1,1,1,1,0,0,1,1,0,0,1,1,0,1,1]",,,,,,,,,,1,,,,,,stimuli/m2.jpg,stimuli/m5.jpg,2,stimuli/Hand labour tool & accessory.png,stimuli/Electronic device & accessory.png,stimuli/Outdoor activity & sport item.png,stimuli/Kitchen & utensil.png,1,1,4,stimuli/m5.jpg,Hand labour tool & accessory,stimuli/objects/axe01.jpg,16,2021-05-08_14h05.08.359,premceCat2_ses-02_part-01_label-phase1,2020.2.9,MacIntel,60,1,1,2.203,0,16,16,16,1,,,,,,
0,"[1,0,0,0,1,1,0,1,1,1,0,1,1,1,1,1,0,1,1,1,1,1,1,1,1,1,1,1,1,1,1,1,1,1,1,1,0,0,0,0,0,1,1,1,1,1,1,1,1,1,1,1,1,1,1,1,1,1,0,1,0,1,1,0,1,1,1,1,1,1,1,1,0,0,1,1,0,0,1,1,0,1,1,1]",,,,,,,,,,1,,,,,,stimuli/m5.jpg,stimuli/m2.jpg,1,stimuli/Hand labour tool & accessory.png,stimuli/Kitchen & utensil.png,stimuli/Outdoor activity & sport item.png,stimuli/Electronic device & accessory.png,2,0,4,stimuli/m5.jpg,Kitchen & utensil,stimuli/objects/cookingpot.jpg,16,2021-05-08_14h05.08.359,premceCat2_ses-02_part-01_label-phase1,2020.2.9,MacIntel,60,1,0,0.985,0,17,17,17,1,,,,,,
1,"[1,0,0,0,1,1,0,1,1,1,0,1,1,1,1,1,0,1,1,1,1,1,1,1,1,1,1,1,1,1,1,1,1,1,1,1,0,0,0,0,0,1,1,1,1,1,1,1,1,1,1,1,1,1,1,1,1,1,0,1,0,1,1,0,1,1,1,1,1,1,1,1,0,0,1,1,0,0,1,1,0,1,1,1]",,,,,,,,,,1,,,,,,stimuli/m5.jpg,stimuli/m2.jpg,2,stimuli/Electronic device & accessory.png,stimuli/Hand labour tool & accessory.png,stimuli/Kitchen & utensil.png,stimuli/Outdoor activity & sport item.png,3,1,4,stimuli/m2.jpg,Kitchen & utensil,stimuli/objects/spicerack.jpg,16,2021-05-08_14h05.08.359,premceCat2_ses-02_part-01_label-phase1,2020.2.9,MacIntel,60,3,1,0.604,0,18,18,18,1,,,,,,
1,"[1,0,0,0,1,1,0,1,1,1,0,1,1,1,1,1,0,1,1,1,1,1,1,1,1,1,1,1,1,1,1,1,1,1,1,1,0,0,0,0,0,1,1,1,1,1,1,1,1,1,1,1,1,1,1,1,1,1,0,1,0,1,1,0,1,1,1,1,1,1,1,1,0,0,1,1,0,0,1,1,0,1,1,1,1]",,,,,,,,,,1,,,,,,stimuli/m5.jpg,stimuli/m2.jpg,1,stimuli/Kitchen & utensil.png,stimuli/Outdoor activity & sport item.png,stimuli/Electronic device & accessory.png,stimuli/Hand labour tool & accessory.png,4,1,4,stimuli/m5.jpg,Hand labour tool & accessory,stimuli/objects/ladder.jpg,16,2021-05-08_14h05.08.359,premceCat2_ses-02_part-01_label-phase1,2020.2.9,MacIntel,60,4,1,1.061,0,19,19,19,1,,,,,,
1,"[1,0,0,0,1,1,0,1,1,1,0,1,1,1,1,1,0,1,1,1,1,1,1,1,1,1,1,1,1,1,1,1,1,1,1,1,0,0,0,0,0,1,1,1,1,1,1,1,1,1,1,1,1,1,1,1,1,1,0,1,0,1,1,0,1,1,1,1,1,1,1,1,0,0,1,1,0,0,1,1,0,1,1,1,1,1]",,,,,,,,,,1,,,,,,stimuli/m5.jpg,stimuli/m2.jpg,1,stimuli/Kitchen & utensil.png,stimuli/Electronic device & accessory.png,stimuli/Hand labour tool & accessory.png,stimuli/Outdoor activity & sport item.png,3,1,4,stimuli/m5.jpg,Hand labour tool & accessory,stimuli/objects/hoe.jpg,16,2021-05-08_14h05.08.359,premceCat2_ses-02_part-01_label-phase1,2020.2.9,MacIntel,60,3,1,0.62,0,20,20,20,1,,,,,,
1,"[1,0,0,0,1,1,0,1,1,1,0,1,1,1,1,1,0,1,1,1,1,1,1,1,1,1,1,1,1,1,1,1,1,1,1,1,0,0,0,0,0,1,1,1,1,1,1,1,1,1,1,1,1,1,1,1,1,1,0,1,0,1,1,0,1,1,1,1,1,1,1,1,0,0,1,1,0,0,1,1,0,1,1,1,1,1,1]",,,,,,,,,,1,,,,,,stimuli/m2.jpg,stimuli/m5.jpg,2,stimuli/Hand labour tool & accessory.png,stimuli/Electronic device & accessory.png,stimuli/Kitchen & utensil.png,stimuli/Outdoor activity & sport item.png,1,1,4,stimuli/m5.jpg,Hand labour tool & accessory,stimuli/objects/staplegun.jpg,16,2021-05-08_14h05.08.359,premceCat2_ses-02_part-01_label-phase1,2020.2.9,MacIntel,60,1,1,0.82,0,21,21,21,1,,,,,,
1,"[1,0,0,0,1,1,0,1,1,1,0,1,1,1,1,1,0,1,1,1,1,1,1,1,1,1,1,1,1,1,1,1,1,1,1,1,0,0,0,0,0,1,1,1,1,1,1,1,1,1,1,1,1,1,1,1,1,1,0,1,0,1,1,0,1,1,1,1,1,1,1,1,0,0,1,1,0,0,1,1,0,1,1,1,1,1,1,1]",,,,,,,,,,1,,,,,,stimuli/m5.jpg,stimuli/m2.jpg,1,stimuli/Electronic device & accessory.png,stimuli/Outdoor activity & sport item.png,stimuli/Hand labour tool & accessory.png,stimuli/Kitchen & utensil.png,3,1,4,stimuli/m5.jpg,Hand labour tool & accessory,stimuli/objects/stubbywrench01a.jpg,16,2021-05-08_14h05.08.359,premceCat2_ses-02_part-01_label-phase1,2020.2.9,MacIntel,60,3,1,0.82,0,22,22,22,1,,,,,,
1,"[1,0,0,0,1,1,0,1,1,1,0,1,1,1,1,1,0,1,1,1,1,1,1,1,1,1,1,1,1,1,1,1,1,1,1,1,0,0,0,0,0,1,1,1,1,1,1,1,1,1,1,1,1,1,1,1,1,1,0,1,0,1,1,0,1,1,1,1,1,1,1,1,0,0,1,1,0,0,1,1,0,1,1,1,1,1,1,1,1]",,,,,,,,,,1,,,,,,stimuli/m2.jpg,stimuli/m5.jpg,1,stimuli/Outdoor activity & sport item.png,stimuli/Kitchen & utensil.png,stimuli/Hand labour tool & accessory.png,stimuli/Electronic device & accessory.png,2,1,4,stimuli/m2.jpg,Kitchen & utensil,stimuli/objects/gravyboat.jpg,16,2021-05-08_14h05.08.359,premceCat2_ses-02_part-01_label-phase1,2020.2.9,MacIntel,60,2,1,0.945,0,23,23,23,1,,,,,,
1,"[1,0,0,0,1,1,0,1,1,1,0,1,1,1,1,1,0,1,1,1,1,1,1,1,1,1,1,1,1,1,1,1,1,1,1,1,0,0,0,0,0,1,1,1,1,1,1,1,1,1,1,1,1,1,1,1,1,1,0,1,0,1,1,0,1,1,1,1,1,1,1,1,0,0,1,1,0,0,1,1,0,1,1,1,1,1,1,1,1,1]",,,,,,,,,,1,,,,,,stimuli/m2.jpg,stimuli/m5.jpg,2,stimuli/Hand labour tool & accessory.png,stimuli/Outdoor activity & sport item.png,stimuli/Kitchen & utensil.png,stimuli/Electronic device & accessory.png,1,1,4,stimuli/m5.jpg,Hand labour tool & accessory,stimuli/objects/tape02a.jpg,16,2021-05-08_14h05.08.359,premceCat2_ses-02_part-01_label-phase1,2020.2.9,MacIntel,60,1,1,0.917,0,24,24,24,1,,,,,,
0,"[1,0,0,0,1,1,0,1,1,1,0,1,1,1,1,1,0,1,1,1,1,1,1,1,1,1,1,1,1,1,1,1,1,1,1,1,0,0,0,0,0,1,1,1,1,1,1,1,1,1,1,1,1,1,1,1,1,1,0,1,0,1,1,0,1,1,1,1,1,1,1,1,0,0,1,1,0,0,1,1,0,1,1,1,1,1,1,1,1,1,1]",,,,,,,,,,1,,,,,,stimuli/m5.jpg,stimuli/m2.jpg,1,stimuli/Hand labour tool & accessory.png,stimuli/Electronic device & accessory.png,stimuli/Kitchen & utensil.png,stimuli/Outdoor activity & sport item.png,3,0,4,stimuli/m5.jpg,Kitchen & utensil,stimuli/objects/funnel.jpg,16,2021-05-08_14h05.08.359,premceCat2_ses-02_part-01_label-phase1,2020.2.9,MacIntel,60,1,0,0.603,0,25,25,25,1,,,,,,
0,"[1,0,0,0,1,1,0,1,1,1,0,1,1,1,1,1,0,1,1,1,1,1,1,1,1,1,1,1,1,1,1,1,1,1,1,1,0,0,0,0,0,1,1,1,1,1,1,1,1,1,1,1,1,1,1,1,1,1,0,1,0,1,1,0,1,1,1,1,1,1,1,1,0,0,1,1,0,0,1,1,0,1,1,1,1,1,1,1,1,1,1]",,,,,,,,,,1,,,,,,stimuli/m5.jpg,stimuli/m2.jpg,2,stimuli/Kitchen & utensil.png,stimuli/Hand labour tool & accessory.png,stimuli/Electronic device & accessory.png,stimuli/Outdoor activity & sport item.png,4,0,4,stimuli/m2.jpg,Outdoor activity & sport item,stimuli/objects/bikepump01.jpg,16,2021-05-08_14h05.08.359,premceCat2_ses-02_part-01_label-phase1,2020.2.9,MacIntel,60,1,0,1.101,0,26,26,26,1,,,,,,
1,"[1,0,0,0,1,1,0,1,1,1,0,1,1,1,1,1,0,1,1,1,1,1,1,1,1,1,1,1,1,1,1,1,1,1,1,1,0,0,0,0,0,1,1,1,1,1,1,1,1,1,1,1,1,1,1,1,1,1,0,1,0,1,1,0,1,1,1,1,1,1,1,1,0,0,1,1,0,0,1,1,0,1,1,1,1,1,1,1,1,1,1]",,,,,,,,,,1,,,,,,stimuli/m2.jpg,stimuli/m5.jpg,1,stimuli/Outdoor activity & sport item.png,stimuli/Hand labour tool & accessory.png,stimuli/Kitchen & utensil.png,stimuli/Electronic device & accessory.png,3,1,4,stimuli/m2.jpg,Kitchen & utensil,stimuli/objects/pastaspoon.jpg,16,2021-05-08_14h05.08.359,premceCat2_ses-02_part-01_label-phase1,2020.2.9,MacIntel,60,3,1,0.9,0,27,27,27,1,,,,,,
1,"[1,0,0,0,1,1,0,1,1,1,0,1,1,1,1,1,0,1,1,1,1,1,1,1,1,1,1,1,1,1,1,1,1,1,1,1,0,0,0,0,0,1,1,1,1,1,1,1,1,1,1,1,1,1,1,1,1,1,0,1,0,1,1,0,1,1,1,1,1,1,1,1,0,0,1,1,0,0,1,1,0,1,1,1,1,1,1,1,1,1,1,1]",,,,,,,,,,1,,,,,,stimuli/m5.jpg,stimuli/m2.jpg,1,stimuli/Electronic device & accessory.png,stimuli/Hand labour tool & accessory.png,stimuli/Outdoor activity & sport item.png,stimuli/Kitchen & utensil.png,2,1,4,stimuli/m5.jpg,Hand labour tool & accessory,stimuli/objects/wheelbarrow01.jpg,16,2021-05-08_14h05.08.359,premceCat2_ses-02_part-01_label-phase1,2020.2.9,MacIntel,60,2,1,0.986,0,28,28,28,1,,,,,,
0,"[1,0,0,0,1,1,0,1,1,1,0,1,1,1,1,1,0,1,1,1,1,1,1,1,1,1,1,1,1,1,1,1,1,1,1,1,0,0,0,0,0,1,1,1,1,1,1,1,1,1,1,1,1,1,1,1,1,1,0,1,0,1,1,0,1,1,1,1,1,1,1,1,0,0,1,1,0,0,1,1,0,1,1,1,1,1,1,1,1,1,1,1,1]",,,,,,,,,,1,,,,,,stimuli/m2.jpg,stimuli/m5.jpg,1,stimuli/Kitchen & utensil.png,stimuli/Electronic device & accessory.png,stimuli/Hand labour tool & accessory.png,stimuli/Outdoor activity & sport item.png,4,0,4,stimuli/m2.jpg,Outdoor activity & sport item,stimuli/objects/boatmotor.jpg,16,2021-05-08_14h05.08.359,premceCat2_ses-02_part-01_label-phase1,2020.2.9,MacIntel,60,1,0,1.171,0,29,29,29,1,,,,,,
1,"[1,0,0,0,1,1,0,1,1,1,0,1,1,1,1,1,0,1,1,1,1,1,1,1,1,1,1,1,1,1,1,1,1,1,1,1,0,0,0,0,0,1,1,1,1,1,1,1,1,1,1,1,1,1,1,1,1,1,0,1,0,1,1,0,1,1,1,1,1,1,1,1,0,0,1,1,0,0,1,1,0,1,1,1,1,1,1,1,1,1,1,1,1]",,,,,,,,,,1,,,,,,stimuli/m5.jpg,stimuli/m2.jpg,2,stimuli/Electronic device & accessory.png,stimuli/Outdoor activity & sport item.png,stimuli/Hand labour tool & accessory.png,stimuli/Kitchen & utensil.png,4,1,4,stimuli/m2.jpg,Kitchen & utensil,stimuli/objects/breadknife.jpg,16,2021-05-08_14h05.08.359,premceCat2_ses-02_part-01_label-phase1,2020.2.9,MacIntel,60,4,1,1.435,0,30,30,30,1,,,,,,
1,"[1,0,0,0,1,1,0,1,1,1,0,1,1,1,1,1,0,1,1,1,1,1,1,1,1,1,1,1,1,1,1,1,1,1,1,1,0,0,0,0,0,1,1,1,1,1,1,1,1,1,1,1,1,1,1,1,1,1,0,1,0,1,1,0,1,1,1,1,1,1,1,1,0,0,1,1,0,0,1,1,0,1,1,1,1,1,1,1,1,1,1,1,1,1]",,,,,,,,,,1,,,,,,stimuli/m5.jpg,stimuli/m2.jpg,2,stimuli/Hand labour tool & accessory.png,stimuli/Kitchen & utensil.png,stimuli/Outdoor activity & sport item.png,stimuli/Electronic device & accessory.png,2,1,4,stimuli/m2.jpg,Kitchen & utensil,stimuli/objects/martiniglass01b.jpg,16,2021-05-08_14h05.08.359,premceCat2_ses-02_part-01_label-phase1,2020.2.9,MacIntel,60,2,1,0.885,0,31,31,31,1,,,,,,
1,"[1,0,0,0,1,1,0,1,1,1,0,1,1,1,1,1,0,1,1,1,1,1,1,1,1,1,1,1,1,1,1,1,1,1,1,1,0,0,0,0,0,1,1,1,1,1,1,1,1,1,1,1,1,1,1,1,1,1,0,1,0,1,1,0,1,1,1,1,1,1,1,1,0,0,1,1,0,0,1,1,0,1,1,1,1,1,1,1,1,1,1,1,1,1,1]",,,,,,,,,,1,,,,,,stimuli/m5.jpg,stimuli/m2.jpg,1,stimuli/Outdoor activity & sport item.png,stimuli/Electronic device & accessory.png,stimuli/Hand labour tool & accessory.png,stimuli/Kitchen & utensil.png,3,1,4,stimuli/m5.jpg,Hand labour tool & accessory,stimuli/objects/setsquare.jpg,16,2021-05-08_14h05.08.359,premceCat2_ses-02_part-01_label-phase1,2020.2.9,MacIntel,60,3,1,0.636,0,32,32,32,1,,,,,,
1,"[1,0,0,0,1,1,0,1,1,1,0,1,1,1,1,1,0,1,1,1,1,1,1,1,1,1,1,1,1,1,1,1,1,1,1,1,0,0,0,0,0,1,1,1,1,1,1,1,1,1,1,1,1,1,1,1,1,1,0,1,0,1,1,0,1,1,1,1,1,1,1,1,0,0,1,1,0,0,1,1,0,1,1,1,1,1,1,1,1,1,1,1,1,1,1,1]",,,,,,,,,,1,,,,,,stimuli/m5.jpg,stimuli/m2.jpg,1,stimuli/Kitchen & utensil.png,stimuli/Hand labour tool & accessory.png,stimuli/Electronic device & accessory.png,stimuli/Outdoor activity & sport item.png,2,1,4,stimuli/m5.jpg,Hand labour tool & accessory,stimuli/objects/pressurewasher.jpg,16,2021-05-08_14h05.08.359,premceCat2_ses-02_part-01_label-phase1,2020.2.9,MacIntel,60,2,1,0.704,0,33,33,33,1,,,,,,
1,"[1,0,0,0,1,1,0,1,1,1,0,1,1,1,1,1,0,1,1,1,1,1,1,1,1,1,1,1,1,1,1,1,1,1,1,1,0,0,0,0,0,1,1,1,1,1,1,1,1,1,1,1,1,1,1,1,1,1,0,1,0,1,1,0,1,1,1,1,1,1,1,1,0,0,1,1,0,0,1,1,0,1,1,1,1,1,1,1,1,1,1,1,1,1,1,1,1]",,,,,,,,,,1,,,,,,stimuli/m2.jpg,stimuli/m5.jpg,1,stimuli/Kitchen & utensil.png,stimuli/Outdoor activity & sport item.png,stimuli/Electronic device & accessory.png,stimuli/Hand labour tool & accessory.png,1,1,4,stimuli/m2.jpg,Kitchen & utensil,stimuli/objects/saladspinner.jpg,16,2021-05-08_14h05.08.359,premceCat2_ses-02_part-01_label-phase1,2020.2.9,MacIntel,60,1,1,0.899,0,34,34,34,1,,,,,,
0,"[1,0,0,0,1,1,0,1,1,1,0,1,1,1,1,1,0,1,1,1,1,1,1,1,1,1,1,1,1,1,1,1,1,1,1,1,0,0,0,0,0,1,1,1,1,1,1,1,1,1,1,1,1,1,1,1,1,1,0,1,0,1,1,0,1,1,1,1,1,1,1,1,0,0,1,1,0,0,1,1,0,1,1,1,1,1,1,1,1,1,1,1,1,1,1,1,1,1]",,,,,,,,,,0,,,,,,stimuli/m5.jpg,stimuli/m2.jpg,2,stimuli/Hand labour tool & accessory.png,stimuli/Outdoor activity & sport item.png,stimuli/Kitchen & utensil.png,stimuli/Electronic device & accessory.png,3,1,4,stimuli/m2.jpg,Kitchen & utensil,stimuli/objects/thermos.jpg,16,2021-05-08_14h05.08.359,premceCat2_ses-02_part-01_label-phase1,2020.2.9,MacIntel,60,1,0,0.981,0,35,35,35,1,,,,,,
1,"[1,0,0,0,1,1,0,1,1,1,0,1,1,1,1,1,0,1,1,1,1,1,1,1,1,1,1,1,1,1,1,1,1,1,1,1,0,0,0,0,0,1,1,1,1,1,1,1,1,1,1,1,1,1,1,1,1,1,0,1,0,1,1,0,1,1,1,1,1,1,1,1,0,0,1,1,0,0,1,1,0,1,1,1,1,1,1,1,1,1,1,1,1,1,1,1,1,1,0]",,,,,,,,,,1,,,,,,stimuli/m2.jpg,stimuli/m5.jpg,1,stimuli/Hand labour tool & accessory.png,stimuli/Outdoor activity & sport item.png,stimuli/Kitchen & utensil.png,stimuli/Electronic device & accessory.png,3,1,4,stimuli/m2.jpg,Kitchen & utensil,stimuli/objects/gasburner.jpg,16,2021-05-08_14h05.08.359,premceCat2_ses-02_part-01_label-phase1,2020.2.9,MacIntel,60,3,1,0.956,0,36,36,36,1,,,,,,
1,"[1,0,0,0,1,1,0,1,1,1,0,1,1,1,1,1,0,1,1,1,1,1,1,1,1,1,1,1,1,1,1,1,1,1,1,1,0,0,0,0,0,1,1,1,1,1,1,1,1,1,1,1,1,1,1,1,1,1,0,1,0,1,1,0,1,1,1,1,1,1,1,1,0,0,1,1,0,0,1,1,0,1,1,1,1,1,1,1,1,1,1,1,1,1,1,1,1,1,0,1]",,,,,,,,,,1,,,,,,stimuli/m2.jpg,stimuli/m5.jpg,1,stimuli/Hand labour tool & accessory.png,stimuli/Outdoor activity & sport item.png,stimuli/Electronic device & accessory.png,stimuli/Kitchen & utensil.png,4,1,4,stimuli/m2.jpg,Kitchen & utensil,stimuli/objects/espressomachine.jpg,16,2021-05-08_14h05.08.359,premceCat2_ses-02_part-01_label-phase1,2020.2.9,MacIntel,60,4,1,0.913,0,37,37,37,1,,,,,,
1,"[1,0,0,0,1,1,0,1,1,1,0,1,1,1,1,1,0,1,1,1,1,1,1,1,1,1,1,1,1,1,1,1,1,1,1,1,0,0,0,0,0,1,1,1,1,1,1,1,1,1,1,1,1,1,1,1,1,1,0,1,0,1,1,0,1,1,1,1,1,1,1,1,0,0,1,1,0,0,1,1,0,1,1,1,1,1,1,1,1,1,1,1,1,1,1,1,1,1,0,1,1]",,,,,,,,,,1,,,,,,stimuli/m5.jpg,stimuli/m2.jpg,1,stimuli/Hand labour tool & accessory.png,stimuli/Outdoor activity & sport item.png,stimuli/Electronic device & accessory.png,stimuli/Kitchen & utensil.png,1,1,4,stimuli/m5.jpg,Hand labour tool & accessory,stimuli/objects/metalbrush.jpg,16,2021-05-08_14h05.08.359,premceCat2_ses-02_part-01_label-phase1,2020.2.9,MacIntel,60,1,1,0.871,0,38,38,38,1,,,,,,
1,"[1,0,0,0,1,1,0,1,1,1,0,1,1,1,1,1,0,1,1,1,1,1,1,1,1,1,1,1,1,1,1,1,1,1,1,1,0,0,0,0,0,1,1,1,1,1,1,1,1,1,1,1,1,1,1,1,1,1,0,1,0,1,1,0,1,1,1,1,1,1,1,1,0,0,1,1,0,0,1,1,0,1,1,1,1,1,1,1,1,1,1,1,1,1,1,1,1,1,0,1,1,1]",,,,,,,,,,1,,,,,,stimuli/m5.jpg,stimuli/m2.jpg,1,stimuli/Hand labour tool & accessory.png,stimuli/Outdoor activity & sport item.png,stimuli/Kitchen & utensil.png,stimuli/Electronic device & accessory.png,1,1,4,stimuli/m5.jpg,Hand labour tool & accessory,stimuli/objects/drillbit03a.jpg,16,2021-05-08_14h05.08.359,premceCat2_ses-02_part-01_label-phase1,2020.2.9,MacIntel,60,1,1,0.537,0,39,39,39,1,,,,,,
1,"[1,0,0,0,1,1,0,1,1,1,0,1,1,1,1,1,0,1,1,1,1,1,1,1,1,1,1,1,1,1,1,1,1,1,1,1,0,0,0,0,0,1,1,1,1,1,1,1,1,1,1,1,1,1,1,1,1,1,0,1,0,1,1,0,1,1,1,1,1,1,1,1,0,0,1,1,0,0,1,1,0,1,1,1,1,1,1,1,1,1,1,1,1,1,1,1,1,1,0,1,1,1,1]",,,,,,,,,,1,,,,,,stimuli/m5.jpg,stimuli/m2.jpg,2,stimuli/Kitchen & utensil.png,stimuli/Hand labour tool & accessory.png,stimuli/Outdoor activity & sport item.png,stimuli/Electronic device & accessory.png,1,1,4,stimuli/m2.jpg,Kitchen & utensil,stimuli/objects/tray.jpg,16,2021-05-08_14h05.08.359,premceCat2_ses-02_part-01_label-phase1,2020.2.9,MacIntel,60,1,1,1.091,0,40,40,40,1,,,,,,
0,"[1,0,0,0,1,1,0,1,1,1,0,1,1,1,1,1,0,1,1,1,1,1,1,1,1,1,1,1,1,1,1,1,1,1,1,1,0,0,0,0,0,1,1,1,1,1,1,1,1,1,1,1,1,1,1,1,1,1,0,1,0,1,1,0,1,1,1,1,1,1,1,1,0,0,1,1,0,0,1,1,0,1,1,1,1,1,1,1,1,1,1,1,1,1,1,1,1,1,0,1,1,1,1,1]",,,,,,,,,,1,,,,,,stimuli/m2.jpg,stimuli/m5.jpg,2,stimuli/Outdoor activity & sport item.png,stimuli/Kitchen & utensil.png,stimuli/Hand labour tool & accessory.png,stimuli/Electronic device & accessory.png,4,0,4,stimuli/m5.jpg,Electronic device & accessory,stimuli/objects/dvdcase01.jpg,16,2021-05-08_14h05.08.359,premceCat2_ses-02_part-01_label-phase1,2020.2.9,MacIntel,60,3,0,1.039,0,41,41,41,1,,,,,,
1,"[1,0,0,0,1,1,0,1,1,1,0,1,1,1,1,1,0,1,1,1,1,1,1,1,1,1,1,1,1,1,1,1,1,1,1,1,0,0,0,0,0,1,1,1,1,1,1,1,1,1,1,1,1,1,1,1,1,1,0,1,0,1,1,0,1,1,1,1,1,1,1,1,0,0,1,1,0,0,1,1,0,1,1,1,1,1,1,1,1,1,1,1,1,1,1,1,1,1,0,1,1,1,1,1]",,,,,,,,,,1,,,,,,stimuli/m5.jpg,stimuli/m2.jpg,2,stimuli/Outdoor activity & sport item.png,stimuli/Hand labour tool & accessory.png,stimuli/Kitchen & utensil.png,stimuli/Electronic device & accessory.png,3,1,4,stimuli/m2.jpg,Kitchen & utensil,stimuli/objects/muffintray01.jpg,16,2021-05-08_14h05.08.359,premceCat2_ses-02_part-01_label-phase1,2020.2.9,MacIntel,60,3,1,0.836,0,42,42,42,1,,,,,,
0,"[1,0,0,0,1,1,0,1,1,1,0,1,1,1,1,1,0,1,1,1,1,1,1,1,1,1,1,1,1,1,1,1,1,1,1,1,0,0,0,0,0,1,1,1,1,1,1,1,1,1,1,1,1,1,1,1,1,1,0,1,0,1,1,0,1,1,1,1,1,1,1,1,0,0,1,1,0,0,1,1,0,1,1,1,1,1,1,1,1,1,1,1,1,1,1,1,1,1,0,1,1,1,1,1,1]",,,,,,,,,,1,,,,,,stimuli/m2.jpg,stimuli/m5.jpg,1,stimuli/Outdoor activity & sport item.png,stimuli/Electronic device & accessory.png,stimuli/Hand labour tool & accessory.png,stimuli/Kitchen & utensil.png,3,0,4,stimuli/m2.jpg,Hand labour tool & accessory,stimuli/objects/paintroller01.jpg,16,2021-05-08_14h05.08.359,premceCat2_ses-02_part-01_label-phase1,2020.2.9,MacIntel,60,4,0,0.754,0,43,43,43,1,,,,,,
1,"[1,0,0,0,1,1,0,1,1,1,0,1,1,1,1,1,0,1,1,1,1,1,1,1,1,1,1,1,1,1,1,1,1,1,1,1,0,0,0,0,0,1,1,1,1,1,1,1,1,1,1,1,1,1,1,1,1,1,0,1,0,1,1,0,1,1,1,1,1,1,1,1,0,0,1,1,0,0,1,1,0,1,1,1,1,1,1,1,1,1,1,1,1,1,1,1,1,1,0,1,1,1,1,1,1]",,,,,,,,,,1,,,,,,stimuli/m2.jpg,stimuli/m5.jpg,2,stimuli/Outdoor activity & sport item.png,stimuli/Hand labour tool & accessory.png,stimuli/Kitchen & utensil.png,stimuli/Electronic device & accessory.png,2,1,4,stimuli/m5.jpg,Hand labour tool & accessory,stimuli/objects/jigsaw.jpg,16,2021-05-08_14h05.08.359,premceCat2_ses-02_part-01_label-phase1,2020.2.9,MacIntel,60,2,1,0.953,0,44,44,44,1,,,,,,
1,"[1,0,0,0,1,1,0,1,1,1,0,1,1,1,1,1,0,1,1,1,1,1,1,1,1,1,1,1,1,1,1,1,1,1,1,1,0,0,0,0,0,1,1,1,1,1,1,1,1,1,1,1,1,1,1,1,1,1,0,1,0,1,1,0,1,1,1,1,1,1,1,1,0,0,1,1,0,0,1,1,0,1,1,1,1,1,1,1,1,1,1,1,1,1,1,1,1,1,0,1,1,1,1,1,1,1]",,,,,,,,,,1,,,,,,stimuli/m2.jpg,stimuli/m5.jpg,2,stimuli/Electronic device & accessory.png,stimuli/Kitchen & utensil.png,stimuli/Outdoor activity & sport item.png,stimuli/Hand labour tool & accessory.png,4,1,4,stimuli/m5.jpg,Hand labour tool & accessory,stimuli/objects/sewingmachine01a.jpg,16,2021-05-08_14h05.08.359,premceCat2_ses-02_part-01_label-phase1,2020.2.9,MacIntel,60,4,1,0.972,0,45,45,45,1,,,,,,
1,"[1,0,0,0,1,1,0,1,1,1,0,1,1,1,1,1,0,1,1,1,1,1,1,1,1,1,1,1,1,1,1,1,1,1,1,1,0,0,0,0,0,1,1,1,1,1,1,1,1,1,1,1,1,1,1,1,1,1,0,1,0,1,1,0,1,1,1,1,1,1,1,1,0,0,1,1,0,0,1,1,0,1,1,1,1,1,1,1,1,1,1,1,1,1,1,1,1,1,0,1,1,1,1,1,1,1,1]",,,,,,,,,,1,,,,,,stimuli/m5.jpg,stimuli/m2.jpg,2,stimuli/Outdoor activity & sport item.png,stimuli/Kitchen & utensil.png,stimuli/Electronic device & accessory.png,stimuli/Hand labour tool & accessory.png,2,1,4,stimuli/m2.jpg,Kitchen & utensil,stimuli/objects/potatomasher03b.jpg,16,2021-05-08_14h05.08.359,premceCat2_ses-02_part-01_label-phase1,2020.2.9,MacIntel,60,2,1,0.718,0,46,46,46,1,,,,,,
0,"[1,0,0,0,1,1,0,1,1,1,0,1,1,1,1,1,0,1,1,1,1,1,1,1,1,1,1,1,1,1,1,1,1,1,1,1,0,0,0,0,0,1,1,1,1,1,1,1,1,1,1,1,1,1,1,1,1,1,0,1,0,1,1,0,1,1,1,1,1,1,1,1,0,0,1,1,0,0,1,1,0,1,1,1,1,1,1,1,1,1,1,1,1,1,1,1,1,1,0,1,1,1,1,1,1,1,1,1]",,,,,,,,,,1,,,,,,stimuli/m5.jpg,stimuli/m2.jpg,2,stimuli/Kitchen & utensil.png,stimuli/Outdoor activity & sport item.png,stimuli/Hand labour tool & accessory.png,stimuli/Electronic device & accessory.png,4,0,4,stimuli/m2.jpg,Electronic device & accessory,stimuli/objects/floppydisk02a.jpg,16,2021-05-08_14h05.08.359,premceCat2_ses-02_part-01_label-phase1,2020.2.9,MacIntel,60,1,0,1.201,0,47,47,47,1,,,,,,
,,,,,,,,,,,,,,,,,,,,,,,,,,,,,,16,2021-05-08_14h05.08.359,premceCat2_ses-02_part-01_label-phase1,2020.2.9,MacIntel,60,,,,,,,,,0,2,2,2,1,condition_files/tasklistC1.csv
0,"[1,0,0,0,1,1,0,1,1,1,0,1,1,1,1,1,0,1,1,1,1,1,1,1,1,1,1,1,1,1,1,1,1,1,1,1,0,0,0,0,0,1,1,1,1,1,1,1,1,1,1,1,1,1,1,1,1,1,0,1,0,1,1,0,1,1,1,1,1,1,1,1,0,0,1,1,0,0,1,1,0,1,1,1,1,1,1,1,1,1,1,1,1,1,1,1,1,1,0,1,1,1,1,1,1,1,1,1]",,,,,,,,,,0,,,,,,stimuli/m2.jpg,stimuli/m5.jpg,1,stimuli/Kitchen & utensil.png,stimuli/Hand labour tool & accessory.png,stimuli/Electronic device & accessory.png,stimuli/Outdoor activity & sport item.png,4,1,5,stimuli/m2.jpg,Outdoor activity & sport item,stimuli/objects/shinpad.jpg,16,2021-05-08_14h05.08.359,premceCat2_ses-02_part-01_label-phase1,2020.2.9,MacIntel,60,1,0,0.704,0,0,0,0,1,,,,,,
0,"[1,0,0,0,1,1,0,1,1,1,0,1,1,1,1,1,0,1,1,1,1,1,1,1,1,1,1,1,1,1,1,1,1,1,1,1,0,0,0,0,0,1,1,1,1,1,1,1,1,1,1,1,1,1,1,1,1,1,0,1,0,1,1,0,1,1,1,1,1,1,1,1,0,0,1,1,0,0,1,1,0,1,1,1,1,1,1,1,1,1,1,1,1,1,1,1,1,1,0,1,1,1,1,1,1,1,1,1,0]",,,,,,,,,,0,,,,,,stimuli/m5.jpg,stimuli/m2.jpg,2,stimuli/Kitchen & utensil.png,stimuli/Hand labour tool & accessory.png,stimuli/Outdoor activity & sport item.png,stimuli/Electronic device & accessory.png,4,0,5,stimuli/m2.jpg,Electronic device & accessory,stimuli/objects/fanblades.jpg,16,2021-05-08_14h05.08.359,premceCat2_ses-02_part-01_label-phase1,2020.2.9,MacIntel,60,1,0,1.321,0,1,1,1,1,,,,,,
0,"[1,0,0,0,1,1,0,1,1,1,0,1,1,1,1,1,0,1,1,1,1,1,1,1,1,1,1,1,1,1,1,1,1,1,1,1,0,0,0,0,0,1,1,1,1,1,1,1,1,1,1,1,1,1,1,1,1,1,0,1,0,1,1,0,1,1,1,1,1,1,1,1,0,0,1,1,0,0,1,1,0,1,1,1,1,1,1,1,1,1,1,1,1,1,1,1,1,1,0,1,1,1,1,1,1,1,1,1,0]",,,,,,,,,,0,,,,,,stimuli/m5.jpg,stimuli/m2.jpg,2,stimuli/Electronic device & accessory.png,stimuli/Kitchen & utensil.png,stimuli/Hand labour tool & accessory.png,stimuli/Outdoor activity & sport item.png,4,1,5,stimuli/m2.jpg,Outdoor activity & sport item,stimuli/objects/poolnet.jpg,16,2021-05-08_14h05.08.359,premceCat2_ses-02_part-01_label-phase1,2020.2.9,MacIntel,60,2,0,1.136,0,2,2,2,1,,,,,,
1,"[1,0,0,0,1,1,0,1,1,1,0,1,1,1,1,1,0,1,1,1,1,1,1,1,1,1,1,1,1,1,1,1,1,1,1,1,0,0,0,0,0,1,1,1,1,1,1,1,1,1,1,1,1,1,1,1,1,1,0,1,0,1,1,0,1,1,1,1,1,1,1,1,0,0,1,1,0,0,1,1,0,1,1,1,1,1,1,1,1,1,1,1,1,1,1,1,1,1,0,1,1,1,1,1,1,1,1,1,0,0]",,,,,,,,,,1,,,,,,stimuli/m5.jpg,stimuli/m2.jpg,2,stimuli/Hand labour tool & accessory.png,stimuli/Outdoor activity & sport item.png,stimuli/Kitchen & utensil.png,stimuli/Electronic device & accessory.png,2,1,5,stimuli/m2.jpg,Outdoor activity & sport item,stimuli/objects/podium.jpg,16,2021-05-08_14h05.08.359,premceCat2_ses-02_part-01_label-phase1,2020.2.9,MacIntel,60,2,1,0.868,0,3,3,3,1,,,,,,
0,"[1,0,0,0,1,1,0,1,1,1,0,1,1,1,1,1,0,1,1,1,1,1,1,1,1,1,1,1,1,1,1,1,1,1,1,1,0,0,0,0,0,1,1,1,1,1,1,1,1,1,1,1,1,1,1,1,1,1,0,1,0,1,1,0,1,1,1,1,1,1,1,1,0,0,1,1,0,0,1,1,0,1,1,1,1,1,1,1,1,1,1,1,1,1,1,1,1,1,0,1,1,1,1,1,1,1,1,1,0,0,1]",,,,,,,,,,0,,,,,,stimuli/m2.jpg,stimuli/m5.jpg,2,stimuli/Outdoor activity & sport item.png,stimuli/Kitchen & utensil.png,stimuli/Electronic device & accessory.png,stimuli/Hand labour tool & accessory.png,3,1,5,stimuli/m5.jpg,Electronic device & accessory,stimuli/objects/chandelier.jpg,16,2021-05-08_14h05.08.359,premceCat2_ses-02_part-01_label-phase1,2020.2.9,MacIntel,60,4,0,0.819,0,4,4,4,1,,,,,,
0,"[1,0,0,0,1,1,0,1,1,1,0,1,1,1,1,1,0,1,1,1,1,1,1,1,1,1,1,1,1,1,1,1,1,1,1,1,0,0,0,0,0,1,1,1,1,1,1,1,1,1,1,1,1,1,1,1,1,1,0,1,0,1,1,0,1,1,1,1,1,1,1,1,0,0,1,1,0,0,1,1,0,1,1,1,1,1,1,1,1,1,1,1,1,1,1,1,1,1,0,1,1,1,1,1,1,1,1,1,0,0,1,0]",,,,,,,,,,0,,,,,,stimuli/m5.jpg,stimuli/m2.jpg,2,stimuli/Hand labour tool & accessory.png,stimuli/Kitchen & utensil.png,stimuli/Outdoor activity & sport item.png,stimuli/Electronic device & accessory.png,1,0,5,stimuli/m2.jpg,Hand labour tool & accessory,stimuli/objects/weedwacker.jpg,16,2021-05-08_14h05.08.359,premceCat2_ses-02_part-01_label-phase1,2020.2.9,MacIntel,60,3,0,0.854,0,5,5,5,1,,,,,,
0,"[1,0,0,0,1,1,0,1,1,1,0,1,1,1,1,1,0,1,1,1,1,1,1,1,1,1,1,1,1,1,1,1,1,1,1,1,0,0,0,0,0,1,1,1,1,1,1,1,1,1,1,1,1,1,1,1,1,1,0,1,0,1,1,0,1,1,1,1,1,1,1,1,0,0,1,1,0,0,1,1,0,1,1,1,1,1,1,1,1,1,1,1,1,1,1,1,1,1,0,1,1,1,1,1,1,1,1,1,0,0,1,0]",,,,,,,,,,0,,,,,,stimuli/m5.jpg,stimuli/m2.jpg,2,stimuli/Electronic device & accessory.png,stimuli/Outdoor activity & sport item.png,stimuli/Hand labour tool & accessory.png,stimuli/Kitchen & utensil.png,3,0,5,stimuli/m2.jpg,Hand labour tool & accessory,stimuli/objects/drill01b.jpg,16,2021-05-08_14h05.08.359,premceCat2_ses-02_part-01_label-phase1,2020.2.9,MacIntel,60,2,0,0.62,0,6,6,6,1,,,,,,
1,"[1,0,0,0,1,1,0,1,1,1,0,1,1,1,1,1,0,1,1,1,1,1,1,1,1,1,1,1,1,1,1,1,1,1,1,1,0,0,0,0,0,1,1,1,1,1,1,1,1,1,1,1,1,1,1,1,1,1,0,1,0,1,1,0,1,1,1,1,1,1,1,1,0,0,1,1,0,0,1,1,0,1,1,1,1,1,1,1,1,1,1,1,1,1,1,1,1,1,0,1,1,1,1,1,1,1,1,1,0,0,1,0]",,,,,,,,,,1,,,,,,stimuli/m5.jpg,stimuli/m2.jpg,1,stimuli/Outdoor activity & sport item.png,stimuli/Kitchen & utensil.png,stimuli/Hand labour tool & accessory.png,stimuli/Electronic device & accessory.png,4,1,5,stimuli/m5.jpg,Electronic device & accessory,stimuli/objects/scanner.jpg,16,2021-05-08_14h05.08.359,premceCat2_ses-02_part-01_label-phase1,2020.2.9,MacIntel,60,4,1,0.736,0,7,7,7,1,,,,,,
1,"[1,0,0,0,1,1,0,1,1,1,0,1,1,1,1,1,0,1,1,1,1,1,1,1,1,1,1,1,1,1,1,1,1,1,1,1,0,0,0,0,0,1,1,1,1,1,1,1,1,1,1,1,1,1,1,1,1,1,0,1,0,1,1,0,1,1,1,1,1,1,1,1,0,0,1,1,0,0,1,1,0,1,1,1,1,1,1,1,1,1,1,1,1,1,1,1,1,1,0,1,1,1,1,1,1,1,1,1,0,0,1,0,1]",,,,,,,,,,1,,,,,,stimuli/m2.jpg,stimuli/m5.jpg,1,stimuli/Kitchen & utensil.png,stimuli/Electronic device & accessory.png,stimuli/Hand labour tool & accessory.png,stimuli/Outdoor activity & sport item.png,4,1,5,stimuli/m2.jpg,Outdoor activity & sport item,stimuli/objects/iceskate.jpg,16,2021-05-08_14h05.08.359,premceCat2_ses-02_part-01_label-phase1,2020.2.9,MacIntel,60,4,1,1.151,0,8,8,8,1,,,,,,
1,"[1,0,0,0,1,1,0,1,1,1,0,1,1,1,1,1,0,1,1,1,1,1,1,1,1,1,1,1,1,1,1,1,1,1,1,1,0,0,0,0,0,1,1,1,1,1,1,1,1,1,1,1,1,1,1,1,1,1,0,1,0,1,1,0,1,1,1,1,1,1,1,1,0,0,1,1,0,0,1,1,0,1,1,1,1,1,1,1,1,1,1,1,1,1,1,1,1,1,0,1,1,1,1,1,1,1,1,1,0,0,1,0,1,1]",,,,,,,,,,1,,,,,,stimuli/m5.jpg,stimuli/m2.jpg,2,stimuli/Electronic device & accessory.png,stimuli/Kitchen & utensil.png,stimuli/Outdoor activity & sport item.png,stimuli/Hand labour tool & accessory.png,3,1,5,stimuli/m2.jpg,Outdoor activity & sport item,stimuli/objects/magneticcompass.jpg,16,2021-05-08_14h05.08.359,premceCat2_ses-02_part-01_label-phase1,2020.2.9,MacIntel,60,3,1,0.735,0,9,9,9,1,,,,,,
1,"[1,0,0,0,1,1,0,1,1,1,0,1,1,1,1,1,0,1,1,1,1,1,1,1,1,1,1,1,1,1,1,1,1,1,1,1,0,0,0,0,0,1,1,1,1,1,1,1,1,1,1,1,1,1,1,1,1,1,0,1,0,1,1,0,1,1,1,1,1,1,1,1,0,0,1,1,0,0,1,1,0,1,1,1,1,1,1,1,1,1,1,1,1,1,1,1,1,1,0,1,1,1,1,1,1,1,1,1,0,0,1,0,1,1,1]",,,,,,,,,,1,,,,,,stimuli/m5.jpg,stimuli/m2.jpg,1,stimuli/Outdoor activity & sport item.png,stimuli/Electronic device & accessory.png,stimuli/Hand labour tool & accessory.png,stimuli/Kitchen & utensil.png,2,1,5,stimuli/m5.jpg,Electronic device & accessory,stimuli/objects/nintendods.jpg,16,2021-05-08_14h05.08.359,premceCat2_ses-02_part-01_label-phase1,2020.2.9,MacIntel,60,2,1,0.602,0,10,10,10,1,,,,,,
0,"[1,0,0,0,1,1,0,1,1,1,0,1,1,1,1,1,0,1,1,1,1,1,1,1,1,1,1,1,1,1,1,1,1,1,1,1,0,0,0,0,0,1,1,1,1,1,1,1,1,1,1,1,1,1,1,1,1,1,0,1,0,1,1,0,1,1,1,1,1,1,1,1,0,0,1,1,0,0,1,1,0,1,1,1,1,1,1,1,1,1,1,1,1,1,1,1,1,1,0,1,1,1,1,1,1,1,1,1,0,0,1,0,1,1,1,1]",,,,,,,,,,1,,,,,,stimuli/m5.jpg,stimuli/m2.jpg,2,stimuli/Electronic device & accessory.png,stimuli/Hand labour tool & accessory.png,stimuli/Kitchen & utensil.png,stimuli/Outdoor activity & sport item.png,3,0,5,stimuli/m2.jpg,Kitchen & utensil,stimuli/objects/canister.jpg,16,2021-05-08_14h05.08.359,premceCat2_ses-02_part-01_label-phase1,2020.2.9,MacIntel,60,4,0,1.268,0,11,11,11,1,,,,,,
1,"[1,0,0,0,1,1,0,1,1,1,0,1,1,1,1,1,0,1,1,1,1,1,1,1,1,1,1,1,1,1,1,1,1,1,1,1,0,0,0,0,0,1,1,1,1,1,1,1,1,1,1,1,1,1,1,1,1,1,0,1,0,1,1,0,1,1,1,1,1,1,1,1,0,0,1,1,0,0,1,1,0,1,1,1,1,1,1,1,1,1,1,1,1,1,1,1,1,1,0,1,1,1,1,1,1,1,1,1,0,0,1,0,1,1,1,1]",,,,,,,,,,1,,,,,,stimuli/m2.jpg,stimuli/m5.jpg,2,stimuli/Kitchen & utensil.png,stimuli/Hand labour tool & accessory.png,stimuli/Electronic device & accessory.png,stimuli/Outdoor activity & sport item.png,3,1,5,stimuli/m5.jpg,Electronic device & accessory,stimuli/objects/filmnegative.jpg,16,2021-05-08_14h05.08.359,premceCat2_ses-02_part-01_label-phase1,2020.2.9,MacIntel,60,3,1,0.638,0,12,12,12,1,,,,,,
1,"[1,0,0,0,1,1,0,1,1,1,0,1,1,1,1,1,0,1,1,1,1,1,1,1,1,1,1,1,1,1,1,1,1,1,1,1,0,0,0,0,0,1,1,1,1,1,1,1,1,1,1,1,1,1,1,1,1,1,0,1,0,1,1,0,1,1,1,1,1,1,1,1,0,0,1,1,0,0,1,1,0,1,1,1,1,1,1,1,1,1,1,1,1,1,1,1,1,1,0,1,1,1,1,1,1,1,1,1,0,0,1,0,1,1,1,1,1]",,,,,,,,,,1,,,,,,stimuli/m5.jpg,stimuli/m2.jpg,2,stimuli/Kitchen & utensil.png,stimuli/Electronic device & accessory.png,stimuli/Hand labour tool & accessory.png,stimuli/Outdoor activity & sport item.png,4,1,5,stimuli/m2.jpg,Outdoor activity & sport item,stimuli/objects/hockeypuck.jpg,16,2021-05-08_14h05.08.359,premceCat2_ses-02_part-01_label-phase1,2020.2.9,MacIntel,60,4,1,0.747,0,13,13,13,1,,,,,,
1,"[1,0,0,0,1,1,0,1,1,1,0,1,1,1,1,1,0,1,1,1,1,1,1,1,1,1,1,1,1,1,1,1,1,1,1,1,0,0,0,0,0,1,1,1,1,1,1,1,1,1,1,1,1,1,1,1,1,1,0,1,0,1,1,0,1,1,1,1,1,1,1,1,0,0,1,1,0,0,1,1,0,1,1,1,1,1,1,1,1,1,1,1,1,1,1,1,1,1,0,1,1,1,1,1,1,1,1,1,0,0,1,0,1,1,1,1,1,1]",,,,,,,,,,1,,,,,,stimuli/m2.jpg,stimuli/m5.jpg,2,stimuli/Electronic device & accessory.png,stimuli/Outdoor activity & sport item.png,stimuli/Hand labour tool & accessory.png,stimuli/Kitchen & utensil.png,1,1,5,stimuli/m5.jpg,Electronic device & accessory,stimuli/objects/securitycamera.jpg,16,2021-05-08_14h05.08.359,premceCat2_ses-02_part-01_label-phase1,2020.2.9,MacIntel,60,1,1,0.637,0,14,14,14,1,,,,,,
1,"[1,0,0,0,1,1,0,1,1,1,0,1,1,1,1,1,0,1,1,1,1,1,1,1,1,1,1,1,1,1,1,1,1,1,1,1,0,0,0,0,0,1,1,1,1,1,1,1,1,1,1,1,1,1,1,1,1,1,0,1,0,1,1,0,1,1,1,1,1,1,1,1,0,0,1,1,0,0,1,1,0,1,1,1,1,1,1,1,1,1,1,1,1,1,1,1,1,1,0,1,1,1,1,1,1,1,1,1,0,0,1,0,1,1,1,1,1,1,1]",,,,,,,,,,1,,,,,,stimuli/m5.jpg,stimuli/m2.jpg,2,stimuli/Hand labour tool & accessory.png,stimuli/Electronic device & accessory.png,stimuli/Kitchen & utensil.png,stimuli/Outdoor activity & sport item.png,4,1,5,stimuli/m2.jpg,Outdoor activity & sport item,stimuli/objects/baseball01a.jpg,16,2021-05-08_14h05.08.359,premceCat2_ses-02_part-01_label-phase1,2020.2.9,MacIntel,60,4,1,0.788,0,15,15,15,1,,,,,,
1,"[1,0,0,0,1,1,0,1,1,1,0,1,1,1,1,1,0,1,1,1,1,1,1,1,1,1,1,1,1,1,1,1,1,1,1,1,0,0,0,0,0,1,1,1,1,1,1,1,1,1,1,1,1,1,1,1,1,1,0,1,0,1,1,0,1,1,1,1,1,1,1,1,0,0,1,1,0,0,1,1,0,1,1,1,1,1,1,1,1,1,1,1,1,1,1,1,1,1,0,1,1,1,1,1,1,1,1,1,0,0,1,0,1,1,1,1,1,1,1,1]",,,,,,,,,,1,,,,,,stimuli/m2.jpg,stimuli/m5.jpg,2,stimuli/Hand labour tool & accessory.png,stimuli/Kitchen & utensil.png,stimuli/Electronic device & accessory.png,stimuli/Outdoor activity & sport item.png,3,1,5,stimuli/m5.jpg,Electronic device & accessory,stimuli/objects/ipod.jpg,16,2021-05-08_14h05.08.359,premceCat2_ses-02_part-01_label-phase1,2020.2.9,MacIntel,60,3,1,0.817,0,16,16,16,1,,,,,,
1,"[1,0,0,0,1,1,0,1,1,1,0,1,1,1,1,1,0,1,1,1,1,1,1,1,1,1,1,1,1,1,1,1,1,1,1,1,0,0,0,0,0,1,1,1,1,1,1,1,1,1,1,1,1,1,1,1,1,1,0,1,0,1,1,0,1,1,1,1,1,1,1,1,0,0,1,1,0,0,1,1,0,1,1,1,1,1,1,1,1,1,1,1,1,1,1,1,1,1,0,1,1,1,1,1,1,1,1,1,0,0,1,0,1,1,1,1,1,1,1,1,1]",,,,,,,,,,1,,,,,,stimuli/m2.jpg,stimuli/m5.jpg,1,stimuli/Outdoor activity & sport item.png,stimuli/Electronic device & accessory.png,stimuli/Hand labour tool & accessory.png,stimuli/Kitchen & utensil.png,1,1,5,stimuli/m2.jpg,Outdoor activity & sport item,stimuli/objects/charcoalbarbecue.jpg,16,2021-05-08_14h05.08.359,premceCat2_ses-02_part-01_label-phase1,2020.2.9,MacIntel,60,1,1,0.918,0,17,17,17,1,,,,,,
1,"[1,0,0,0,1,1,0,1,1,1,0,1,1,1,1,1,0,1,1,1,1,1,1,1,1,1,1,1,1,1,1,1,1,1,1,1,0,0,0,0,0,1,1,1,1,1,1,1,1,1,1,1,1,1,1,1,1,1,0,1,0,1,1,0,1,1,1,1,1,1,1,1,0,0,1,1,0,0,1,1,0,1,1,1,1,1,1,1,1,1,1,1,1,1,1,1,1,1,0,1,1,1,1,1,1,1,1,1,0,0,1,0,1,1,1,1,1,1,1,1,1,1]",,,,,,,,,,1,,,,,,stimuli/m5.jpg,stimuli/m2.jpg,2,stimuli/Hand labour tool & accessory.png,stimuli/Electronic device & accessory.png,stimuli/Outdoor activity & sport item.png,stimuli/Kitchen & utensil.png,3,1,5,stimuli/m2.jpg,Outdoor activity & sport item,stimuli/objects/treadmill.jpg,16,2021-05-08_14h05.08.359,premceCat2_ses-02_part-01_label-phase1,2020.2.9,MacIntel,60,3,1,0.803,0,18,18,18,1,,,,,,
1,"[1,0,0,0,1,1,0,1,1,1,0,1,1,1,1,1,0,1,1,1,1,1,1,1,1,1,1,1,1,1,1,1,1,1,1,1,0,0,0,0,0,1,1,1,1,1,1,1,1,1,1,1,1,1,1,1,1,1,0,1,0,1,1,0,1,1,1,1,1,1,1,1,0,0,1,1,0,0,1,1,0,1,1,1,1,1,1,1,1,1,1,1,1,1,1,1,1,1,0,1,1,1,1,1,1,1,1,1,0,0,1,0,1,1,1,1,1,1,1,1,1,1,1]",,,,,,,,,,1,,,,,,stimuli/m2.jpg,stimuli/m5.jpg,1,stimuli/Hand labour tool & accessory.png,stimuli/Outdoor activity & sport item.png,stimuli/Electronic device & accessory.png,stimuli/Kitchen & utensil.png,2,1,5,stimuli/m2.jpg,Outdoor activity & sport item,stimuli/objects/anchor.jpg,16,2021-05-08_14h05.08.359,premceCat2_ses-02_part-01_label-phase1,2020.2.9,MacIntel,60,2,1,0.835,0,19,19,19,1,,,,,,
1,"[1,0,0,0,1,1,0,1,1,1,0,1,1,1,1,1,0,1,1,1,1,1,1,1,1,1,1,1,1,1,1,1,1,1,1,1,0,0,0,0,0,1,1,1,1,1,1,1,1,1,1,1,1,1,1,1,1,1,0,1,0,1,1,0,1,1,1,1,1,1,1,1,0,0,1,1,0,0,1,1,0,1,1,1,1,1,1,1,1,1,1,1,1,1,1,1,1,1,0,1,1,1,1,1,1,1,1,1,0,0,1,0,1,1,1,1,1,1,1,1,1,1,1,1]",,,,,,,,,,1,,,,,,stimuli/m5.jpg,stimuli/m2.jpg,2,stimuli/Hand labour tool & accessory.png,stimuli/Outdoor activity & sport item.png,stimuli/Electronic device & accessory.png,stimuli/Kitchen & utensil.png,2,1,5,stimuli/m2.jpg,Outdoor activity & sport item,stimuli/objects/baseballglove.jpg,16,2021-05-08_14h05.08.359,premceCat2_ses-02_part-01_label-phase1,2020.2.9,MacIntel,60,2,1,0.591,0,20,20,20,1,,,,,,
0,"[1,0,0,0,1,1,0,1,1,1,0,1,1,1,1,1,0,1,1,1,1,1,1,1,1,1,1,1,1,1,1,1,1,1,1,1,0,0,0,0,0,1,1,1,1,1,1,1,1,1,1,1,1,1,1,1,1,1,0,1,0,1,1,0,1,1,1,1,1,1,1,1,0,0,1,1,0,0,1,1,0,1,1,1,1,1,1,1,1,1,1,1,1,1,1,1,1,1,0,1,1,1,1,1,1,1,1,1,0,0,1,0,1,1,1,1,1,1,1,1,1,1,1,1,1]",,,,,,,,,,1,,,,,,stimuli/m2.jpg,stimuli/m5.jpg,2,stimuli/Electronic device & accessory.png,stimuli/Kitchen & utensil.png,stimuli/Outdoor activity & sport item.png,stimuli/Hand labour tool & accessory.png,4,0,5,stimuli/m5.jpg,Hand labour tool & accessory,stimuli/objects/gardenshears01a.jpg,16,2021-05-08_14h05.08.359,premceCat2_ses-02_part-01_label-phase1,2020.2.9,MacIntel,60,1,0,0.897,0,21,21,21,1,,,,,,
1,"[1,0,0,0,1,1,0,1,1,1,0,1,1,1,1,1,0,1,1,1,1,1,1,1,1,1,1,1,1,1,1,1,1,1,1,1,0,0,0,0,0,1,1,1,1,1,1,1,1,1,1,1,1,1,1,1,1,1,0,1,0,1,1,0,1,1,1,1,1,1,1,1,0,0,1,1,0,0,1,1,0,1,1,1,1,1,1,1,1,1,1,1,1,1,1,1,1,1,0,1,1,1,1,1,1,1,1,1,0,0,1,0,1,1,1,1,1,1,1,1,1,1,1,1,1]",,,,,,,,,,1,,,,,,stimuli/m2.jpg,stimuli/m5.jpg,1,stimuli/Outdoor activity & sport item.png,stimuli/Hand labour tool & accessory.png,stimuli/Electronic device & accessory.png,stimuli/Kitchen & utensil.png,1,1,5,stimuli/m2.jpg,Outdoor activity & sport item,stimuli/objects/skihelmet01.jpg,16,2021-05-08_14h05.08.359,premceCat2_ses-02_part-01_label-phase1,2020.2.9,MacIntel,60,1,1,1.18,0,22,22,22,1,,,,,,
0,"[1,0,0,0,1,1,0,1,1,1,0,1,1,1,1,1,0,1,1,1,1,1,1,1,1,1,1,1,1,1,1,1,1,1,1,1,0,0,0,0,0,1,1,1,1,1,1,1,1,1,1,1,1,1,1,1,1,1,0,1,0,1,1,0,1,1,1,1,1,1,1,1,0,0,1,1,0,0,1,1,0,1,1,1,1,1,1,1,1,1,1,1,1,1,1,1,1,1,0,1,1,1,1,1,1,1,1,1,0,0,1,0,1,1,1,1,1,1,1,1,1,1,1,1,1,1]",,,,,,,,,,1,,,,,,stimuli/m5.jpg,stimuli/m2.jpg,1,stimuli/Electronic device & accessory.png,stimuli/Kitchen & utensil.png,stimuli/Outdoor activity & sport item.png,stimuli/Hand labour tool & accessory.png,4,0,5,stimuli/m5.jpg,Hand labour tool & accessory,stimuli/objects/caulking.jpg,16,2021-05-08_14h05.08.359,premceCat2_ses-02_part-01_label-phase1,2020.2.9,MacIntel,60,1,0,1.169,0,23,23,23,1,,,,,,
0,"[1,0,0,0,1,1,0,1,1,1,0,1,1,1,1,1,0,1,1,1,1,1,1,1,1,1,1,1,1,1,1,1,1,1,1,1,0,0,0,0,0,1,1,1,1,1,1,1,1,1,1,1,1,1,1,1,1,1,0,1,0,1,1,0,1,1,1,1,1,1,1,1,0,0,1,1,0,0,1,1,0,1,1,1,1,1,1,1,1,1,1,1,1,1,1,1,1,1,0,1,1,1,1,1,1,1,1,1,0,0,1,0,1,1,1,1,1,1,1,1,1,1,1,1,1,1]",,,,,,,,,,1,,,,,,stimuli/m5.jpg,stimuli/m2.jpg,1,stimuli/Outdoor activity & sport item.png,stimuli/Electronic device & accessory.png,stimuli/Kitchen & utensil.png,stimuli/Hand labour tool & accessory.png,1,0,5,stimuli/m5.jpg,Outdoor activity & sport item,stimuli/objects/bikehelmet.jpg,16,2021-05-08_14h05.08.359,premceCat2_ses-02_part-01_label-phase1,2020.2.9,MacIntel,60,2,0,1.201,0,24,24,24,1,,,,,,
1,"[1,0,0,0,1,1,0,1,1,1,0,1,1,1,1,1,0,1,1,1,1,1,1,1,1,1,1,1,1,1,1,1,1,1,1,1,0,0,0,0,0,1,1,1,1,1,1,1,1,1,1,1,1,1,1,1,1,1,0,1,0,1,1,0,1,1,1,1,1,1,1,1,0,0,1,1,0,0,1,1,0,1,1,1,1,1,1,1,1,1,1,1,1,1,1,1,1,1,0,1,1,1,1,1,1,1,1,1,0,0,1,0,1,1,1,1,1,1,1,1,1,1,1,1,1,1]",,,,,,,,,,1,,,,,,stimuli/m5.jpg,stimuli/m2.jpg,1,stimuli/Outdoor activity & sport item.png,stimuli/Hand labour tool & accessory.png,stimuli/Kitchen & utensil.png,stimuli/Electronic device & accessory.png,4,1,5,stimuli/m5.jpg,Electronic device & accessory,stimuli/objects/slidetray.jpg,16,2021-05-08_14h05.08.359,premceCat2_ses-02_part-01_label-phase1,2020.2.9,MacIntel,60,4,1,1.038,0,25,25,25,1,,,,,,
0,"[1,0,0,0,1,1,0,1,1,1,0,1,1,1,1,1,0,1,1,1,1,1,1,1,1,1,1,1,1,1,1,1,1,1,1,1,0,0,0,0,0,1,1,1,1,1,1,1,1,1,1,1,1,1,1,1,1,1,0,1,0,1,1,0,1,1,1,1,1,1,1,1,0,0,1,1,0,0,1,1,0,1,1,1,1,1,1,1,1,1,1,1,1,1,1,1,1,1,0,1,1,1,1,1,1,1,1,1,0,0,1,0,1,1,1,1,1,1,1,1,1,1,1,1,1,1,1]",,,,,,,,,,1,,,,,,stimuli/m5.jpg,stimuli/m2.jpg,2,stimuli/Kitchen & utensil.png,stimuli/Outdoor activity & sport item.png,stimuli/Electronic device & accessory.png,stimuli/Hand labour tool & accessory.png,1,0,5,stimuli/m2.jpg,Kitchen & utensil,stimuli/objects/pot01.jpg,16,2021-05-08_14h05.08.359,premceCat2_ses-02_part-01_label-phase1,2020.2.9,MacIntel,60,2,0,0.758,0,26,26,26,1,,,,,,
