instructions_loop.thisRepN,instructions_loop.thisTrialN,instructions_loop.thisN,instructions_loop.thisIndex,instructions_loop.ran,text1,text2,text3,participant,date,expName,psychopyVersion,OS,frameRate,key_resp_2.keys,key_resp_2.rt,key_resp_3.keys,key_resp_3.rt,recog_resp.keys,recog_resp.rt,conf_resp.keys,conf_resp.rt,recog_loop.thisRepN,recog_loop.thisTrialN,recog_loop.thisN,recog_loop.thisIndex,recog_loop.ran,images,corr_ans,type,order,resp_assoc.keys,resp_assoc.rt,assoc_loop.thisRepN,assoc_loop.thisTrialN,assoc_loop.thisN,assoc_loop.thisIndex,assoc_loop.ran,key_resp_break.keys,key_resp_break.rt,list_loop.thisRepN,list_loop.thisTrialN,list_loop.thisN,list_loop.thisIndex,list_loop.ran,recog_list
0,0,0,0,1,Welcome to the last phase of this experiment!,.,Please press the space bar to continue,17,2021-05-11_10h35.41.487,premceCat2_ses-02_part-02_label-phase2,2020.2.10,Win32,60,,,,,,,,,,,,,,,,,,,,,,,,,,,,,,,,
0,1,1,1,1,.,"In this phase, you will see some objects. 

For each object, you should indicate whether you have seen it before during the experiment.

Press LEFT ARROW for YES
Press RIGHT ARROW for NO

",Please press the space bar to continue ,17,2021-05-11_10h35.41.487,premceCat2_ses-02_part-02_label-phase2,2020.2.10,Win32,60,,,,,,,,,,,,,,,,,,,,,,,,,,,,,,,,
0,2,2,2,1,.,"After that, you will be asked how confident you are of your choice.

Please rate the confidence in your choice with the numbers from 1 to 4 of your keyboard. 

The numbers correspond to:

1 = Very unsure
2 = Unsure
3 = Sure
4 = Very Sure",Please press the space bar to continue,17,2021-05-11_10h35.41.487,premceCat2_ses-02_part-02_label-phase2,2020.2.10,Win32,60,,,,,,,,,,,,,,,,,,,,,,,,,,,,,,,,
,,,,,,,,17,2021-05-11_10h35.41.487,premceCat2_ses-02_part-02_label-phase2,2020.2.10,Win32,60,space,11.865285,space,10.723635,right,4.140025,2,2.844665,0,0,0,123,1,stimuli/objects/jackhammer.jpg,right,new,267,,,,,,,,,,,,,,,
,,,,,,,,17,2021-05-11_10h35.41.487,premceCat2_ses-02_part-02_label-phase2,2020.2.10,Win32,60,,,,,right,1.449875,3,1.962575,0,1,1,64,1,stimuli/objects/volleyball.jpg,left,old,208,,,,,,,,,,,,,,,
,,,,,,,,17,2021-05-11_10h35.41.487,premceCat2_ses-02_part-02_label-phase2,2020.2.10,Win32,60,,,,,left,1.76218,4,2.427755,,,,,,,,,,left,2.437965,0,0,0,0,1,,,,,,,,
,,,,,,,,17,2021-05-11_10h35.41.487,premceCat2_ses-02_part-02_label-phase2,2020.2.10,Win32,60,,,,,,,,,0,2,2,84,1,stimuli/objects/patioumbrella.jpg,left,old,228,,,,,,,,,,,,,,,
,,,,,,,,17,2021-05-11_10h35.41.487,premceCat2_ses-02_part-02_label-phase2,2020.2.10,Win32,60,,,,,right,2.442115,3,1.318385,0,3,3,35,1,stimuli/objects/stroller.jpg,right,new,179,,,,,,,,,,,,,,,
,,,,,,,,17,2021-05-11_10h35.41.487,premceCat2_ses-02_part-02_label-phase2,2020.2.10,Win32,60,,,,,left,1.540225,4,2.241,,,,,,,,,,left,4.3786,0,0,0,0,1,,,,,,,,
,,,,,,,,17,2021-05-11_10h35.41.487,premceCat2_ses-02_part-02_label-phase2,2020.2.10,Win32,60,,,,,,,,,0,4,4,23,1,stimuli/objects/hockeypuck.jpg,left,old,167,,,,,,,,,,,,,,,
,,,,,,,,17,2021-05-11_10h35.41.487,premceCat2_ses-02_part-02_label-phase2,2020.2.10,Win32,60,,,,,right,1.45863,1,0.550965,0,5,5,78,1,stimuli/objects/lightswitch01.jpg,right,new,222,,,,,,,,,,,,,,,
,,,,,,,,17,2021-05-11_10h35.41.487,premceCat2_ses-02_part-02_label-phase2,2020.2.10,Win32,60,,,,,right,2.01207,2,1.1562,0,6,6,59,1,stimuli/objects/speedball.jpg,right,new,203,,,,,,,,,,,,,,,
,,,,,,,,17,2021-05-11_10h35.41.487,premceCat2_ses-02_part-02_label-phase2,2020.2.10,Win32,60,,,,,left,3.711395,2,2.41989,,,,,,,,,,right,0.3264,0,0,0,0,1,,,,,,,,
,,,,,,,,17,2021-05-11_10h35.41.487,premceCat2_ses-02_part-02_label-phase2,2020.2.10,Win32,60,,,,,,,,,0,7,7,132,1,stimuli/objects/wirestripper.jpg,right,new,276,,,,,,,,,,,,,,,
,,,,,,,,17,2021-05-11_10h35.41.487,premceCat2_ses-02_part-02_label-phase2,2020.2.10,Win32,60,,,,,right,2.247515,2,0.40497,0,8,8,135,1,stimuli/objects/mortarandpestle.jpg,right,new,279,,,,,,,,,,,,,,,
,,,,,,,,17,2021-05-11_10h35.41.487,premceCat2_ses-02_part-02_label-phase2,2020.2.10,Win32,60,,,,,right,1.21496,2,0.758485,0,9,9,83,1,stimuli/objects/icecubetray01a.jpg,right,new,227,,,,,,,,,,,,,,,
,,,,,,,,17,2021-05-11_10h35.41.487,premceCat2_ses-02_part-02_label-phase2,2020.2.10,Win32,60,,,,,left,1.350445,3,2.835085,,,,,,,,,,right,0.37293,0,0,0,0,1,,,,,,,,
,,,,,,,,17,2021-05-11_10h35.41.487,premceCat2_ses-02_part-02_label-phase2,2020.2.10,Win32,60,,,,,,,,,0,10,10,22,1,stimuli/objects/hoe.jpg,left,old,166,,,,,,,,,,,,,,,
,,,,,,,,17,2021-05-11_10h35.41.487,premceCat2_ses-02_part-02_label-phase2,2020.2.10,Win32,60,,,,,left,1.34496,4,2.73515,,,,,,,,,,right,1.17121,0,0,0,0,1,,,,,,,,
,,,,,,,,17,2021-05-11_10h35.41.487,premceCat2_ses-02_part-02_label-phase2,2020.2.10,Win32,60,,,,,,,,,0,11,11,53,1,stimuli/objects/tape02a.jpg,left,old,197,,,,,,,,,,,,,,,
,,,,,,,,17,2021-05-11_10h35.41.487,premceCat2_ses-02_part-02_label-phase2,2020.2.10,Win32,60,,,,,right,1.46107,1,1.423965,0,12,12,60,1,stimuli/objects/kite.jpg,right,new,204,,,,,,,,,,,,,,,
,,,,,,,,17,2021-05-11_10h35.41.487,premceCat2_ses-02_part-02_label-phase2,2020.2.10,Win32,60,,,,,left,1.135145,4,1.34106,,,,,,,,,,left,0.69144,0,0,0,0,1,,,,,,,,
,,,,,,,,17,2021-05-11_10h35.41.487,premceCat2_ses-02_part-02_label-phase2,2020.2.10,Win32,60,,,,,,,,,0,13,13,32,1,stimuli/objects/pastaspoon.jpg,left,old,176,,,,,,,,,,,,,,,
,,,,,,,,17,2021-05-11_10h35.41.487,premceCat2_ses-02_part-02_label-phase2,2020.2.10,Win32,60,,,,,left,1.510065,3,1.226675,,,,,,,,,,left,0.305835,0,0,0,0,1,,,,,,,,
,,,,,,,,17,2021-05-11_10h35.41.487,premceCat2_ses-02_part-02_label-phase2,2020.2.10,Win32,60,,,,,,,,,0,14,14,126,1,stimuli/objects/badmintonracket.jpg,left,old,270,,,,,,,,,,,,,,,
,,,,,,,,17,2021-05-11_10h35.41.487,premceCat2_ses-02_part-02_label-phase2,2020.2.10,Win32,60,,,,,left,3.08489,1,1.131535,,,,,,,,,,right,0.718555,0,0,0,0,1,,,,,,,,
,,,,,,,,17,2021-05-11_10h35.41.487,premceCat2_ses-02_part-02_label-phase2,2020.2.10,Win32,60,,,,,,,,,0,15,15,118,1,stimuli/objects/gardenshears01a.jpg,left,old,262,,,,,,,,,,,,,,,
,,,,,,,,17,2021-05-11_10h35.41.487,premceCat2_ses-02_part-02_label-phase2,2020.2.10,Win32,60,,,,,left,1.25506,3,3.873685,,,,,,,,,,left,0.6691,0,0,0,0,1,,,,,,,,
,,,,,,,,17,2021-05-11_10h35.41.487,premceCat2_ses-02_part-02_label-phase2,2020.2.10,Win32,60,,,,,,,,,0,16,16,140,1,stimuli/objects/wineglass01.jpg,right,new,284,,,,,,,,,,,,,,,
,,,,,,,,17,2021-05-11_10h35.41.487,premceCat2_ses-02_part-02_label-phase2,2020.2.10,Win32,60,,,,,left,0.97194,2,1.116795,,,,,,,,,,left,0.29533,0,0,0,0,1,,,,,,,,
,,,,,,,,17,2021-05-11_10h35.41.487,premceCat2_ses-02_part-02_label-phase2,2020.2.10,Win32,60,,,,,,,,,0,17,17,42,1,stimuli/objects/tennisracket.jpg,right,new,186,,,,,,,,,,,,,,,
,,,,,,,,17,2021-05-11_10h35.41.487,premceCat2_ses-02_part-02_label-phase2,2020.2.10,Win32,60,,,,,right,1.82788,1,0.98699,0,18,18,47,1,stimuli/objects/plate01b.jpg,right,new,191,,,,,,,,,,,,,,,
,,,,,,,,17,2021-05-11_10h35.41.487,premceCat2_ses-02_part-02_label-phase2,2020.2.10,Win32,60,,,,,left,1.20294,4,0.438875,,,,,,,,,,right,4.088975,0,0,0,0,1,,,,,,,,
,,,,,,,,17,2021-05-11_10h35.41.487,premceCat2_ses-02_part-02_label-phase2,2020.2.10,Win32,60,,,,,,,,,0,19,19,90,1,stimuli/objects/toyhockeystick01.jpg,left,old,234,,,,,,,,,,,,,,,
,,,,,,,,17,2021-05-11_10h35.41.487,premceCat2_ses-02_part-02_label-phase2,2020.2.10,Win32,60,,,,,right,3.49608,1,0.508995,0,20,20,28,1,stimuli/objects/spoon01.jpg,left,old,172,,,,,,,,,,,,,,,
,,,,,,,,17,2021-05-11_10h35.41.487,premceCat2_ses-02_part-02_label-phase2,2020.2.10,Win32,60,,,,,right,1.289865,2,0.44866,0,21,21,48,1,stimuli/objects/eggslicer.jpg,right,new,192,,,,,,,,,,,,,,,
,,,,,,,,17,2021-05-11_10h35.41.487,premceCat2_ses-02_part-02_label-phase2,2020.2.10,Win32,60,,,,,left,2.67824,2,0.34906,,,,,,,,,,left,1.824145,0,0,0,0,1,,,,,,,,
,,,,,,,,17,2021-05-11_10h35.41.487,premceCat2_ses-02_part-02_label-phase2,2020.2.10,Win32,60,,,,,,,,,0,22,22,89,1,stimuli/objects/saladspinner.jpg,left,old,233,,,,,,,,,,,,,,,
,,,,,,,,17,2021-05-11_10h35.41.487,premceCat2_ses-02_part-02_label-phase2,2020.2.10,Win32,60,,,,,left,1.552935,4,0.388795,,,,,,,,,,right,0.48659,0,0,0,0,1,,,,,,,,
,,,,,,,,17,2021-05-11_10h35.41.487,premceCat2_ses-02_part-02_label-phase2,2020.2.10,Win32,60,,,,,,,,,0,23,23,75,1,stimuli/objects/hammer01.jpg,left,old,219,,,,,,,,,,,,,,,
,,,,,,,,17,2021-05-11_10h35.41.487,premceCat2_ses-02_part-02_label-phase2,2020.2.10,Win32,60,,,,,right,1.490965,2,1.163475,0,24,24,103,1,stimuli/objects/swissarmyknife01a.jpg,right,new,247,,,,,,,,,,,,,,,
,,,,,,,,17,2021-05-11_10h35.41.487,premceCat2_ses-02_part-02_label-phase2,2020.2.10,Win32,60,,,,,right,2.831925,4,1.039465,0,25,25,69,1,stimuli/objects/straw.jpg,right,new,213,,,,,,,,,,,,,,,
,,,,,,,,17,2021-05-11_10h35.41.487,premceCat2_ses-02_part-02_label-phase2,2020.2.10,Win32,60,,,,,left,2.973175,3,1.689865,,,,,,,,,,right,1.656875,0,0,0,0,1,,,,,,,,
,,,,,,,,17,2021-05-11_10h35.41.487,premceCat2_ses-02_part-02_label-phase2,2020.2.10,Win32,60,,,,,,,,,0,26,26,96,1,stimuli/objects/mallet01b.jpg,left,old,240,,,,,,,,,,,,,,,
,,,,,,,,17,2021-05-11_10h35.41.487,premceCat2_ses-02_part-02_label-phase2,2020.2.10,Win32,60,,,,,right,1.373175,4,0.70844,0,27,27,26,1,stimuli/objects/flashlight02b.jpg,right,new,170,,,,,,,,,,,,,,,
,,,,,,,,17,2021-05-11_10h35.41.487,premceCat2_ses-02_part-02_label-phase2,2020.2.10,Win32,60,,,,,left,1.211195,4,2.389175,,,,,,,,,,left,0.35572,0,0,0,0,1,,,,,,,,
,,,,,,,,17,2021-05-11_10h35.41.487,premceCat2_ses-02_part-02_label-phase2,2020.2.10,Win32,60,,,,,,,,,0,28,28,139,1,stimuli/objects/toothpick02.jpg,left,old,283,,,,,,,,,,,,,,,
,,,,,,,,17,2021-05-11_10h35.41.487,premceCat2_ses-02_part-02_label-phase2,2020.2.10,Win32,60,,,,,left,1.23566,4,0.610495,,,,,,,,,,left,0.809755,0,0,0,0,1,,,,,,,,
,,,,,,,,17,2021-05-11_10h35.41.487,premceCat2_ses-02_part-02_label-phase2,2020.2.10,Win32,60,,,,,,,,,0,29,29,56,1,stimuli/objects/tupperware03a.jpg,left,old,200,,,,,,,,,,,,,,,
,,,,,,,,17,2021-05-11_10h35.41.487,premceCat2_ses-02_part-02_label-phase2,2020.2.10,Win32,60,,,,,right,2.184,1,0.658725,0,30,30,21,1,stimuli/objects/boltcutter.jpg,left,old,165,,,,,,,,,,,,,,,
,,,,,,,,17,2021-05-11_10h35.41.487,premceCat2_ses-02_part-02_label-phase2,2020.2.10,Win32,60,,,,,right,1.25936,3,1.256145,0,31,31,38,1,stimuli/objects/espressomachine.jpg,left,old,182,,,,,,,,,,,,,,,
,,,,,,,,17,2021-05-11_10h35.41.487,premceCat2_ses-02_part-02_label-phase2,2020.2.10,Win32,60,,,,,right,3.999025,1,1.414205,0,32,32,136,1,stimuli/objects/bikepump01.jpg,left,old,280,,,,,,,,,,,,,,,
,,,,,,,,17,2021-05-11_10h35.41.487,premceCat2_ses-02_part-02_label-phase2,2020.2.10,Win32,60,,,,,left,1.138415,4,1.6351,,,,,,,,,,left,1.11639,0,0,0,0,1,,,,,,,,
,,,,,,,,17,2021-05-11_10h35.41.487,premceCat2_ses-02_part-02_label-phase2,2020.2.10,Win32,60,,,,,,,,,0,33,33,50,1,stimuli/objects/iceskate.jpg,left,old,194,,,,,,,,,,,,,,,
,,,,,,,,17,2021-05-11_10h35.41.487,premceCat2_ses-02_part-02_label-phase2,2020.2.10,Win32,60,,,,,right,1.463275,3,0.52932,0,34,34,44,1,stimuli/objects/toaster01.jpg,right,new,188,,,,,,,,,,,,,,,
,,,,,,,,17,2021-05-11_10h35.41.487,premceCat2_ses-02_part-02_label-phase2,2020.2.10,Win32,60,,,,,right,1.704165,1,0.526675,0,35,35,70,1,stimuli/objects/shovel01.jpg,right,new,214,,,,,,,,,,,,,,,
,,,,,,,,17,2021-05-11_10h35.41.487,premceCat2_ses-02_part-02_label-phase2,2020.2.10,Win32,60,,,,,left,3.640015,1,1.55141,,,,,,,,,,right,0.56765,0,0,0,0,1,,,,,,,,
,,,,,,,,17,2021-05-11_10h35.41.487,premceCat2_ses-02_part-02_label-phase2,2020.2.10,Win32,60,,,,,,,,,0,36,36,57,1,stimuli/objects/soccerball.jpg,left,old,201,,,,,,,,,,,,,,,
,,,,,,,,17,2021-05-11_10h35.41.487,premceCat2_ses-02_part-02_label-phase2,2020.2.10,Win32,60,,,,,left,1.855645,4,1.257615,,,,,,,,,,left,0.37437,0,0,0,0,1,,,,,,,,
,,,,,,,,17,2021-05-11_10h35.41.487,premceCat2_ses-02_part-02_label-phase2,2020.2.10,Win32,60,,,,,,,,,0,37,37,110,1,stimuli/objects/hockeygoaliepad.jpg,left,old,254,,,,,,,,,,,,,,,
,,,,,,,,17,2021-05-11_10h35.41.487,premceCat2_ses-02_part-02_label-phase2,2020.2.10,Win32,60,,,,,right,1.40421,3,2.355705,0,38,38,82,1,stimuli/objects/shopvac.jpg,right,new,226,,,,,,,,,,,,,,,
,,,,,,,,17,2021-05-11_10h35.41.487,premceCat2_ses-02_part-02_label-phase2,2020.2.10,Win32,60,,,,,right,1.867105,3,1.191875,0,39,39,81,1,stimuli/objects/grill.jpg,right,new,225,,,,,,,,,,,,,,,
,,,,,,,,17,2021-05-11_10h35.41.487,premceCat2_ses-02_part-02_label-phase2,2020.2.10,Win32,60,,,,,left,1.07151,4,1.521285,,,,,,,,,,left,0.47905,0,0,0,0,1,,,,,,,,
,,,,,,,,17,2021-05-11_10h35.41.487,premceCat2_ses-02_part-02_label-phase2,2020.2.10,Win32,60,,,,,,,,,0,40,40,106,1,stimuli/objects/nintendods.jpg,left,old,250,,,,,,,,,,,,,,,
,,,,,,,,17,2021-05-11_10h35.41.487,premceCat2_ses-02_part-02_label-phase2,2020.2.10,Win32,60,,,,,left,4.628325,1,0.36671,,,,,,,,,,left,0.477175,0,0,0,0,1,,,,,,,,
,,,,,,,,17,2021-05-11_10h35.41.487,premceCat2_ses-02_part-02_label-phase2,2020.2.10,Win32,60,,,,,,,,,0,41,41,30,1,stimuli/objects/halogenlightbulb.jpg,right,new,174,,,,,,,,,,,,,,,
,,,,,,,,17,2021-05-11_10h35.41.487,premceCat2_ses-02_part-02_label-phase2,2020.2.10,Win32,60,,,,,left,1.42081,3,1.10552,,,,,,,,,,right,1.010595,0,0,0,0,1,,,,,,,,
,,,,,,,,17,2021-05-11_10h35.41.487,premceCat2_ses-02_part-02_label-phase2,2020.2.10,Win32,60,,,,,,,,,0,42,42,116,1,stimuli/objects/lockingplier.jpg,right,new,260,,,,,,,,,,,,,,,
,,,,,,,,17,2021-05-11_10h35.41.487,premceCat2_ses-02_part-02_label-phase2,2020.2.10,Win32,60,,,,,right,1.49872,4,1.26495,0,43,43,2,1,stimuli/objects/wetfloorsign.jpg,right,new,146,,,,,,,,,,,,,,,
,,,,,,,,17,2021-05-11_10h35.41.487,premceCat2_ses-02_part-02_label-phase2,2020.2.10,Win32,60,,,,,left,3.02702,1,0.34262,,,,,,,,,,right,1.80432,0,0,0,0,1,,,,,,,,
,,,,,,,,17,2021-05-11_10h35.41.487,premceCat2_ses-02_part-02_label-phase2,2020.2.10,Win32,60,,,,,,,,,0,44,44,86,1,stimuli/objects/trampoline.jpg,right,new,230,,,,,,,,,,,,,,,
,,,,,,,,17,2021-05-11_10h35.41.487,premceCat2_ses-02_part-02_label-phase2,2020.2.10,Win32,60,,,,,left,1.38426,4,0.90883,,,,,,,,,,left,0.542155,0,0,0,0,1,,,,,,,,
,,,,,,,,17,2021-05-11_10h35.41.487,premceCat2_ses-02_part-02_label-phase2,2020.2.10,Win32,60,,,,,,,,,0,45,45,88,1,stimuli/objects/kiddiepool.jpg,left,old,232,,,,,,,,,,,,,,,
,,,,,,,,17,2021-05-11_10h35.41.487,premceCat2_ses-02_part-02_label-phase2,2020.2.10,Win32,60,,,,,right,1.56181,3,1.1459,0,46,46,131,1,stimuli/objects/handblender.jpg,right,new,275,,,,,,,,,,,,,,,
,,,,,,,,17,2021-05-11_10h35.41.487,premceCat2_ses-02_part-02_label-phase2,2020.2.10,Win32,60,,,,,left,1.11382,4,0.54134,,,,,,,,,,left,1.022185,0,0,0,0,1,,,,,,,,
,,,,,,,,17,2021-05-11_10h35.41.487,premceCat2_ses-02_part-02_label-phase2,2020.2.10,Win32,60,,,,,,,,,0,47,47,112,1,stimuli/objects/telephone01b.jpg,left,old,256,,,,,,,,,,,,,,,
,,,,,,,,17,2021-05-11_10h35.41.487,premceCat2_ses-02_part-02_label-phase2,2020.2.10,Win32,60,,,,,right,1.90202,2,0.47361,0,48,48,17,1,stimuli/objects/bikelock.jpg,left,old,161,,,,,,,,,,,,,,,
,,,,,,,,17,2021-05-11_10h35.41.487,premceCat2_ses-02_part-02_label-phase2,2020.2.10,Win32,60,,,,,right,4.24499,2,1.866475,0,49,49,73,1,stimuli/objects/propanetank01.jpg,left,old,217,,,,,,,,,,,,,,,
,,,,,,,,17,2021-05-11_10h35.41.487,premceCat2_ses-02_part-02_label-phase2,2020.2.10,Win32,60,,,,,left,1.743435,3,1.144725,,,,,,,,,,right,1.105065,0,0,0,0,1,,,,,,,,
,,,,,,,,17,2021-05-11_10h35.41.487,premceCat2_ses-02_part-02_label-phase2,2020.2.10,Win32,60,,,,,,,,,0,50,50,58,1,stimuli/objects/swimgoggles.jpg,left,old,202,,,,,,,,,,,,,,,
,,,,,,,,17,2021-05-11_10h35.41.487,premceCat2_ses-02_part-02_label-phase2,2020.2.10,Win32,60,,,,,left,1.79195,4,0.52735,,,,,,,,,,left,0.30901,0,0,0,0,1,,,,,,,,
,,,,,,,,17,2021-05-11_10h35.41.487,premceCat2_ses-02_part-02_label-phase2,2020.2.10,Win32,60,,,,,,,,,0,51,51,141,1,stimuli/objects/spatula04.jpg,left,old,285,,,,,,,,,,,,,,,
,,,,,,,,17,2021-05-11_10h35.41.487,premceCat2_ses-02_part-02_label-phase2,2020.2.10,Win32,60,,,,,right,1.28851,1,0.30897,0,52,52,127,1,stimuli/objects/skigoggles01.jpg,right,new,271,,,,,,,,,,,,,,,
,,,,,,,,17,2021-05-11_10h35.41.487,premceCat2_ses-02_part-02_label-phase2,2020.2.10,Win32,60,,,,,right,2.922055,2,0.659655,0,53,53,12,1,stimuli/objects/fanheater.jpg,right,new,156,,,,,,,,,,,,,,,
,,,,,,,,17,2021-05-11_10h35.41.487,premceCat2_ses-02_part-02_label-phase2,2020.2.10,Win32,60,,,,,left,2.87948,3,0.54239,,,,,,,,,,right,0.548925,0,0,0,0,1,,,,,,,,
,,,,,,,,17,2021-05-11_10h35.41.487,premceCat2_ses-02_part-02_label-phase2,2020.2.10,Win32,60,,,,,,,,,0,54,54,109,1,stimuli/objects/waterbottle03.jpg,left,old,253,,,,,,,,,,,,,,,
,,,,,,,,17,2021-05-11_10h35.41.487,premceCat2_ses-02_part-02_label-phase2,2020.2.10,Win32,60,,,,,right,1.48066,2,0.84296,0,55,55,138,1,stimuli/objects/beermug01a.jpg,right,new,282,,,,,,,,,,,,,,,
,,,,,,,,17,2021-05-11_10h35.41.487,premceCat2_ses-02_part-02_label-phase2,2020.2.10,Win32,60,,,,,right,1.509825,4,0.35525,0,56,56,39,1,stimuli/objects/wafflemaker.jpg,right,new,183,,,,,,,,,,,,,,,
,,,,,,,,17,2021-05-11_10h35.41.487,premceCat2_ses-02_part-02_label-phase2,2020.2.10,Win32,60,,,,,left,1.130865,4,0.375515,,,,,,,,,,left,0.335585,0,0,0,0,1,,,,,,,,
,,,,,,,,17,2021-05-11_10h35.41.487,premceCat2_ses-02_part-02_label-phase2,2020.2.10,Win32,60,,,,,,,,,0,57,57,63,1,stimuli/objects/woodenspoon.jpg,left,old,207,,,,,,,,,,,,,,,
,,,,,,,,17,2021-05-11_10h35.41.487,premceCat2_ses-02_part-02_label-phase2,2020.2.10,Win32,60,,,,,left,1.604025,4,1.426325,,,,,,,,,,right,0.692515,0,0,0,0,1,,,,,,,,
,,,,,,,,17,2021-05-11_10h35.41.487,premceCat2_ses-02_part-02_label-phase2,2020.2.10,Win32,60,,,,,,,,,0,58,58,54,1,stimuli/objects/toyhardhat.jpg,left,old,198,,,,,,,,,,,,,,,
,,,,,,,,17,2021-05-11_10h35.41.487,premceCat2_ses-02_part-02_label-phase2,2020.2.10,Win32,60,,,,,left,1.617045,1,2.726775,,,,,,,,,,right,1.476735,0,0,0,0,1,,,,,,,,
,,,,,,,,17,2021-05-11_10h35.41.487,premceCat2_ses-02_part-02_label-phase2,2020.2.10,Win32,60,,,,,,,,,0,59,59,133,1,stimuli/objects/birdie.jpg,right,new,277,,,,,,,,,,,,,,,
,,,,,,,,17,2021-05-11_10h35.41.487,premceCat2_ses-02_part-02_label-phase2,2020.2.10,Win32,60,,,,,right,5.363265,1,1.85461,0,60,60,120,1,stimuli/objects/tent.jpg,right,new,264,,,,,,,,,,,,,,,
,,,,,,,,17,2021-05-11_10h35.41.487,premceCat2_ses-02_part-02_label-phase2,2020.2.10,Win32,60,,,,,left,1.39716,4,3.40062,,,,,,,,,,right,1.811935,0,0,0,0,1,,,,,,,,
,,,,,,,,17,2021-05-11_10h35.41.487,premceCat2_ses-02_part-02_label-phase2,2020.2.10,Win32,60,,,,,,,,,0,61,61,117,1,stimuli/objects/podium.jpg,left,old,261,,,,,,,,,,,,,,,
,,,,,,,,17,2021-05-11_10h35.41.487,premceCat2_ses-02_part-02_label-phase2,2020.2.10,Win32,60,,,,,left,2.486855,3,3.492,,,,,,,,,,left,0.86104,0,0,0,0,1,,,,,,,,
,,,,,,,,17,2021-05-11_10h35.41.487,premceCat2_ses-02_part-02_label-phase2,2020.2.10,Win32,60,,,,,,,,,0,62,62,97,1,stimuli/objects/coffeepot03a.jpg,left,old,241,,,,,,,,,,,,,,,
,,,,,,,,17,2021-05-11_10h35.41.487,premceCat2_ses-02_part-02_label-phase2,2020.2.10,Win32,60,,,,,right,3.261035,3,1.021895,0,63,63,9,1,stimuli/objects/alarmsystem.jpg,right,new,153,,,,,,,,,,,,,,,
,,,,,,,,17,2021-05-11_10h35.41.487,premceCat2_ses-02_part-02_label-phase2,2020.2.10,Win32,60,,,,,right,1.928685,3,0.39618,0,64,64,122,1,stimuli/objects/hockeystick.jpg,right,new,266,,,,,,,,,,,,,,,
,,,,,,,,17,2021-05-11_10h35.41.487,premceCat2_ses-02_part-02_label-phase2,2020.2.10,Win32,60,,,,,right,1.30787,3,0.592355,0,65,65,107,1,stimuli/objects/dolly01.jpg,right,new,251,,,,,,,,,,,,,,,
,,,,,,,,17,2021-05-11_10h35.41.487,premceCat2_ses-02_part-02_label-phase2,2020.2.10,Win32,60,,,,,right,1.399345,3,0.37156,0,66,66,40,1,stimuli/objects/tablesaw.jpg,right,new,184,,,,,,,,,,,,,,,
,,,,,,,,17,2021-05-11_10h35.41.487,premceCat2_ses-02_part-02_label-phase2,2020.2.10,Win32,60,,,,,left,1.284565,4,0.391765,,,,,,,,,,left,1.525635,0,0,0,0,1,,,,,,,,
,,,,,,,,17,2021-05-11_10h35.41.487,premceCat2_ses-02_part-02_label-phase2,2020.2.10,Win32,60,,,,,,,,,0,67,67,130,1,stimuli/objects/fan.jpg,left,old,274,,,,,,,,,,,,,,,
,,,,,,,,17,2021-05-11_10h35.41.487,premceCat2_ses-02_part-02_label-phase2,2020.2.10,Win32,60,,,,,right,2.14324,2,0.53654,0,68,68,34,1,stimuli/objects/kneepad01c.jpg,right,new,178,,,,,,,,,,,,,,,
,,,,,,,,17,2021-05-11_10h35.41.487,premceCat2_ses-02_part-02_label-phase2,2020.2.10,Win32,60,,,,,left,1.10221,4,0.732635,,,,,,,,,,right,2.20532,0,0,0,0,1,,,,,,,,
,,,,,,,,17,2021-05-11_10h35.41.487,premceCat2_ses-02_part-02_label-phase2,2020.2.10,Win32,60,,,,,,,,,0,69,69,8,1,stimuli/objects/wheel01.jpg,left,old,152,,,,,,,,,,,,,,,
,,,,,,,,17,2021-05-11_10h35.41.487,premceCat2_ses-02_part-02_label-phase2,2020.2.10,Win32,60,,,,,left,1.248495,1,0.969975,,,,,,,,,,right,2.64529,0,0,0,0,1,,,,,,,,
,,,,,,,,17,2021-05-11_10h35.41.487,premceCat2_ses-02_part-02_label-phase2,2020.2.10,Win32,60,,,,,,,,,0,70,70,101,1,stimuli/objects/lifejacket.jpg,right,new,245,,,,,,,,,,,,,,,
,,,,,,,,17,2021-05-11_10h35.41.487,premceCat2_ses-02_part-02_label-phase2,2020.2.10,Win32,60,,,,,left,1.350715,2,1.16185,,,,,,,,,,left,0.930095,0,0,0,0,1,,,,,,,,
,,,,,,,,17,2021-05-11_10h35.41.487,premceCat2_ses-02_part-02_label-phase2,2020.2.10,Win32,60,,,,,,,,,0,71,71,24,1,stimuli/objects/monitor.jpg,right,new,168,,,,,,,,,,,,,,,
,,,,,,,,17,2021-05-11_10h35.41.487,premceCat2_ses-02_part-02_label-phase2,2020.2.10,Win32,60,,,,,right,4.40101,1,1.563015,0,72,72,137,1,stimuli/objects/nutcracker01.jpg,right,new,281,,,,,,,,,,,,,,,
,,,,,,,,17,2021-05-11_10h35.41.487,premceCat2_ses-02_part-02_label-phase2,2020.2.10,Win32,60,,,,,left,1.486825,3,8.649895,,,,,,,,,,right,2.647285,0,0,0,0,1,,,,,,,,
,,,,,,,,17,2021-05-11_10h35.41.487,premceCat2_ses-02_part-02_label-phase2,2020.2.10,Win32,60,,,,,,,,,0,73,73,61,1,stimuli/objects/wateringcan.jpg,left,old,205,,,,,,,,,,,,,,,
,,,,,,,,17,2021-05-11_10h35.41.487,premceCat2_ses-02_part-02_label-phase2,2020.2.10,Win32,60,,,,,left,1.342185,1,0.88829,,,,,,,,,,left,0.64996,0,0,0,0,1,,,,,,,,
,,,,,,,,17,2021-05-11_10h35.41.487,premceCat2_ses-02_part-02_label-phase2,2020.2.10,Win32,60,,,,,,,,,0,74,74,15,1,stimuli/objects/computermouse06.jpg,right,new,159,,,,,,,,,,,,,,,
,,,,,,,,17,2021-05-11_10h35.41.487,premceCat2_ses-02_part-02_label-phase2,2020.2.10,Win32,60,,,,,left,2.45718,4,1.72652,,,,,,,,,,right,0.475995,0,0,0,0,1,,,,,,,,
,,,,,,,,17,2021-05-11_10h35.41.487,premceCat2_ses-02_part-02_label-phase2,2020.2.10,Win32,60,,,,,,,,,0,75,75,108,1,stimuli/objects/crocodileclips.jpg,left,old,252,,,,,,,,,,,,,,,
,,,,,,,,17,2021-05-11_10h35.41.487,premceCat2_ses-02_part-02_label-phase2,2020.2.10,Win32,60,,,,,left,1.526645,4,1.055665,,,,,,,,,,right,0.258515,0,0,0,0,1,,,,,,,,
,,,,,,,,17,2021-05-11_10h35.41.487,premceCat2_ses-02_part-02_label-phase2,2020.2.10,Win32,60,,,,,,,,,0,76,76,71,1,stimuli/objects/handgripper.jpg,left,old,215,,,,,,,,,,,,,,,
,,,,,,,,17,2021-05-11_10h35.41.487,premceCat2_ses-02_part-02_label-phase2,2020.2.10,Win32,60,,,,,left,3.5577,1,0.89234,,,,,,,,,,right,0.45743,0,0,0,0,1,,,,,,,,
,,,,,,,,17,2021-05-11_10h35.41.487,premceCat2_ses-02_part-02_label-phase2,2020.2.10,Win32,60,,,,,,,,,0,77,77,129,1,stimuli/objects/snowblower.jpg,left,old,273,,,,,,,,,,,,,,,
,,,,,,,,17,2021-05-11_10h35.41.487,premceCat2_ses-02_part-02_label-phase2,2020.2.10,Win32,60,,,,,right,4.03851,1,0.36268,0,78,78,36,1,stimuli/objects/loppingshears.jpg,right,new,180,,,,,,,,,,,,,,,
,,,,,,,,17,2021-05-11_10h35.41.487,premceCat2_ses-02_part-02_label-phase2,2020.2.10,Win32,60,,,,,left,3.10394,1,0.924445,,,,,,,,,,right,0.68612,0,0,0,0,1,,,,,,,,
,,,,,,,,17,2021-05-11_10h35.41.487,premceCat2_ses-02_part-02_label-phase2,2020.2.10,Win32,60,,,,,,,,,0,79,79,66,1,stimuli/objects/heatpump.jpg,right,new,210,,,,,,,,,,,,,,,
,,,,,,,,17,2021-05-11_10h35.41.487,premceCat2_ses-02_part-02_label-phase2,2020.2.10,Win32,60,,,,,left,1.45064,4,0.317165,,,,,,,,,,right,0.306655,0,0,0,0,1,,,,,,,,
,,,,,,,,17,2021-05-11_10h35.41.487,premceCat2_ses-02_part-02_label-phase2,2020.2.10,Win32,60,,,,,,,,,0,80,80,37,1,stimuli/objects/carantenna.jpg,left,old,181,,,,,,,,,,,,,,,
,,,,,,,,17,2021-05-11_10h35.41.487,premceCat2_ses-02_part-02_label-phase2,2020.2.10,Win32,60,,,,,left,1.768555,4,0.84047,,,,,,,,,,right,0.37174,0,0,0,0,1,,,,,,,,
,,,,,,,,17,2021-05-11_10h35.41.487,premceCat2_ses-02_part-02_label-phase2,2020.2.10,Win32,60,,,,,,,,,0,81,81,93,1,stimuli/objects/rope03.jpg,left,old,237,,,,,,,,,,,,,,,
,,,,,,,,17,2021-05-11_10h35.41.487,premceCat2_ses-02_part-02_label-phase2,2020.2.10,Win32,60,,,,,left,1.14074,2,0.776865,,,,,,,,,,right,0.325455,0,0,0,0,1,,,,,,,,
,,,,,,,,17,2021-05-11_10h35.41.487,premceCat2_ses-02_part-02_label-phase2,2020.2.10,Win32,60,,,,,,,,,0,82,82,31,1,stimuli/objects/hockeygoaliemask.jpg,left,old,175,,,,,,,,,,,,,,,
,,,,,,,,17,2021-05-11_10h35.41.487,premceCat2_ses-02_part-02_label-phase2,2020.2.10,Win32,60,,,,,left,1.77242,4,0.31683,,,,,,,,,,right,1.05781,0,0,0,0,1,,,,,,,,
,,,,,,,,17,2021-05-11_10h35.41.487,premceCat2_ses-02_part-02_label-phase2,2020.2.10,Win32,60,,,,,,,,,0,83,83,65,1,stimuli/objects/jigsaw.jpg,left,old,209,,,,,,,,,,,,,,,
,,,,,,,,17,2021-05-11_10h35.41.487,premceCat2_ses-02_part-02_label-phase2,2020.2.10,Win32,60,,,,,left,1.889395,2,0.87505,,,,,,,,,,right,1.04341,0,0,0,0,1,,,,,,,,
,,,,,,,,17,2021-05-11_10h35.41.487,premceCat2_ses-02_part-02_label-phase2,2020.2.10,Win32,60,,,,,,,,,0,84,84,51,1,stimuli/objects/cheeseknife01.jpg,right,new,195,,,,,,,,,,,,,,,
,,,,,,,,17,2021-05-11_10h35.41.487,premceCat2_ses-02_part-02_label-phase2,2020.2.10,Win32,60,,,,,left,1.658715,4,0.41773,,,,,,,,,,left,0.511185,0,0,0,0,1,,,,,,,,
,,,,,,,,17,2021-05-11_10h35.41.487,premceCat2_ses-02_part-02_label-phase2,2020.2.10,Win32,60,,,,,,,,,0,85,85,25,1,stimuli/objects/jar02.jpg,left,old,169,,,,,,,,,,,,,,,
,,,,,,,,17,2021-05-11_10h35.41.487,premceCat2_ses-02_part-02_label-phase2,2020.2.10,Win32,60,,,,,left,1.117055,2,0.90181,,,,,,,,,,left,1.315735,0,0,0,0,1,,,,,,,,
,,,,,,,,17,2021-05-11_10h35.41.487,premceCat2_ses-02_part-02_label-phase2,2020.2.10,Win32,60,,,,,,,,,0,86,86,85,1,stimuli/objects/usbcable01a.jpg,left,old,229,,,,,,,,,,,,,,,
,,,,,,,,17,2021-05-11_10h35.41.487,premceCat2_ses-02_part-02_label-phase2,2020.2.10,Win32,60,,,,,left,1.03949,4,0.975845,,,,,,,,,,left,0.26452,0,0,0,0,1,,,,,,,,
,,,,,,,,17,2021-05-11_10h35.41.487,premceCat2_ses-02_part-02_label-phase2,2020.2.10,Win32,60,,,,,,,,,0,87,87,119,1,stimuli/objects/cleaver01.jpg,left,old,263,,,,,,,,,,,,,,,
,,,,,,,,17,2021-05-11_10h35.41.487,premceCat2_ses-02_part-02_label-phase2,2020.2.10,Win32,60,,,,,right,3.52425,3,1.862845,0,88,88,121,1,stimuli/objects/parachute.jpg,right,new,265,,,,,,,,,,,,,,,
,,,,,,,,17,2021-05-11_10h35.41.487,premceCat2_ses-02_part-02_label-phase2,2020.2.10,Win32,60,,,,,left,1.13115,2,1.23927,,,,,,,,,,right,0.37056,0,0,0,0,1,,,,,,,,
,,,,,,,,17,2021-05-11_10h35.41.487,premceCat2_ses-02_part-02_label-phase2,2020.2.10,Win32,60,,,,,,,,,0,89,89,100,1,stimuli/objects/wheelbarrow01.jpg,left,old,244,,,,,,,,,,,,,,,
,,,,,,,,17,2021-05-11_10h35.41.487,premceCat2_ses-02_part-02_label-phase2,2020.2.10,Win32,60,,,,,right,1.084225,2,0.67747,0,90,90,19,1,stimuli/objects/mug01.jpg,right,new,163,,,,,,,,,,,,,,,
,,,,,,,,17,2021-05-11_10h35.41.487,premceCat2_ses-02_part-02_label-phase2,2020.2.10,Win32,60,,,,,right,1.53043,2,0.594945,0,91,91,98,1,stimuli/objects/cameracase01a.jpg,right,new,242,,,,,,,,,,,,,,,
,,,,,,,,17,2021-05-11_10h35.41.487,premceCat2_ses-02_part-02_label-phase2,2020.2.10,Win32,60,,,,,right,0.89625,2,0.23438,0,92,92,95,1,stimuli/objects/tennisball01b.jpg,right,new,239,,,,,,,,,,,,,,,
,,,,,,,,17,2021-05-11_10h35.41.487,premceCat2_ses-02_part-02_label-phase2,2020.2.10,Win32,60,,,,,left,0.95659,4,1.810325,,,,,,,,,,left,0.51804,0,0,0,0,1,,,,,,,,
,,,,,,,,17,2021-05-11_10h35.41.487,premceCat2_ses-02_part-02_label-phase2,2020.2.10,Win32,60,,,,,,,,,0,93,93,115,1,stimuli/objects/towel01.jpg,left,old,259,,,,,,,,,,,,,,,
,,,,,,,,17,2021-05-11_10h35.41.487,premceCat2_ses-02_part-02_label-phase2,2020.2.10,Win32,60,,,,,left,0.99051,4,0.782585,,,,,,,,,,left,0.210045,0,0,0,0,1,,,,,,,,
,,,,,,,,17,2021-05-11_10h35.41.487,premceCat2_ses-02_part-02_label-phase2,2020.2.10,Win32,60,,,,,,,,,0,94,94,4,1,stimuli/objects/cassettetape01a.jpg,right,new,148,,,,,,,,,,,,,,,
,,,,,,,,17,2021-05-11_10h35.41.487,premceCat2_ses-02_part-02_label-phase2,2020.2.10,Win32,60,,,,,left,2.943085,3,0.753205,,,,,,,,,,right,1.15185,0,0,0,0,1,,,,,,,,
,,,,,,,,17,2021-05-11_10h35.41.487,premceCat2_ses-02_part-02_label-phase2,2020.2.10,Win32,60,,,,,,,,,0,95,95,14,1,stimuli/objects/boatmotor.jpg,left,old,158,,,,,,,,,,,,,,,
,,,,,,,,17,2021-05-11_10h35.41.487,premceCat2_ses-02_part-02_label-phase2,2020.2.10,Win32,60,,,,,right,3.14418,2,0.608535,0,96,96,55,1,stimuli/objects/fonduefork01.jpg,right,new,199,,,,,,,,,,,,,,,
,,,,,,,,17,2021-05-11_10h35.41.487,premceCat2_ses-02_part-02_label-phase2,2020.2.10,Win32,60,,,,,right,12.45679,1,3.84852,0,97,97,16,1,stimuli/objects/bottleopener01.jpg,right,new,160,,,,,,,,,,,,,,,
,,,,,,,,17,2021-05-11_10h35.41.487,premceCat2_ses-02_part-02_label-phase2,2020.2.10,Win32,60,,,,,right,1.367505,1,0.312215,0,98,98,46,1,stimuli/objects/waterbottleholder.jpg,right,new,190,,,,,,,,,,,,,,,
,,,,,,,,17,2021-05-11_10h35.41.487,premceCat2_ses-02_part-02_label-phase2,2020.2.10,Win32,60,,,,,right,3.281545,2,0.335965,0,99,99,94,1,stimuli/objects/file.jpg,right,new,238,,,,,,,,,,,,,,,
,,,,,,,,17,2021-05-11_10h35.41.487,premceCat2_ses-02_part-02_label-phase2,2020.2.10,Win32,60,,,,,left,0.847215,4,0.28909,,,,,,,,,,left,0.52308,0,0,0,0,1,,,,,,,,
,,,,,,,,17,2021-05-11_10h35.41.487,premceCat2_ses-02_part-02_label-phase2,2020.2.10,Win32,60,,,,,,,,,0,100,100,18,1,stimuli/objects/cellphone.jpg,left,old,162,,,,,,,,,,,,,,,
,,,,,,,,17,2021-05-11_10h35.41.487,premceCat2_ses-02_part-02_label-phase2,2020.2.10,Win32,60,,,,,right,2.550065,2,0.41401,0,101,101,3,1,stimuli/objects/boxingglove01.jpg,right,new,147,,,,,,,,,,,,,,,
,,,,,,,,17,2021-05-11_10h35.41.487,premceCat2_ses-02_part-02_label-phase2,2020.2.10,Win32,60,,,,,left,1.523825,1,0.53835,,,,,,,,,,left,1.198195,0,0,0,0,1,,,,,,,,
,,,,,,,,17,2021-05-11_10h35.41.487,premceCat2_ses-02_part-02_label-phase2,2020.2.10,Win32,60,,,,,,,,,0,102,102,87,1,stimuli/objects/wiicontroller.jpg,right,new,231,,,,,,,,,,,,,,,
,,,,,,,,17,2021-05-11_10h35.41.487,premceCat2_ses-02_part-02_label-phase2,2020.2.10,Win32,60,,,,,left,1.285115,4,0.719405,,,,,,,,,,left,0.287405,0,0,0,0,1,,,,,,,,
,,,,,,,,17,2021-05-11_10h35.41.487,premceCat2_ses-02_part-02_label-phase2,2020.2.10,Win32,60,,,,,,,,,0,103,103,7,1,stimuli/objects/dishrack.jpg,left,old,151,,,,,,,,,,,,,,,
,,,,,,,,17,2021-05-11_10h35.41.487,premceCat2_ses-02_part-02_label-phase2,2020.2.10,Win32,60,,,,,right,1.449585,3,0.698415,0,104,104,41,1,stimuli/objects/flask.jpg,right,new,185,,,,,,,,,,,,,,,
,,,,,,,,17,2021-05-11_10h35.41.487,premceCat2_ses-02_part-02_label-phase2,2020.2.10,Win32,60,,,,,right,1.987375,2,0.560775,0,105,105,102,1,stimuli/objects/beachumbrella01.jpg,right,new,246,,,,,,,,,,,,,,,
,,,,,,,,17,2021-05-11_10h35.41.487,premceCat2_ses-02_part-02_label-phase2,2020.2.10,Win32,60,,,,,right,2.95626,1,0.350385,0,106,106,91,1,stimuli/objects/cuttingpliers02.jpg,right,new,235,,,,,,,,,,,,,,,
,,,,,,,,17,2021-05-11_10h35.41.487,premceCat2_ses-02_part-02_label-phase2,2020.2.10,Win32,60,,,,,left,1.435175,4,0.37258,,,,,,,,,,right,6.15375,0,0,0,0,1,,,,,,,,
,,,,,,,,17,2021-05-11_10h35.41.487,premceCat2_ses-02_part-02_label-phase2,2020.2.10,Win32,60,,,,,,,,,0,107,107,134,1,stimuli/objects/chandelier.jpg,left,old,278,,,,,,,,,,,,,,,
,,,,,,,,17,2021-05-11_10h35.41.487,premceCat2_ses-02_part-02_label-phase2,2020.2.10,Win32,60,,,,,left,3.395625,4,0.440375,,,,,,,,,,left,0.3989,0,0,0,0,1,,,,,,,,
,,,,,,,,17,2021-05-11_10h35.41.487,premceCat2_ses-02_part-02_label-phase2,2020.2.10,Win32,60,,,,,,,,,0,108,108,1,1,stimuli/objects/photocopier.jpg,left,old,145,,,,,,,,,,,,,,,
,,,,,,,,17,2021-05-11_10h35.41.487,premceCat2_ses-02_part-02_label-phase2,2020.2.10,Win32,60,,,,,right,1.399035,3,0.758255,0,109,109,49,1,stimuli/objects/cakeplatter.jpg,right,new,193,,,,,,,,,,,,,,,
,,,,,,,,17,2021-05-11_10h35.41.487,premceCat2_ses-02_part-02_label-phase2,2020.2.10,Win32,60,,,,,left,1.40231,4,0.24328,,,,,,,,,,right,0.37431,0,0,0,0,1,,,,,,,,
,,,,,,,,17,2021-05-11_10h35.41.487,premceCat2_ses-02_part-02_label-phase2,2020.2.10,Win32,60,,,,,,,,,0,110,110,104,1,stimuli/objects/lamp04a.jpg,left,old,248,,,,,,,,,,,,,,,
,,,,,,,,17,2021-05-11_10h35.41.487,premceCat2_ses-02_part-02_label-phase2,2020.2.10,Win32,60,,,,,left,1.360525,4,0.913115,,,,,,,,,,left,0.242625,0,0,0,0,1,,,,,,,,
,,,,,,,,17,2021-05-11_10h35.41.487,premceCat2_ses-02_part-02_label-phase2,2020.2.10,Win32,60,,,,,,,,,0,111,111,33,1,stimuli/objects/gps.jpg,left,old,177,,,,,,,,,,,,,,,
,,,,,,,,17,2021-05-11_10h35.41.487,premceCat2_ses-02_part-02_label-phase2,2020.2.10,Win32,60,,,,,left,1.366945,1,0.48022,,,,,,,,,,right,1.00716,0,0,0,0,1,,,,,,,,
,,,,,,,,17,2021-05-11_10h35.41.487,premceCat2_ses-02_part-02_label-phase2,2020.2.10,Win32,60,,,,,,,,,0,112,112,99,1,stimuli/objects/floodlight.jpg,right,new,243,,,,,,,,,,,,,,,
,,,,,,,,17,2021-05-11_10h35.41.487,premceCat2_ses-02_part-02_label-phase2,2020.2.10,Win32,60,,,,,left,1.18711,3,0.34922,,,,,,,,,,right,0.45662,0,0,0,0,1,,,,,,,,
,,,,,,,,17,2021-05-11_10h35.41.487,premceCat2_ses-02_part-02_label-phase2,2020.2.10,Win32,60,,,,,,,,,0,113,113,67,1,stimuli/objects/filmroll.jpg,left,old,211,,,,,,,,,,,,,,,
,,,,,,,,17,2021-05-11_10h35.41.487,premceCat2_ses-02_part-02_label-phase2,2020.2.10,Win32,60,,,,,right,1.46436,1,0.856985,0,114,114,52,1,stimuli/objects/antenna.jpg,left,old,196,,,,,,,,,,,,,,,
,,,,,,,,17,2021-05-11_10h35.41.487,premceCat2_ses-02_part-02_label-phase2,2020.2.10,Win32,60,,,,,left,1.40196,4,1.376345,,,,,,,,,,left,1.1215,0,0,0,0,1,,,,,,,,
,,,,,,,,17,2021-05-11_10h35.41.487,premceCat2_ses-02_part-02_label-phase2,2020.2.10,Win32,60,,,,,,,,,0,115,115,13,1,stimuli/objects/jumpercables.jpg,left,old,157,,,,,,,,,,,,,,,
,,,,,,,,17,2021-05-11_10h35.41.487,premceCat2_ses-02_part-02_label-phase2,2020.2.10,Win32,60,,,,,left,1.79026,3,0.69508,,,,,,,,,,right,0.206735,0,0,0,0,1,,,,,,,,
,,,,,,,,17,2021-05-11_10h35.41.487,premceCat2_ses-02_part-02_label-phase2,2020.2.10,Win32,60,,,,,,,,,0,116,116,105,1,stimuli/objects/gasburner.jpg,left,old,249,,,,,,,,,,,,,,,
,,,,,,,,17,2021-05-11_10h35.41.487,premceCat2_ses-02_part-02_label-phase2,2020.2.10,Win32,60,,,,,left,6.392475,1,0.77709,,,,,,,,,,right,1.101395,0,0,0,0,1,,,,,,,,
,,,,,,,,17,2021-05-11_10h35.41.487,premceCat2_ses-02_part-02_label-phase2,2020.2.10,Win32,60,,,,,,,,,0,117,117,80,1,stimuli/objects/barbecue03.jpg,right,new,224,,,,,,,,,,,,,,,
,,,,,,,,17,2021-05-11_10h35.41.487,premceCat2_ses-02_part-02_label-phase2,2020.2.10,Win32,60,,,,,left,1.23096,4,0.838435,,,,,,,,,,right,0.22199,0,0,0,0,1,,,,,,,,
,,,,,,,,17,2021-05-11_10h35.41.487,premceCat2_ses-02_part-02_label-phase2,2020.2.10,Win32,60,,,,,,,,,0,118,118,113,1,stimuli/objects/gluetube.jpg,left,old,257,,,,,,,,,,,,,,,
,,,,,,,,17,2021-05-11_10h35.41.487,premceCat2_ses-02_part-02_label-phase2,2020.2.10,Win32,60,,,,,left,1.221325,3,0.939,,,,,,,,,,right,0.25783,0,0,0,0,1,,,,,,,,
,,,,,,,,17,2021-05-11_10h35.41.487,premceCat2_ses-02_part-02_label-phase2,2020.2.10,Win32,60,,,,,,,,,0,119,119,74,1,stimuli/objects/shinpad.jpg,left,old,218,,,,,,,,,,,,,,,
,,,,,,,,17,2021-05-11_10h35.41.487,premceCat2_ses-02_part-02_label-phase2,2020.2.10,Win32,60,,,,,right,1.488415,3,1.084245,0,120,120,6,1,stimuli/objects/solderingwire.jpg,right,new,150,,,,,,,,,,,,,,,
,,,,,,,,17,2021-05-11_10h35.41.487,premceCat2_ses-02_part-02_label-phase2,2020.2.10,Win32,60,,,,,left,1.550975,1,0.55722,,,,,,,,,,right,0.5562,0,0,0,0,1,,,,,,,,
,,,,,,,,17,2021-05-11_10h35.41.487,premceCat2_ses-02_part-02_label-phase2,2020.2.10,Win32,60,,,,,,,,,0,121,121,114,1,stimuli/objects/drinkshaker.jpg,right,new,258,,,,,,,,,,,,,,,
,,,,,,,,17,2021-05-11_10h35.41.487,premceCat2_ses-02_part-02_label-phase2,2020.2.10,Win32,60,,,,,left,8.304875,4,2.695405,,,,,,,,,,right,2.3696,0,0,0,0,1,,,,,,,,
,,,,,,,,17,2021-05-11_10h35.41.487,premceCat2_ses-02_part-02_label-phase2,2020.2.10,Win32,60,,,,,,,,,0,122,122,125,1,stimuli/objects/pliers02b.jpg,left,old,269,,,,,,,,,,,,,,,
,,,,,,,,17,2021-05-11_10h35.41.487,premceCat2_ses-02_part-02_label-phase2,2020.2.10,Win32,60,,,,,left,1.50822,4,1.1456,,,,,,,,,,left,0.27344,0,0,0,0,1,,,,,,,,
,,,,,,,,17,2021-05-11_10h35.41.487,premceCat2_ses-02_part-02_label-phase2,2020.2.10,Win32,60,,,,,,,,,0,123,123,77,1,stimuli/objects/corkscrew03a.jpg,left,old,221,,,,,,,,,,,,,,,
,,,,,,,,17,2021-05-11_10h35.41.487,premceCat2_ses-02_part-02_label-phase2,2020.2.10,Win32,60,,,,,right,1.9903,3,0.694045,0,124,124,0,1,stimuli/objects/smokedetector02.jpg,right,new,144,,,,,,,,,,,,,,,
,,,,,,,,17,2021-05-11_10h35.41.487,premceCat2_ses-02_part-02_label-phase2,2020.2.10,Win32,60,,,,,right,1.276175,3,1.34431,0,125,125,43,1,stimuli/objects/bowrake.jpg,right,new,187,,,,,,,,,,,,,,,
,,,,,,,,17,2021-05-11_10h35.41.487,premceCat2_ses-02_part-02_label-phase2,2020.2.10,Win32,60,,,,,left,1.47839,3,0.857615,,,,,,,,,,right,1.657775,0,0,0,0,1,,,,,,,,
,,,,,,,,17,2021-05-11_10h35.41.487,premceCat2_ses-02_part-02_label-phase2,2020.2.10,Win32,60,,,,,,,,,0,126,126,29,1,stimuli/objects/coffeemachine.jpg,left,old,173,,,,,,,,,,,,,,,
,,,,,,,,17,2021-05-11_10h35.41.487,premceCat2_ses-02_part-02_label-phase2,2020.2.10,Win32,60,,,,,left,3.13587,4,3.463195,,,,,,,,,,right,1.247895,0,0,0,0,1,,,,,,,,
,,,,,,,,17,2021-05-11_10h35.41.487,premceCat2_ses-02_part-02_label-phase2,2020.2.10,Win32,60,,,,,,,,,0,127,127,45,1,stimuli/objects/ellipticalmachine.jpg,left,old,189,,,,,,,,,,,,,,,
,,,,,,,,17,2021-05-11_10h35.41.487,premceCat2_ses-02_part-02_label-phase2,2020.2.10,Win32,60,,,,,right,3.517355,3,1.32649,0,128,128,79,1,stimuli/objects/bikewheel.jpg,left,old,223,,,,,,,,,,,,,,,
,,,,,,,,17,2021-05-11_10h35.41.487,premceCat2_ses-02_part-02_label-phase2,2020.2.10,Win32,60,,,,,left,3.792335,3,2.923845,,,,,,,,,,right,5.29374,0,0,0,0,1,,,,,,,,
,,,,,,,,17,2021-05-11_10h35.41.487,premceCat2_ses-02_part-02_label-phase2,2020.2.10,Win32,60,,,,,,,,,0,129,129,124,1,stimuli/objects/basketball01.jpg,right,new,268,,,,,,,,,,,,,,,
,,,,,,,,17,2021-05-11_10h35.41.487,premceCat2_ses-02_part-02_label-phase2,2020.2.10,Win32,60,,,,,left,2.92279,3,2.766165,,,,,,,,,,left,1.728935,0,0,0,0,1,,,,,,,,
,,,,,,,,17,2021-05-11_10h35.41.487,premceCat2_ses-02_part-02_label-phase2,2020.2.10,Win32,60,,,,,,,,,0,130,130,68,1,stimuli/objects/ladle02a.jpg,right,new,212,,,,,,,,,,,,,,,
,,,,,,,,17,2021-05-11_10h35.41.487,premceCat2_ses-02_part-02_label-phase2,2020.2.10,Win32,60,,,,,left,2.21078,4,1.17098,,,,,,,,,,right,0.478965,0,0,0,0,1,,,,,,,,
,,,,,,,,17,2021-05-11_10h35.41.487,premceCat2_ses-02_part-02_label-phase2,2020.2.10,Win32,60,,,,,,,,,0,131,131,72,1,stimuli/objects/axe01.jpg,left,old,216,,,,,,,,,,,,,,,
,,,,,,,,17,2021-05-11_10h35.41.487,premceCat2_ses-02_part-02_label-phase2,2020.2.10,Win32,60,,,,,left,3.984255,4,1.656145,,,,,,,,,,right,0.60231,0,0,0,0,1,,,,,,,,
,,,,,,,,17,2021-05-11_10h35.41.487,premceCat2_ses-02_part-02_label-phase2,2020.2.10,Win32,60,,,,,,,,,0,132,132,20,1,stimuli/objects/bikehelmet.jpg,left,old,164,,,,,,,,,,,,,,,
,,,,,,,,17,2021-05-11_10h35.41.487,premceCat2_ses-02_part-02_label-phase2,2020.2.10,Win32,60,,,,,left,4.43142,3,1.096185,,,,,,,,,,left,1.117815,0,0,0,0,1,,,,,,,,
,,,,,,,,17,2021-05-11_10h35.41.487,premceCat2_ses-02_part-02_label-phase2,2020.2.10,Win32,60,,,,,,,,,0,133,133,128,1,stimuli/objects/pot01.jpg,left,old,272,,,,,,,,,,,,,,,
,,,,,,,,17,2021-05-11_10h35.41.487,premceCat2_ses-02_part-02_label-phase2,2020.2.10,Win32,60,,,,,left,7.62127,4,1.874095,,,,,,,,,,left,0.773205,0,0,0,0,1,,,,,,,,
,,,,,,,,17,2021-05-11_10h35.41.487,premceCat2_ses-02_part-02_label-phase2,2020.2.10,Win32,60,,,,,,,,,0,134,134,92,1,stimuli/objects/leafrake.jpg,left,old,236,,,,,,,,,,,,,,,
,,,,,,,,17,2021-05-11_10h35.41.487,premceCat2_ses-02_part-02_label-phase2,2020.2.10,Win32,60,,,,,left,7.730455,3,1.10827,,,,,,,,,,right,3.859815,0,0,0,0,1,,,,,,,,
,,,,,,,,17,2021-05-11_10h35.41.487,premceCat2_ses-02_part-02_label-phase2,2020.2.10,Win32,60,,,,,,,,,0,135,135,142,1,stimuli/objects/needlenosepliers01.jpg,right,new,286,,,,,,,,,,,,,,,
,,,,,,,,17,2021-05-11_10h35.41.487,premceCat2_ses-02_part-02_label-phase2,2020.2.10,Win32,60,,,,,left,8.29094,4,2.274815,,,,,,,,,,left,1.052375,0,0,0,0,1,,,,,,,,
,,,,,,,,17,2021-05-11_10h35.41.487,premceCat2_ses-02_part-02_label-phase2,2020.2.10,Win32,60,,,,,,,,,0,136,136,62,1,stimuli/objects/hourglass.jpg,left,old,206,,,,,,,,,,,,,,,
,,,,,,,,17,2021-05-11_10h35.41.487,premceCat2_ses-02_part-02_label-phase2,2020.2.10,Win32,60,,,,,right,1.75765,4,3.6636,0,137,137,27,1,stimuli/objects/hedgeshears.jpg,left,old,171,,,,,,,,,,,,,,,
,,,,,,,,17,2021-05-11_10h35.41.487,premceCat2_ses-02_part-02_label-phase2,2020.2.10,Win32,60,,,,,left,17.053445,1,1.49032,,,,,,,,,,left,0.48357,0,0,0,0,1,,,,,,,,
,,,,,,,,17,2021-05-11_10h35.41.487,premceCat2_ses-02_part-02_label-phase2,2020.2.10,Win32,60,,,,,,,,,0,138,138,76,1,stimuli/objects/extensioncord.jpg,left,old,220,,,,,,,,,,,,,,,
,,,,,,,,17,2021-05-11_10h35.41.487,premceCat2_ses-02_part-02_label-phase2,2020.2.10,Win32,60,,,,,left,2.961225,3,2.55727,,,,,,,,,,left,1.77594,0,0,0,0,1,,,,,,,,
,,,,,,,,17,2021-05-11_10h35.41.487,premceCat2_ses-02_part-02_label-phase2,2020.2.10,Win32,60,,,,,,,,,0,139,139,10,1,stimuli/objects/skihelmet01.jpg,left,old,154,,,,,,,,,,,,,,,
,,,,,,,,17,2021-05-11_10h35.41.487,premceCat2_ses-02_part-02_label-phase2,2020.2.10,Win32,60,,,,,right,1.42523,4,1.336895,0,140,140,111,1,stimuli/objects/diaperbag.jpg,right,new,255,,,,,,,,,,,,,,,
,,,,,,,,17,2021-05-11_10h35.41.487,premceCat2_ses-02_part-02_label-phase2,2020.2.10,Win32,60,,,,,right,2.2478,3,1.05846,0,141,141,5,1,stimuli/objects/pickaxe02.jpg,right,new,149,,,,,,,,,,,,,,,
,,,,,,,,17,2021-05-11_10h35.41.487,premceCat2_ses-02_part-02_label-phase2,2020.2.10,Win32,60,,,,,left,1.57309,3,3.23759,,,,,,,,,,right,2.756,0,0,0,0,1,,,,,,,,
,,,,,,,,17,2021-05-11_10h35.41.487,premceCat2_ses-02_part-02_label-phase2,2020.2.10,Win32,60,,,,,,,,,0,142,142,11,1,stimuli/objects/fuse.jpg,left,old,155,,,,,,,,,,,,,,,
,,,,,,,,17,2021-05-11_10h35.41.487,premceCat2_ses-02_part-02_label-phase2,2020.2.10,Win32,60,,,,,,,,,,,,,,,,,,,,,,,,,space,130.836905,0,0,0,1,1,condition_files/ImagesforRecog2_2.csv
,,,,,,,,17,2021-05-11_10h35.41.487,premceCat2_ses-02_part-02_label-phase2,2020.2.10,Win32,60,,,,,left,2.28929,3,2.01192,,,,,,,,,,right,2.87944,0,0,0,0,1,,,,,,,,
,,,,,,,,17,2021-05-11_10h35.41.487,premceCat2_ses-02_part-02_label-phase2,2020.2.10,Win32,60,,,,,,,,,0,0,0,102,1,stimuli/objects/backpack01a.jpg,left,old,103,,,,,,,,,,,,,,,
,,,,,,,,17,2021-05-11_10h35.41.487,premceCat2_ses-02_part-02_label-phase2,2020.2.10,Win32,60,,,,,right,1.945945,4,0.368975,0,1,1,95,1,stimuli/objects/floppydisk02a.jpg,left,old,96,,,,,,,,,,,,,,,
,,,,,,,,17,2021-05-11_10h35.41.487,premceCat2_ses-02_part-02_label-phase2,2020.2.10,Win32,60,,,,,right,1.840865,1,0.285555,0,2,2,58,1,stimuli/objects/weedwacker.jpg,left,old,59,,,,,,,,,,,,,,,
,,,,,,,,17,2021-05-11_10h35.41.487,premceCat2_ses-02_part-02_label-phase2,2020.2.10,Win32,60,,,,,right,0.90653,4,0.26143,0,3,3,90,1,stimuli/objects/carlighter02.jpg,right,new,91,,,,,,,,,,,,,,,
,,,,,,,,17,2021-05-11_10h35.41.487,premceCat2_ses-02_part-02_label-phase2,2020.2.10,Win32,60,,,,,left,1.540615,4,0.825635,,,,,,,,,,left,0.17104,0,0,0,0,1,,,,,,,,
,,,,,,,,17,2021-05-11_10h35.41.487,premceCat2_ses-02_part-02_label-phase2,2020.2.10,Win32,60,,,,,,,,,0,4,4,78,1,stimuli/objects/butterknife.jpg,left,old,79,,,,,,,,,,,,,,,
,,,,,,,,17,2021-05-11_10h35.41.487,premceCat2_ses-02_part-02_label-phase2,2020.2.10,Win32,60,,,,,right,0.97362,4,0.3909,0,5,5,110,1,stimuli/objects/lock03a.jpg,right,new,111,,,,,,,,,,,,,,,
,,,,,,,,17,2021-05-11_10h35.41.487,premceCat2_ses-02_part-02_label-phase2,2020.2.10,Win32,60,,,,,right,1.00175,2,0.26982,0,6,6,141,1,stimuli/objects/generator.jpg,right,new,142,,,,,,,,,,,,,,,
,,,,,,,,17,2021-05-11_10h35.41.487,premceCat2_ses-02_part-02_label-phase2,2020.2.10,Win32,60,,,,,left,0.82984,4,0.3972,,,,,,,,,,left,0.181085,0,0,0,0,1,,,,,,,,
,,,,,,,,17,2021-05-11_10h35.41.487,premceCat2_ses-02_part-02_label-phase2,2020.2.10,Win32,60,,,,,,,,,0,7,7,52,1,stimuli/objects/handmixer01d.jpg,left,old,53,,,,,,,,,,,,,,,
,,,,,,,,17,2021-05-11_10h35.41.487,premceCat2_ses-02_part-02_label-phase2,2020.2.10,Win32,60,,,,,right,1.62078,2,0.248645,0,8,8,128,1,stimuli/objects/tripod01.jpg,right,new,129,,,,,,,,,,,,,,,
,,,,,,,,17,2021-05-11_10h35.41.487,premceCat2_ses-02_part-02_label-phase2,2020.2.10,Win32,60,,,,,left,0.876245,3,0.265835,,,,,,,,,,right,0.38813,0,0,0,0,1,,,,,,,,
,,,,,,,,17,2021-05-11_10h35.41.487,premceCat2_ses-02_part-02_label-phase2,2020.2.10,Win32,60,,,,,,,,,0,9,9,140,1,stimuli/objects/canoepaddle02.jpg,left,old,141,,,,,,,,,,,,,,,
,,,,,,,,17,2021-05-11_10h35.41.487,premceCat2_ses-02_part-02_label-phase2,2020.2.10,Win32,60,,,,,left,1.2048,3,1.386275,,,,,,,,,,right,0.569695,0,0,0,0,1,,,,,,,,
,,,,,,,,17,2021-05-11_10h35.41.487,premceCat2_ses-02_part-02_label-phase2,2020.2.10,Win32,60,,,,,,,,,0,10,10,47,1,stimuli/objects/caulking.jpg,left,old,48,,,,,,,,,,,,,,,
,,,,,,,,17,2021-05-11_10h35.41.487,premceCat2_ses-02_part-02_label-phase2,2020.2.10,Win32,60,,,,,right,1.25136,3,0.35843,0,11,11,39,1,stimuli/objects/sippycup.jpg,right,new,40,,,,,,,,,,,,,,,
,,,,,,,,17,2021-05-11_10h35.41.487,premceCat2_ses-02_part-02_label-phase2,2020.2.10,Win32,60,,,,,left,1.187255,4,3.217495,,,,,,,,,,right,0.309185,0,0,0,0,1,,,,,,,,
,,,,,,,,17,2021-05-11_10h35.41.487,premceCat2_ses-02_part-02_label-phase2,2020.2.10,Win32,60,,,,,,,,,0,12,12,79,1,stimuli/objects/fluorescentlightbulb.jpg,left,old,80,,,,,,,,,,,,,,,
,,,,,,,,17,2021-05-11_10h35.41.487,premceCat2_ses-02_part-02_label-phase2,2020.2.10,Win32,60,,,,,left,0.92775,3,0.53258,,,,,,,,,,left,0.260905,0,0,0,0,1,,,,,,,,
,,,,,,,,17,2021-05-11_10h35.41.487,premceCat2_ses-02_part-02_label-phase2,2020.2.10,Win32,60,,,,,,,,,0,13,13,62,1,stimuli/objects/potatomasher03b.jpg,left,old,63,,,,,,,,,,,,,,,
,,,,,,,,17,2021-05-11_10h35.41.487,premceCat2_ses-02_part-02_label-phase2,2020.2.10,Win32,60,,,,,right,1.30241,3,0.8689,0,14,14,30,1,stimuli/objects/printer02.jpg,right,new,31,,,,,,,,,,,,,,,
,,,,,,,,17,2021-05-11_10h35.41.487,premceCat2_ses-02_part-02_label-phase2,2020.2.10,Win32,60,,,,,left,1.12439,1,0.44001,,,,,,,,,,left,1.30192,0,0,0,0,1,,,,,,,,
,,,,,,,,17,2021-05-11_10h35.41.487,premceCat2_ses-02_part-02_label-phase2,2020.2.10,Win32,60,,,,,,,,,0,15,15,109,1,stimuli/objects/winerack.jpg,right,new,110,,,,,,,,,,,,,,,
,,,,,,,,17,2021-05-11_10h35.41.487,premceCat2_ses-02_part-02_label-phase2,2020.2.10,Win32,60,,,,,right,2.73257,3,0.584055,0,16,16,117,1,stimuli/objects/videotape01b.jpg,right,new,118,,,,,,,,,,,,,,,
,,,,,,,,17,2021-05-11_10h35.41.487,premceCat2_ses-02_part-02_label-phase2,2020.2.10,Win32,60,,,,,left,1.807495,4,0.337785,,,,,,,,,,right,3.153125,0,0,0,0,1,,,,,,,,
,,,,,,,,17,2021-05-11_10h35.41.487,premceCat2_ses-02_part-02_label-phase2,2020.2.10,Win32,60,,,,,,,,,0,17,17,82,1,stimuli/objects/snowbrush.jpg,right,new,83,,,,,,,,,,,,,,,
,,,,,,,,17,2021-05-11_10h35.41.487,premceCat2_ses-02_part-02_label-phase2,2020.2.10,Win32,60,,,,,left,1.584035,2,1.190025,,,,,,,,,,left,0.717325,0,0,0,0,1,,,,,,,,
,,,,,,,,17,2021-05-11_10h35.41.487,premceCat2_ses-02_part-02_label-phase2,2020.2.10,Win32,60,,,,,,,,,0,18,18,2,1,stimuli/objects/ipod.jpg,left,old,3,,,,,,,,,,,,,,,
,,,,,,,,17,2021-05-11_10h35.41.487,premceCat2_ses-02_part-02_label-phase2,2020.2.10,Win32,60,,,,,left,1.3255,4,0.28533,,,,,,,,,,left,0.24409,0,0,0,0,1,,,,,,,,
,,,,,,,,17,2021-05-11_10h35.41.487,premceCat2_ses-02_part-02_label-phase2,2020.2.10,Win32,60,,,,,,,,,0,19,19,69,1,stimuli/objects/filmnegative.jpg,left,old,70,,,,,,,,,,,,,,,
,,,,,,,,17,2021-05-11_10h35.41.487,premceCat2_ses-02_part-02_label-phase2,2020.2.10,Win32,60,,,,,left,0.860135,4,0.364345,,,,,,,,,,left,0.189805,0,0,0,0,1,,,,,,,,
,,,,,,,,17,2021-05-11_10h35.41.487,premceCat2_ses-02_part-02_label-phase2,2020.2.10,Win32,60,,,,,,,,,0,20,20,103,1,stimuli/objects/cork02.jpg,left,old,104,,,,,,,,,,,,,,,
,,,,,,,,17,2021-05-11_10h35.41.487,premceCat2_ses-02_part-02_label-phase2,2020.2.10,Win32,60,,,,,left,2.72456,1,1.756175,,,,,,,,,,right,0.54548,0,0,0,0,1,,,,,,,,
,,,,,,,,17,2021-05-11_10h35.41.487,premceCat2_ses-02_part-02_label-phase2,2020.2.10,Win32,60,,,,,,,,,0,21,21,22,1,stimuli/objects/umbrella04.jpg,right,new,23,,,,,,,,,,,,,,,
,,,,,,,,17,2021-05-11_10h35.41.487,premceCat2_ses-02_part-02_label-phase2,2020.2.10,Win32,60,,,,,left,1.066075,4,1.082635,,,,,,,,,,left,0.31742,0,0,0,0,1,,,,,,,,
,,,,,,,,17,2021-05-11_10h35.41.487,premceCat2_ses-02_part-02_label-phase2,2020.2.10,Win32,60,,,,,,,,,0,22,22,107,1,stimuli/objects/aluminiumfoil.jpg,left,old,108,,,,,,,,,,,,,,,
,,,,,,,,17,2021-05-11_10h35.41.487,premceCat2_ses-02_part-02_label-phase2,2020.2.10,Win32,60,,,,,left,2.861185,4,3.96299,,,,,,,,,,left,0.771455,0,0,0,0,1,,,,,,,,
,,,,,,,,17,2021-05-11_10h35.41.487,premceCat2_ses-02_part-02_label-phase2,2020.2.10,Win32,60,,,,,,,,,0,23,23,35,1,stimuli/objects/alarmclock01.jpg,left,old,36,,,,,,,,,,,,,,,
,,,,,,,,17,2021-05-11_10h35.41.487,premceCat2_ses-02_part-02_label-phase2,2020.2.10,Win32,60,,,,,right,1.44069,1,1.07738,0,24,24,42,1,stimuli/objects/snowshoe.jpg,right,new,43,,,,,,,,,,,,,,,
,,,,,,,,17,2021-05-11_10h35.41.487,premceCat2_ses-02_part-02_label-phase2,2020.2.10,Win32,60,,,,,right,1.70953,3,1.75165,0,25,25,38,1,stimuli/objects/soundmixer.jpg,right,new,39,,,,,,,,,,,,,,,
,,,,,,,,17,2021-05-11_10h35.41.487,premceCat2_ses-02_part-02_label-phase2,2020.2.10,Win32,60,,,,,right,1.0986,2,0.18073,0,26,26,126,1,stimuli/objects/tableknife02.jpg,right,new,127,,,,,,,,,,,,,,,
,,,,,,,,17,2021-05-11_10h35.41.487,premceCat2_ses-02_part-02_label-phase2,2020.2.10,Win32,60,,,,,right,2.989905,2,0.57538,0,27,27,64,1,stimuli/objects/drillbit03a.jpg,left,old,65,,,,,,,,,,,,,,,
,,,,,,,,17,2021-05-11_10h35.41.487,premceCat2_ses-02_part-02_label-phase2,2020.2.10,Win32,60,,,,,left,1.63848,2,0.288915,,,,,,,,,,left,0.074845,0,0,0,0,1,,,,,,,,
,,,,,,,,17,2021-05-11_10h35.41.487,premceCat2_ses-02_part-02_label-phase2,2020.2.10,Win32,60,,,,,,,,,0,28,28,54,1,stimuli/objects/pda.jpg,right,new,55,,,,,,,,,,,,,,,
,,,,,,,,17,2021-05-11_10h35.41.487,premceCat2_ses-02_part-02_label-phase2,2020.2.10,Win32,60,,,,,right,1.307145,4,0.349285,0,29,29,80,1,stimuli/objects/snowman.jpg,right,new,81,,,,,,,,,,,,,,,
,,,,,,,,17,2021-05-11_10h35.41.487,premceCat2_ses-02_part-02_label-phase2,2020.2.10,Win32,60,,,,,right,1.55135,2,0.698235,0,30,30,127,1,stimuli/objects/reflector.jpg,left,old,128,,,,,,,,,,,,,,,
,,,,,,,,17,2021-05-11_10h35.41.487,premceCat2_ses-02_part-02_label-phase2,2020.2.10,Win32,60,,,,,left,0.92047,4,0.215405,,,,,,,,,,left,0.252835,0,0,0,0,1,,,,,,,,
,,,,,,,,17,2021-05-11_10h35.41.487,premceCat2_ses-02_part-02_label-phase2,2020.2.10,Win32,60,,,,,,,,,0,31,31,114,1,stimuli/objects/tray.jpg,left,old,115,,,,,,,,,,,,,,,
,,,,,,,,17,2021-05-11_10h35.41.487,premceCat2_ses-02_part-02_label-phase2,2020.2.10,Win32,60,,,,,right,1.19377,3,0.34306,0,32,32,49,1,stimuli/objects/exercisebike.jpg,left,old,50,,,,,,,,,,,,,,,
,,,,,,,,17,2021-05-11_10h35.41.487,premceCat2_ses-02_part-02_label-phase2,2020.2.10,Win32,60,,,,,left,1.54493,3,0.722535,,,,,,,,,,left,1.691785,0,0,0,0,1,,,,,,,,
,,,,,,,,17,2021-05-11_10h35.41.487,premceCat2_ses-02_part-02_label-phase2,2020.2.10,Win32,60,,,,,,,,,0,33,33,10,1,stimuli/objects/dvdplayer.jpg,left,old,11,,,,,,,,,,,,,,,
,,,,,,,,17,2021-05-11_10h35.41.487,premceCat2_ses-02_part-02_label-phase2,2020.2.10,Win32,60,,,,,left,1.55817,4,0.922915,,,,,,,,,,left,0.13871,0,0,0,0,1,,,,,,,,
,,,,,,,,17,2021-05-11_10h35.41.487,premceCat2_ses-02_part-02_label-phase2,2020.2.10,Win32,60,,,,,,,,,0,34,34,29,1,stimuli/objects/outletadapter.jpg,left,old,30,,,,,,,,,,,,,,,
,,,,,,,,17,2021-05-11_10h35.41.487,premceCat2_ses-02_part-02_label-phase2,2020.2.10,Win32,60,,,,,left,2.395135,2,0.284355,,,,,,,,,,left,3.305205,0,0,0,0,1,,,,,,,,
,,,,,,,,17,2021-05-11_10h35.41.487,premceCat2_ses-02_part-02_label-phase2,2020.2.10,Win32,60,,,,,,,,,0,35,35,113,1,stimuli/objects/powercable.jpg,right,new,114,,,,,,,,,,,,,,,
,,,,,,,,17,2021-05-11_10h35.41.487,premceCat2_ses-02_part-02_label-phase2,2020.2.10,Win32,60,,,,,left,1.302355,4,0.825455,,,,,,,,,,left,0.43629,0,0,0,0,1,,,,,,,,
,,,,,,,,17,2021-05-11_10h35.41.487,premceCat2_ses-02_part-02_label-phase2,2020.2.10,Win32,60,,,,,,,,,0,36,36,88,1,stimuli/objects/gravyboat.jpg,left,old,89,,,,,,,,,,,,,,,
,,,,,,,,17,2021-05-11_10h35.41.487,premceCat2_ses-02_part-02_label-phase2,2020.2.10,Win32,60,,,,,right,2.05651,4,0.545565,0,37,37,51,1,stimuli/objects/webcam.jpg,right,new,52,,,,,,,,,,,,,,,
,,,,,,,,17,2021-05-11_10h35.41.487,premceCat2_ses-02_part-02_label-phase2,2020.2.10,Win32,60,,,,,left,1.249635,4,2.24807,,,,,,,,,,right,0.264275,0,0,0,0,1,,,,,,,,
,,,,,,,,17,2021-05-11_10h35.41.487,premceCat2_ses-02_part-02_label-phase2,2020.2.10,Win32,60,,,,,,,,,0,38,38,87,1,stimuli/objects/fanblades.jpg,left,old,88,,,,,,,,,,,,,,,
,,,,,,,,17,2021-05-11_10h35.41.487,premceCat2_ses-02_part-02_label-phase2,2020.2.10,Win32,60,,,,,right,1.52431,4,0.309915,0,39,39,92,1,stimuli/objects/carjack.jpg,right,new,93,,,,,,,,,,,,,,,
,,,,,,,,17,2021-05-11_10h35.41.487,premceCat2_ses-02_part-02_label-phase2,2020.2.10,Win32,60,,,,,right,1.39003,2,0.319885,0,40,40,55,1,stimuli/objects/toolbox02.jpg,right,new,56,,,,,,,,,,,,,,,
,,,,,,,,17,2021-05-11_10h35.41.487,premceCat2_ses-02_part-02_label-phase2,2020.2.10,Win32,60,,,,,left,1.126125,2,0.87335,,,,,,,,,,left,1.46007,0,0,0,0,1,,,,,,,,
,,,,,,,,17,2021-05-11_10h35.41.487,premceCat2_ses-02_part-02_label-phase2,2020.2.10,Win32,60,,,,,,,,,0,41,41,0,1,stimuli/objects/electricoutlet.jpg,left,old,1,,,,,,,,,,,,,,,
,,,,,,,,17,2021-05-11_10h35.41.487,premceCat2_ses-02_part-02_label-phase2,2020.2.10,Win32,60,,,,,right,1.568405,2,0.2725,0,42,42,74,1,stimuli/objects/snowboard.jpg,left,old,75,,,,,,,,,,,,,,,
,,,,,,,,17,2021-05-11_10h35.41.487,premceCat2_ses-02_part-02_label-phase2,2020.2.10,Win32,60,,,,,left,1.258305,1,1.32386,,,,,,,,,,right,0.731375,0,0,0,0,1,,,,,,,,
,,,,,,,,17,2021-05-11_10h35.41.487,premceCat2_ses-02_part-02_label-phase2,2020.2.10,Win32,60,,,,,,,,,0,43,43,111,1,stimuli/objects/speaker04.jpg,right,new,112,,,,,,,,,,,,,,,
,,,,,,,,17,2021-05-11_10h35.41.487,premceCat2_ses-02_part-02_label-phase2,2020.2.10,Win32,60,,,,,right,2.234465,4,0.81219,0,44,44,133,1,stimuli/objects/icebucket.jpg,right,new,134,,,,,,,,,,,,,,,
,,,,,,,,17,2021-05-11_10h35.41.487,premceCat2_ses-02_part-02_label-phase2,2020.2.10,Win32,60,,,,,right,1.22401,4,0.276495,0,45,45,60,1,stimuli/objects/glass02a.jpg,right,new,61,,,,,,,,,,,,,,,
,,,,,,,,17,2021-05-11_10h35.41.487,premceCat2_ses-02_part-02_label-phase2,2020.2.10,Win32,60,,,,,right,0.81168,2,0.97725,0,46,46,81,1,stimuli/objects/avcable.jpg,right,new,82,,,,,,,,,,,,,,,
,,,,,,,,17,2021-05-11_10h35.41.487,premceCat2_ses-02_part-02_label-phase2,2020.2.10,Win32,60,,,,,right,1.30962,1,0.284555,0,47,47,57,1,stimuli/objects/audiocablesplitter.jpg,right,new,58,,,,,,,,,,,,,,,
,,,,,,,,17,2021-05-11_10h35.41.487,premceCat2_ses-02_part-02_label-phase2,2020.2.10,Win32,60,,,,,right,1.286175,1,0.31075,0,48,48,93,1,stimuli/objects/icepack.jpg,right,new,94,,,,,,,,,,,,,,,
,,,,,,,,17,2021-05-11_10h35.41.487,premceCat2_ses-02_part-02_label-phase2,2020.2.10,Win32,60,,,,,left,2.171925,1,0.70807,,,,,,,,,,left,0.307535,0,0,0,0,1,,,,,,,,
,,,,,,,,17,2021-05-11_10h35.41.487,premceCat2_ses-02_part-02_label-phase2,2020.2.10,Win32,60,,,,,,,,,0,49,49,97,1,stimuli/objects/securitycamera.jpg,left,old,98,,,,,,,,,,,,,,,
,,,,,,,,17,2021-05-11_10h35.41.487,premceCat2_ses-02_part-02_label-phase2,2020.2.10,Win32,60,,,,,left,3.592925,1,0.894155,,,,,,,,,,left,0.89304,0,0,0,0,1,,,,,,,,
,,,,,,,,17,2021-05-11_10h35.41.487,premceCat2_ses-02_part-02_label-phase2,2020.2.10,Win32,60,,,,,,,,,0,50,50,15,1,stimuli/objects/watercooler.jpg,left,old,16,,,,,,,,,,,,,,,
,,,,,,,,17,2021-05-11_10h35.41.487,premceCat2_ses-02_part-02_label-phase2,2020.2.10,Win32,60,,,,,left,2.03483,1,0.751925,,,,,,,,,,left,0.574775,0,0,0,0,1,,,,,,,,
,,,,,,,,17,2021-05-11_10h35.41.487,premceCat2_ses-02_part-02_label-phase2,2020.2.10,Win32,60,,,,,,,,,0,51,51,70,1,stimuli/objects/bowl02a.jpg,left,old,71,,,,,,,,,,,,,,,
,,,,,,,,17,2021-05-11_10h35.41.487,premceCat2_ses-02_part-02_label-phase2,2020.2.10,Win32,60,,,,,right,4.861755,3,1.25151,0,52,52,96,1,stimuli/objects/golfbag.jpg,right,new,97,,,,,,,,,,,,,,,
,,,,,,,,17,2021-05-11_10h35.41.487,premceCat2_ses-02_part-02_label-phase2,2020.2.10,Win32,60,,,,,left,1.817065,3,0.97094,,,,,,,,,,left,0.49373,0,0,0,0,1,,,,,,,,
,,,,,,,,17,2021-05-11_10h35.41.487,premceCat2_ses-02_part-02_label-phase2,2020.2.10,Win32,60,,,,,,,,,0,53,53,3,1,stimuli/objects/shotglass.jpg,left,old,4,,,,,,,,,,,,,,,
,,,,,,,,17,2021-05-11_10h35.41.487,premceCat2_ses-02_part-02_label-phase2,2020.2.10,Win32,60,,,,,right,2.939175,4,0.07832,0,54,54,73,1,stimuli/objects/clock01a.jpg,right,new,74,,,,,,,,,,,,,,,
,,,,,,,,17,2021-05-11_10h35.41.487,premceCat2_ses-02_part-02_label-phase2,2020.2.10,Win32,60,,,,,left,1.07838,4,0.358775,,,,,,,,,,right,0.22756,0,0,0,0,1,,,,,,,,
,,,,,,,,17,2021-05-11_10h35.41.487,premceCat2_ses-02_part-02_label-phase2,2020.2.10,Win32,60,,,,,,,,,0,55,55,99,1,stimuli/objects/paintroller01.jpg,left,old,100,,,,,,,,,,,,,,,
,,,,,,,,17,2021-05-11_10h35.41.487,premceCat2_ses-02_part-02_label-phase2,2020.2.10,Win32,60,,,,,left,1.41424,2,0.205815,,,,,,,,,,right,0.38146,0,0,0,0,1,,,,,,,,
,,,,,,,,17,2021-05-11_10h35.41.487,premceCat2_ses-02_part-02_label-phase2,2020.2.10,Win32,60,,,,,,,,,0,56,56,23,1,stimuli/objects/football.jpg,right,new,24,,,,,,,,,,,,,,,
,,,,,,,,17,2021-05-11_10h35.41.487,premceCat2_ses-02_part-02_label-phase2,2020.2.10,Win32,60,,,,,right,1.327375,3,0.282145,0,57,57,33,1,stimuli/objects/microwave.jpg,right,new,34,,,,,,,,,,,,,,,
,,,,,,,,17,2021-05-11_10h35.41.487,premceCat2_ses-02_part-02_label-phase2,2020.2.10,Win32,60,,,,,left,1.158245,4,0.62202,,,,,,,,,,left,0.19305,0,0,0,0,1,,,,,,,,
,,,,,,,,17,2021-05-11_10h35.41.487,premceCat2_ses-02_part-02_label-phase2,2020.2.10,Win32,60,,,,,,,,,0,58,58,129,1,stimuli/objects/peeler01.jpg,left,old,130,,,,,,,,,,,,,,,
,,,,,,,,17,2021-05-11_10h35.41.487,premceCat2_ses-02_part-02_label-phase2,2020.2.10,Win32,60,,,,,right,1.14112,3,0.25882,0,59,59,25,1,stimuli/objects/bowlingball.jpg,right,new,26,,,,,,,,,,,,,,,
,,,,,,,,17,2021-05-11_10h35.41.487,premceCat2_ses-02_part-02_label-phase2,2020.2.10,Win32,60,,,,,right,1.05376,1,0.32619,0,60,60,83,1,stimuli/objects/kitchenscale01a.jpg,right,new,84,,,,,,,,,,,,,,,
,,,,,,,,17,2021-05-11_10h35.41.487,premceCat2_ses-02_part-02_label-phase2,2020.2.10,Win32,60,,,,,left,0.96698,4,0.24223,,,,,,,,,,left,0.58378,0,0,0,0,1,,,,,,,,
,,,,,,,,17,2021-05-11_10h35.41.487,premceCat2_ses-02_part-02_label-phase2,2020.2.10,Win32,60,,,,,,,,,0,61,61,142,1,stimuli/objects/martiniglass01b.jpg,left,old,143,,,,,,,,,,,,,,,
,,,,,,,,17,2021-05-11_10h35.41.487,premceCat2_ses-02_part-02_label-phase2,2020.2.10,Win32,60,,,,,right,2.80393,1,1.08776,0,62,62,9,1,stimuli/objects/measuringtape01.jpg,right,new,10,,,,,,,,,,,,,,,
,,,,,,,,17,2021-05-11_10h35.41.487,premceCat2_ses-02_part-02_label-phase2,2020.2.10,Win32,60,,,,,right,1.111975,4,0.28147,0,63,63,17,1,stimuli/objects/exercisebench.jpg,right,new,18,,,,,,,,,,,,,,,
,,,,,,,,17,2021-05-11_10h35.41.487,premceCat2_ses-02_part-02_label-phase2,2020.2.10,Win32,60,,,,,left,1.230725,4,0.81789,,,,,,,,,,left,0.288355,0,0,0,0,1,,,,,,,,
,,,,,,,,17,2021-05-11_10h35.41.487,premceCat2_ses-02_part-02_label-phase2,2020.2.10,Win32,60,,,,,,,,,0,64,64,36,1,stimuli/objects/slidetray.jpg,left,old,37,,,,,,,,,,,,,,,
,,,,,,,,17,2021-05-11_10h35.41.487,premceCat2_ses-02_part-02_label-phase2,2020.2.10,Win32,60,,,,,right,1.40438,3,0.36825,0,65,65,112,1,stimuli/objects/gymnasticring.jpg,right,new,113,,,,,,,,,,,,,,,
,,,,,,,,17,2021-05-11_10h35.41.487,premceCat2_ses-02_part-02_label-phase2,2020.2.10,Win32,60,,,,,right,7.504075,2,0.708785,0,66,66,41,1,stimuli/objects/pylon01.jpg,right,new,42,,,,,,,,,,,,,,,
,,,,,,,,17,2021-05-11_10h35.41.487,premceCat2_ses-02_part-02_label-phase2,2020.2.10,Win32,60,,,,,right,1.02427,4,0.249365,0,67,67,53,1,stimuli/objects/binoculars01b.jpg,right,new,54,,,,,,,,,,,,,,,
,,,,,,,,17,2021-05-11_10h35.41.487,premceCat2_ses-02_part-02_label-phase2,2020.2.10,Win32,60,,,,,right,2.247165,3,2.22445,0,68,68,12,1,stimuli/objects/garlicpress02a.jpg,right,new,13,,,,,,,,,,,,,,,
,,,,,,,,17,2021-05-11_10h35.41.487,premceCat2_ses-02_part-02_label-phase2,2020.2.10,Win32,60,,,,,right,3.32437,1,0.576605,0,69,69,32,1,stimuli/objects/mitresaw.jpg,right,new,33,,,,,,,,,,,,,,,
,,,,,,,,17,2021-05-11_10h35.41.487,premceCat2_ses-02_part-02_label-phase2,2020.2.10,Win32,60,,,,,left,1.041745,4,0.31051,,,,,,,,,,right,1.396665,0,0,0,0,1,,,,,,,,
,,,,,,,,17,2021-05-11_10h35.41.487,premceCat2_ses-02_part-02_label-phase2,2020.2.10,Win32,60,,,,,,,,,0,70,70,16,1,stimuli/objects/knifesharpener.jpg,left,old,17,,,,,,,,,,,,,,,
,,,,,,,,17,2021-05-11_10h35.41.487,premceCat2_ses-02_part-02_label-phase2,2020.2.10,Win32,60,,,,,left,2.652635,4,0.403255,,,,,,,,,,right,0.20239,0,0,0,0,1,,,,,,,,
,,,,,,,,17,2021-05-11_10h35.41.487,premceCat2_ses-02_part-02_label-phase2,2020.2.10,Win32,60,,,,,,,,,0,71,71,40,1,stimuli/objects/level03a.jpg,left,old,41,,,,,,,,,,,,,,,
,,,,,,,,17,2021-05-11_10h35.41.487,premceCat2_ses-02_part-02_label-phase2,2020.2.10,Win32,60,,,,,left,1.56899,4,0.86049,,,,,,,,,,right,0.101925,0,0,0,0,1,,,,,,,,
,,,,,,,,17,2021-05-11_10h35.41.487,premceCat2_ses-02_part-02_label-phase2,2020.2.10,Win32,60,,,,,,,,,0,72,72,65,1,stimuli/objects/drill01b.jpg,left,old,66,,,,,,,,,,,,,,,
,,,,,,,,17,2021-05-11_10h35.41.487,premceCat2_ses-02_part-02_label-phase2,2020.2.10,Win32,60,,,,,left,0.78545,2,1.15756,,,,,,,,,,right,0.59317,0,0,0,0,1,,,,,,,,
,,,,,,,,17,2021-05-11_10h35.41.487,premceCat2_ses-02_part-02_label-phase2,2020.2.10,Win32,60,,,,,,,,,0,73,73,89,1,stimuli/objects/ducttape.jpg,right,new,90,,,,,,,,,,,,,,,
,,,,,,,,17,2021-05-11_10h35.41.487,premceCat2_ses-02_part-02_label-phase2,2020.2.10,Win32,60,,,,,left,0.79427,4,0.43894,,,,,,,,,,left,0.138015,0,0,0,0,1,,,,,,,,
,,,,,,,,17,2021-05-11_10h35.41.487,premceCat2_ses-02_part-02_label-phase2,2020.2.10,Win32,60,,,,,,,,,0,74,74,101,1,stimuli/objects/vhstape.jpg,left,old,102,,,,,,,,,,,,,,,
,,,,,,,,17,2021-05-11_10h35.41.487,premceCat2_ses-02_part-02_label-phase2,2020.2.10,Win32,60,,,,,left,1.377865,4,0.87293,,,,,,,,,,right,1.00631,0,0,0,0,1,,,,,,,,
,,,,,,,,17,2021-05-11_10h35.41.487,premceCat2_ses-02_part-02_label-phase2,2020.2.10,Win32,60,,,,,,,,,0,75,75,61,1,stimuli/objects/squeegee01b.jpg,left,old,62,,,,,,,,,,,,,,,
,,,,,,,,17,2021-05-11_10h35.41.487,premceCat2_ses-02_part-02_label-phase2,2020.2.10,Win32,60,,,,,right,1.021555,3,0.32906,0,76,76,63,1,stimuli/objects/butterdish.jpg,right,new,64,,,,,,,,,,,,,,,
,,,,,,,,17,2021-05-11_10h35.41.487,premceCat2_ses-02_part-02_label-phase2,2020.2.10,Win32,60,,,,,left,1.171595,4,0.310845,,,,,,,,,,left,0.374075,0,0,0,0,1,,,,,,,,
,,,,,,,,17,2021-05-11_10h35.41.487,premceCat2_ses-02_part-02_label-phase2,2020.2.10,Win32,60,,,,,,,,,0,77,77,124,1,stimuli/objects/fishinghook03.jpg,left,old,125,,,,,,,,,,,,,,,
,,,,,,,,17,2021-05-11_10h35.41.487,premceCat2_ses-02_part-02_label-phase2,2020.2.10,Win32,60,,,,,left,1.0446,4,0.67189,,,,,,,,,,right,0.101485,0,0,0,0,1,,,,,,,,
,,,,,,,,17,2021-05-11_10h35.41.487,premceCat2_ses-02_part-02_label-phase2,2020.2.10,Win32,60,,,,,,,,,0,78,78,31,1,stimuli/objects/gastank.jpg,left,old,32,,,,,,,,,,,,,,,
,,,,,,,,17,2021-05-11_10h35.41.487,premceCat2_ses-02_part-02_label-phase2,2020.2.10,Win32,60,,,,,right,1.35776,2,0.16411,0,79,79,13,1,stimuli/objects/bastingbrush.jpg,right,new,14,,,,,,,,,,,,,,,
,,,,,,,,17,2021-05-11_10h35.41.487,premceCat2_ses-02_part-02_label-phase2,2020.2.10,Win32,60,,,,,right,1.610225,4,0.20797,0,80,80,125,1,stimuli/objects/shoulderpad.jpg,right,new,126,,,,,,,,,,,,,,,
,,,,,,,,17,2021-05-11_10h35.41.487,premceCat2_ses-02_part-02_label-phase2,2020.2.10,Win32,60,,,,,left,1.199515,4,1.283025,,,,,,,,,,left,0.679345,0,0,0,0,1,,,,,,,,
,,,,,,,,17,2021-05-11_10h35.41.487,premceCat2_ses-02_part-02_label-phase2,2020.2.10,Win32,60,,,,,,,,,0,81,81,91,1,stimuli/objects/metalbrush.jpg,left,old,92,,,,,,,,,,,,,,,
,,,,,,,,17,2021-05-11_10h35.41.487,premceCat2_ses-02_part-02_label-phase2,2020.2.10,Win32,60,,,,,left,1.8743,1,0.607205,,,,,,,,,,left,0.680155,0,0,0,0,1,,,,,,,,
,,,,,,,,17,2021-05-11_10h35.41.487,premceCat2_ses-02_part-02_label-phase2,2020.2.10,Win32,60,,,,,,,,,0,82,82,116,1,stimuli/objects/radio01.jpg,right,new,117,,,,,,,,,,,,,,,
,,,,,,,,17,2021-05-11_10h35.41.487,premceCat2_ses-02_part-02_label-phase2,2020.2.10,Win32,60,,,,,left,0.905445,4,1.141295,,,,,,,,,,left,0.085725,0,0,0,0,1,,,,,,,,
,,,,,,,,17,2021-05-11_10h35.41.487,premceCat2_ses-02_part-02_label-phase2,2020.2.10,Win32,60,,,,,,,,,0,83,83,48,1,stimuli/objects/bottlecap.jpg,left,old,49,,,,,,,,,,,,,,,
,,,,,,,,17,2021-05-11_10h35.41.487,premceCat2_ses-02_part-02_label-phase2,2020.2.10,Win32,60,,,,,right,1.30587,3,0.23895,0,84,84,76,1,stimuli/objects/megaphone.jpg,right,new,77,,,,,,,,,,,,,,,
,,,,,,,,17,2021-05-11_10h35.41.487,premceCat2_ses-02_part-02_label-phase2,2020.2.10,Win32,60,,,,,left,5.092925,3,0.2209,,,,,,,,,,right,0.28983,0,0,0,0,1,,,,,,,,
,,,,,,,,17,2021-05-11_10h35.41.487,premceCat2_ses-02_part-02_label-phase2,2020.2.10,Win32,60,,,,,,,,,0,85,85,28,1,stimuli/objects/poolnet.jpg,left,old,29,,,,,,,,,,,,,,,
,,,,,,,,17,2021-05-11_10h35.41.487,premceCat2_ses-02_part-02_label-phase2,2020.2.10,Win32,60,,,,,right,1.43397,1,1.79386,0,86,86,94,1,stimuli/objects/electricmixer.jpg,right,new,95,,,,,,,,,,,,,,,
,,,,,,,,17,2021-05-11_10h35.41.487,premceCat2_ses-02_part-02_label-phase2,2020.2.10,Win32,60,,,,,right,1.445565,3,1.995855,0,87,87,8,1,stimuli/objects/basketballhoop01.jpg,right,new,9,,,,,,,,,,,,,,,
,,,,,,,,17,2021-05-11_10h35.41.487,premceCat2_ses-02_part-02_label-phase2,2020.2.10,Win32,60,,,,,left,0.903785,4,0.294425,,,,,,,,,,left,1.84749,0,0,0,0,1,,,,,,,,
,,,,,,,,17,2021-05-11_10h35.41.487,premceCat2_ses-02_part-02_label-phase2,2020.2.10,Win32,60,,,,,,,,,0,88,88,84,1,stimuli/objects/sportbag.jpg,left,old,85,,,,,,,,,,,,,,,
,,,,,,,,17,2021-05-11_10h35.41.487,premceCat2_ses-02_part-02_label-phase2,2020.2.10,Win32,60,,,,,left,1.42333,3,1.346315,,,,,,,,,,right,0.00142,0,0,0,0,1,,,,,,,,
,,,,,,,,17,2021-05-11_10h35.41.487,premceCat2_ses-02_part-02_label-phase2,2020.2.10,Win32,60,,,,,,,,,0,89,89,123,1,stimuli/objects/thermos.jpg,left,old,124,,,,,,,,,,,,,,,
,,,,,,,,17,2021-05-11_10h35.41.487,premceCat2_ses-02_part-02_label-phase2,2020.2.10,Win32,60,,,,,left,0.924845,2,0.540965,,,,,,,,,,left,0.00098,0,0,0,0,1,,,,,,,,
,,,,,,,,17,2021-05-11_10h35.41.487,premceCat2_ses-02_part-02_label-phase2,2020.2.10,Win32,60,,,,,,,,,0,90,90,45,1,stimuli/objects/cookingpot.jpg,left,old,46,,,,,,,,,,,,,,,
,,,,,,,,17,2021-05-11_10h35.41.487,premceCat2_ses-02_part-02_label-phase2,2020.2.10,Win32,60,,,,,right,1.22624,4,0.18969,0,91,91,121,1,stimuli/objects/ceilingspeaker.jpg,right,new,122,,,,,,,,,,,,,,,
,,,,,,,,17,2021-05-11_10h35.41.487,premceCat2_ses-02_part-02_label-phase2,2020.2.10,Win32,60,,,,,right,0.750255,4,1.080995,0,92,92,71,1,stimuli/objects/faxmachine.jpg,right,new,72,,,,,,,,,,,,,,,
,,,,,,,,17,2021-05-11_10h35.41.487,premceCat2_ses-02_part-02_label-phase2,2020.2.10,Win32,60,,,,,right,1.881105,1,1.041365,0,93,93,108,1,stimuli/objects/metalscissors.jpg,right,new,109,,,,,,,,,,,,,,,
,,,,,,,,17,2021-05-11_10h35.41.487,premceCat2_ses-02_part-02_label-phase2,2020.2.10,Win32,60,,,,,right,1.34294,2,0.227945,0,94,94,72,1,stimuli/objects/cclamp.jpg,right,new,73,,,,,,,,,,,,,,,
,,,,,,,,17,2021-05-11_10h35.41.487,premceCat2_ses-02_part-02_label-phase2,2020.2.10,Win32,60,,,,,right,3.69399,1,1.31034,0,95,95,67,1,stimuli/objects/fishingrod.jpg,left,old,68,,,,,,,,,,,,,,,
,,,,,,,,17,2021-05-11_10h35.41.487,premceCat2_ses-02_part-02_label-phase2,2020.2.10,Win32,60,,,,,right,1.200105,2,0.374525,0,96,96,85,1,stimuli/objects/golfball.jpg,right,new,86,,,,,,,,,,,,,,,
,,,,,,,,17,2021-05-11_10h35.41.487,premceCat2_ses-02_part-02_label-phase2,2020.2.10,Win32,60,,,,,left,1.913255,2,1.18449,,,,,,,,,,right,0.756375,0,0,0,0,1,,,,,,,,
,,,,,,,,17,2021-05-11_10h35.41.487,premceCat2_ses-02_part-02_label-phase2,2020.2.10,Win32,60,,,,,,,,,0,97,97,75,1,stimuli/objects/stepladder.jpg,right,new,76,,,,,,,,,,,,,,,
,,,,,,,,17,2021-05-11_10h35.41.487,premceCat2_ses-02_part-02_label-phase2,2020.2.10,Win32,60,,,,,left,2.72486,2,0.21399,,,,,,,,,,left,0.108845,0,0,0,0,1,,,,,,,,
,,,,,,,,17,2021-05-11_10h35.41.487,premceCat2_ses-02_part-02_label-phase2,2020.2.10,Win32,60,,,,,,,,,0,98,98,11,1,stimuli/objects/videocamera01a.jpg,left,old,12,,,,,,,,,,,,,,,
,,,,,,,,17,2021-05-11_10h35.41.487,premceCat2_ses-02_part-02_label-phase2,2020.2.10,Win32,60,,,,,right,3.79299,2,0.206155,0,99,99,46,1,stimuli/objects/walkman.jpg,right,new,47,,,,,,,,,,,,,,,
,,,,,,,,17,2021-05-11_10h35.41.487,premceCat2_ses-02_part-02_label-phase2,2020.2.10,Win32,60,,,,,left,1.107585,3,0.41623,,,,,,,,,,left,0.213975,0,0,0,0,1,,,,,,,,
,,,,,,,,17,2021-05-11_10h35.41.487,premceCat2_ses-02_part-02_label-phase2,2020.2.10,Win32,60,,,,,,,,,0,100,100,6,1,stimuli/objects/pitcher02b.jpg,left,old,7,,,,,,,,,,,,,,,
,,,,,,,,17,2021-05-11_10h35.41.487,premceCat2_ses-02_part-02_label-phase2,2020.2.10,Win32,60,,,,,left,1.1752,4,0.19169,,,,,,,,,,left,0.09278,0,0,0,0,1,,,,,,,,
,,,,,,,,17,2021-05-11_10h35.41.487,premceCat2_ses-02_part-02_label-phase2,2020.2.10,Win32,60,,,,,,,,,0,101,101,1,1,stimuli/objects/ipad02.jpg,left,old,2,,,,,,,,,,,,,,,
,,,,,,,,17,2021-05-11_10h35.41.487,premceCat2_ses-02_part-02_label-phase2,2020.2.10,Win32,60,,,,,right,1.27451,2,0.001415,0,102,102,20,1,stimuli/objects/laptop01a.jpg,right,new,21,,,,,,,,,,,,,,,
,,,,,,,,17,2021-05-11_10h35.41.487,premceCat2_ses-02_part-02_label-phase2,2020.2.10,Win32,60,,,,,right,1.73604,2,0.212285,0,103,103,24,1,stimuli/objects/skateboard.jpg,right,new,25,,,,,,,,,,,,,,,
,,,,,,,,17,2021-05-11_10h35.41.487,premceCat2_ses-02_part-02_label-phase2,2020.2.10,Win32,60,,,,,right,1.056125,1,0.32115,0,104,104,119,1,stimuli/objects/tongs01b.jpg,right,new,120,,,,,,,,,,,,,,,
,,,,,,,,17,2021-05-11_10h35.41.487,premceCat2_ses-02_part-02_label-phase2,2020.2.10,Win32,60,,,,,left,1.310275,2,0.76015,,,,,,,,,,left,0.26819,0,0,0,0,1,,,,,,,,
,,,,,,,,17,2021-05-11_10h35.41.487,premceCat2_ses-02_part-02_label-phase2,2020.2.10,Win32,60,,,,,,,,,0,105,105,118,1,stimuli/objects/adjustablewrench01b.jpg,left,old,119,,,,,,,,,,,,,,,
,,,,,,,,17,2021-05-11_10h35.41.487,premceCat2_ses-02_part-02_label-phase2,2020.2.10,Win32,60,,,,,right,1.49454,3,0.267175,0,106,106,4,1,stimuli/objects/microphone01.jpg,right,new,5,,,,,,,,,,,,,,,
,,,,,,,,17,2021-05-11_10h35.41.487,premceCat2_ses-02_part-02_label-phase2,2020.2.10,Win32,60,,,,,left,0.98065,4,0.183265,,,,,,,,,,right,0.17105,0,0,0,0,1,,,,,,,,
,,,,,,,,17,2021-05-11_10h35.41.487,premceCat2_ses-02_part-02_label-phase2,2020.2.10,Win32,60,,,,,,,,,0,107,107,7,1,stimuli/objects/painttray.jpg,left,old,8,,,,,,,,,,,,,,,
,,,,,,,,17,2021-05-11_10h35.41.487,premceCat2_ses-02_part-02_label-phase2,2020.2.10,Win32,60,,,,,left,1.009695,2,0.905085,,,,,,,,,,left,0.0883,0,0,0,0,1,,,,,,,,
,,,,,,,,17,2021-05-11_10h35.41.487,premceCat2_ses-02_part-02_label-phase2,2020.2.10,Win32,60,,,,,,,,,0,108,108,105,1,stimuli/objects/lightbulb01.jpg,left,old,106,,,,,,,,,,,,,,,
,,,,,,,,17,2021-05-11_10h35.41.487,premceCat2_ses-02_part-02_label-phase2,2020.2.10,Win32,60,,,,,right,1.656115,2,0.07664,0,109,109,106,1,stimuli/objects/minifridge.jpg,right,new,107,,,,,,,,,,,,,,,
,,,,,,,,17,2021-05-11_10h35.41.487,premceCat2_ses-02_part-02_label-phase2,2020.2.10,Win32,60,,,,,left,1.04403,1,2.27868,,,,,,,,,,right,0.818095,0,0,0,0,1,,,,,,,,
,,,,,,,,17,2021-05-11_10h35.41.487,premceCat2_ses-02_part-02_label-phase2,2020.2.10,Win32,60,,,,,,,,,0,110,110,34,1,stimuli/objects/lifesaver.jpg,left,old,35,,,,,,,,,,,,,,,
,,,,,,,,17,2021-05-11_10h35.41.487,premceCat2_ses-02_part-02_label-phase2,2020.2.10,Win32,60,,,,,right,1.08623,1,0.19637,0,111,111,100,1,stimuli/objects/remotecontrol04.jpg,right,new,101,,,,,,,,,,,,,,,
,,,,,,,,17,2021-05-11_10h35.41.487,premceCat2_ses-02_part-02_label-phase2,2020.2.10,Win32,60,,,,,right,1.085365,2,0.175905,0,112,112,138,1,stimuli/objects/taperecorder.jpg,right,new,139,,,,,,,,,,,,,,,
,,,,,,,,17,2021-05-11_10h35.41.487,premceCat2_ses-02_part-02_label-phase2,2020.2.10,Win32,60,,,,,left,1.24354,3,1.243745,,,,,,,,,,left,0.204135,0,0,0,0,1,,,,,,,,
,,,,,,,,17,2021-05-11_10h35.41.487,premceCat2_ses-02_part-02_label-phase2,2020.2.10,Win32,60,,,,,,,,,0,113,113,56,1,stimuli/objects/funnel.jpg,left,old,57,,,,,,,,,,,,,,,
,,,,,,,,17,2021-05-11_10h35.41.487,premceCat2_ses-02_part-02_label-phase2,2020.2.10,Win32,60,,,,,right,1.418215,4,0.0472,0,114,114,131,1,stimuli/objects/spotlight.jpg,right,new,132,,,,,,,,,,,,,,,
,,,,,,,,17,2021-05-11_10h35.41.487,premceCat2_ses-02_part-02_label-phase2,2020.2.10,Win32,60,,,,,left,0.83594,3,0.387735,,,,,,,,,,right,0.32556,0,0,0,0,1,,,,,,,,
,,,,,,,,17,2021-05-11_10h35.41.487,premceCat2_ses-02_part-02_label-phase2,2020.2.10,Win32,60,,,,,,,,,0,115,115,14,1,stimuli/objects/puttyknife.jpg,left,old,15,,,,,,,,,,,,,,,
,,,,,,,,17,2021-05-11_10h35.41.487,premceCat2_ses-02_part-02_label-phase2,2020.2.10,Win32,60,,,,,left,1.206105,4,0.660675,,,,,,,,,,right,0.25685,0,0,0,0,1,,,,,,,,
,,,,,,,,17,2021-05-11_10h35.41.487,premceCat2_ses-02_part-02_label-phase2,2020.2.10,Win32,60,,,,,,,,,0,116,116,130,1,stimuli/objects/cooler01.jpg,left,old,131,,,,,,,,,,,,,,,
,,,,,,,,17,2021-05-11_10h35.41.487,premceCat2_ses-02_part-02_label-phase2,2020.2.10,Win32,60,,,,,left,1.25077,1,1.075425,,,,,,,,,,left,0.55087,0,0,0,0,1,,,,,,,,
,,,,,,,,17,2021-05-11_10h35.41.487,premceCat2_ses-02_part-02_label-phase2,2020.2.10,Win32,60,,,,,,,,,0,117,117,104,1,stimuli/objects/lectern01.jpg,left,old,105,,,,,,,,,,,,,,,
,,,,,,,,17,2021-05-11_10h35.41.487,premceCat2_ses-02_part-02_label-phase2,2020.2.10,Win32,60,,,,,right,3.421335,3,1.69324,0,118,118,139,1,stimuli/objects/frisbee.jpg,right,new,140,,,,,,,,,,,,,,,
,,,,,,,,17,2021-05-11_10h35.41.487,premceCat2_ses-02_part-02_label-phase2,2020.2.10,Win32,60,,,,,left,1.75869,3,0.858095,,,,,,,,,,right,0.7561,0,0,0,0,1,,,,,,,,
,,,,,,,,17,2021-05-11_10h35.41.487,premceCat2_ses-02_part-02_label-phase2,2020.2.10,Win32,60,,,,,,,,,0,119,119,98,1,stimuli/objects/baseball01a.jpg,left,old,99,,,,,,,,,,,,,,,
,,,,,,,,17,2021-05-11_10h35.41.487,premceCat2_ses-02_part-02_label-phase2,2020.2.10,Win32,60,,,,,right,2.85497,1,1.264955,0,120,120,66,1,stimuli/objects/nailgun.jpg,right,new,67,,,,,,,,,,,,,,,
,,,,,,,,17,2021-05-11_10h35.41.487,premceCat2_ses-02_part-02_label-phase2,2020.2.10,Win32,60,,,,,left,0.86759,1,2.299135,,,,,,,,,,right,0.31594,0,0,0,0,1,,,,,,,,
,,,,,,,,17,2021-05-11_10h35.41.487,premceCat2_ses-02_part-02_label-phase2,2020.2.10,Win32,60,,,,,,,,,0,121,121,50,1,stimuli/objects/chisel02b.jpg,right,new,51,,,,,,,,,,,,,,,
,,,,,,,,17,2021-05-11_10h35.41.487,premceCat2_ses-02_part-02_label-phase2,2020.2.10,Win32,60,,,,,left,1.203,4,0.15572,,,,,,,,,,left,0.43224,0,0,0,0,1,,,,,,,,
,,,,,,,,17,2021-05-11_10h35.41.487,premceCat2_ses-02_part-02_label-phase2,2020.2.10,Win32,60,,,,,,,,,0,122,122,77,1,stimuli/objects/satellitedish01.jpg,left,old,78,,,,,,,,,,,,,,,
,,,,,,,,17,2021-05-11_10h35.41.487,premceCat2_ses-02_part-02_label-phase2,2020.2.10,Win32,60,,,,,left,3.663985,3,0.68796,,,,,,,,,,right,1.12324,0,0,0,0,1,,,,,,,,
,,,,,,,,17,2021-05-11_10h35.41.487,premceCat2_ses-02_part-02_label-phase2,2020.2.10,Win32,60,,,,,,,,,0,123,123,132,1,stimuli/objects/payphone.jpg,left,old,133,,,,,,,,,,,,,,,
,,,,,,,,17,2021-05-11_10h35.41.487,premceCat2_ses-02_part-02_label-phase2,2020.2.10,Win32,60,,,,,left,2.131285,4,0.566995,,,,,,,,,,left,1.31986,0,0,0,0,1,,,,,,,,
,,,,,,,,17,2021-05-11_10h35.41.487,premceCat2_ses-02_part-02_label-phase2,2020.2.10,Win32,60,,,,,,,,,0,124,124,68,1,stimuli/objects/leafblower01.jpg,right,new,69,,,,,,,,,,,,,,,
,,,,,,,,17,2021-05-11_10h35.41.487,premceCat2_ses-02_part-02_label-phase2,2020.2.10,Win32,60,,,,,right,1.16622,2,0.137975,0,125,125,136,1,stimuli/objects/battery02b.jpg,right,new,137,,,,,,,,,,,,,,,
,,,,,,,,17,2021-05-11_10h35.41.487,premceCat2_ses-02_part-02_label-phase2,2020.2.10,Win32,60,,,,,right,1.51386,1,0.92603,0,126,126,37,1,stimuli/objects/pressurewasher.jpg,left,old,38,,,,,,,,,,,,,,,
,,,,,,,,17,2021-05-11_10h35.41.487,premceCat2_ses-02_part-02_label-phase2,2020.2.10,Win32,60,,,,,right,1.078705,2,0.273665,0,127,127,59,1,stimuli/objects/studiolight.jpg,right,new,60,,,,,,,,,,,,,,,
,,,,,,,,17,2021-05-11_10h35.41.487,premceCat2_ses-02_part-02_label-phase2,2020.2.10,Win32,60,,,,,right,0.858825,3,0.268945,0,128,128,86,1,stimuli/objects/toasteroven.jpg,right,new,87,,,,,,,,,,,,,,,
,,,,,,,,17,2021-05-11_10h35.41.487,premceCat2_ses-02_part-02_label-phase2,2020.2.10,Win32,60,,,,,left,1.121915,1,0.964085,,,,,,,,,,left,0.825295,0,0,0,0,1,,,,,,,,
,,,,,,,,17,2021-05-11_10h35.41.487,premceCat2_ses-02_part-02_label-phase2,2020.2.10,Win32,60,,,,,,,,,0,129,129,135,1,stimuli/objects/stubbywrench01a.jpg,left,old,136,,,,,,,,,,,,,,,
,,,,,,,,17,2021-05-11_10h35.41.487,premceCat2_ses-02_part-02_label-phase2,2020.2.10,Win32,60,,,,,right,1.341855,4,0.91496,0,130,130,43,1,stimuli/objects/punchingball.jpg,right,new,44,,,,,,,,,,,,,,,
,,,,,,,,17,2021-05-11_10h35.41.487,premceCat2_ses-02_part-02_label-phase2,2020.2.10,Win32,60,,,,,left,2.03754,1,0.656935,,,,,,,,,,right,0.67692,0,0,0,0,1,,,,,,,,
,,,,,,,,17,2021-05-11_10h35.41.487,premceCat2_ses-02_part-02_label-phase2,2020.2.10,Win32,60,,,,,,,,,0,131,131,115,1,stimuli/objects/saw02b.jpg,left,old,116,,,,,,,,,,,,,,,
,,,,,,,,17,2021-05-11_10h35.41.487,premceCat2_ses-02_part-02_label-phase2,2020.2.10,Win32,60,,,,,right,1.20187,3,0.194465,0,132,132,5,1,stimuli/objects/expansioncard.jpg,left,old,6,,,,,,,,,,,,,,,
,,,,,,,,17,2021-05-11_10h35.41.487,premceCat2_ses-02_part-02_label-phase2,2020.2.10,Win32,60,,,,,right,0.820945,2,0.28144,0,133,133,120,1,stimuli/objects/oven.jpg,left,old,121,,,,,,,,,,,,,,,
,,,,,,,,17,2021-05-11_10h35.41.487,premceCat2_ses-02_part-02_label-phase2,2020.2.10,Win32,60,,,,,right,0.69811,1,0.29023,0,134,134,18,1,stimuli/objects/cashregister01.jpg,right,new,19,,,,,,,,,,,,,,,
,,,,,,,,17,2021-05-11_10h35.41.487,premceCat2_ses-02_part-02_label-phase2,2020.2.10,Win32,60,,,,,right,0.83951,2,0.307785,0,135,135,21,1,stimuli/objects/paintbrush01.jpg,right,new,22,,,,,,,,,,,,,,,
,,,,,,,,17,2021-05-11_10h35.41.487,premceCat2_ses-02_part-02_label-phase2,2020.2.10,Win32,60,,,,,right,0.742885,1,0.284765,0,136,136,134,1,stimuli/objects/screwdriver04b.jpg,right,new,135,,,,,,,,,,,,,,,
,,,,,,,,17,2021-05-11_10h35.41.487,premceCat2_ses-02_part-02_label-phase2,2020.2.10,Win32,60,,,,,right,0.710995,2,0.73165,0,137,137,44,1,stimuli/objects/lawnmower.jpg,left,old,45,,,,,,,,,,,,,,,
,,,,,,,,17,2021-05-11_10h35.41.487,premceCat2_ses-02_part-02_label-phase2,2020.2.10,Win32,60,,,,,left,0.95793,3,0.483075,,,,,,,,,,left,0.628795,0,0,0,0,1,,,,,,,,
,,,,,,,,17,2021-05-11_10h35.41.487,premceCat2_ses-02_part-02_label-phase2,2020.2.10,Win32,60,,,,,,,,,0,138,138,122,1,stimuli/objects/desktopcomputer.jpg,left,old,123,,,,,,,,,,,,,,,
,,,,,,,,17,2021-05-11_10h35.41.487,premceCat2_ses-02_part-02_label-phase2,2020.2.10,Win32,60,,,,,right,1.450995,3,0.054695,0,139,139,26,1,stimuli/objects/boogieboard.jpg,right,new,27,,,,,,,,,,,,,,,
,,,,,,,,17,2021-05-11_10h35.41.487,premceCat2_ses-02_part-02_label-phase2,2020.2.10,Win32,60,,,,,right,1.33957,3,0.12694,0,140,140,19,1,stimuli/objects/peppermill02b.jpg,right,new,20,,,,,,,,,,,,,,,
,,,,,,,,17,2021-05-11_10h35.41.487,premceCat2_ses-02_part-02_label-phase2,2020.2.10,Win32,60,,,,,right,0.75897,1,0.772685,0,141,141,137,1,stimuli/objects/surfboard.jpg,left,old,138,,,,,,,,,,,,,,,
,,,,,,,,17,2021-05-11_10h35.41.487,premceCat2_ses-02_part-02_label-phase2,2020.2.10,Win32,60,,,,,left,1.261055,3,0.180265,,,,,,,,,,right,0.370805,0,0,0,0,1,,,,,,,,
,,,,,,,,17,2021-05-11_10h35.41.487,premceCat2_ses-02_part-02_label-phase2,2020.2.10,Win32,60,,,,,,,,,0,142,142,27,1,stimuli/objects/anchor.jpg,left,old,28,,,,,,,,,,,,,,,
,,,,,,,,17,2021-05-11_10h35.41.487,premceCat2_ses-02_part-02_label-phase2,2020.2.10,Win32,60,,,,,,,,,,,,,,,,,,,,,,,,,space,8.876415,0,1,1,0,1,condition_files/ImagesforRecog2_1.csv
