instructions_loop.thisRepN,instructions_loop.thisTrialN,instructions_loop.thisN,instructions_loop.thisIndex,instructions_loop.ran,text1,text2,text3,participant,date,expName,psychopyVersion,OS,frameRate,key_resp_2.keys,key_resp_2.rt,key_resp_3.keys,key_resp_3.rt,recog_resp.keys,recog_resp.rt,conf_resp.keys,conf_resp.rt,resp_assoc.keys,resp_assoc.rt,assoc_loop.thisRepN,assoc_loop.thisTrialN,assoc_loop.thisN,assoc_loop.thisIndex,assoc_loop.ran,recog_loop.thisRepN,recog_loop.thisTrialN,recog_loop.thisN,recog_loop.thisIndex,recog_loop.ran,images,corr_ans,type,order,key_resp_break.keys,key_resp_break.rt,list_loop.thisRepN,list_loop.thisTrialN,list_loop.thisN,list_loop.thisIndex,list_loop.ran,recog_list
0,0,0,0,1,Welcome to the last phase of this experiment!,.,Please press the space bar to continue,18,2021-05-17_18h34.30.287,premceCat2_ses-02_part-02_label-phase2,2020.2.10,MacIntel,60,,,,,,,,,,,,,,,,,,,,,,,,,,,,,,,,
0,1,1,1,1,.,"In this phase, you will see some objects. 

For each object, you should indicate whether you have seen it before during the experiment.

Press LEFT ARROW for YES
Press RIGHT ARROW for NO

",Please press the space bar to continue ,18,2021-05-17_18h34.30.287,premceCat2_ses-02_part-02_label-phase2,2020.2.10,MacIntel,60,,,,,,,,,,,,,,,,,,,,,,,,,,,,,,,,
0,2,2,2,1,.,"After that, you will be asked how confident you are of your choice.

Please rate the confidence in your choice with the numbers from 1 to 4 of your keyboard. 

The numbers correspond to:

1 = Very unsure
2 = Unsure
3 = Sure
4 = Very Sure",Please press the space bar to continue,18,2021-05-17_18h34.30.287,premceCat2_ses-02_part-02_label-phase2,2020.2.10,MacIntel,60,,,,,,,,,,,,,,,,,,,,,,,,,,,,,,,,
,,,,,,,,18,2021-05-17_18h34.30.287,premceCat2_ses-02_part-02_label-phase2,2020.2.10,MacIntel,60,space,14.565,space,12.826,left,3.362,4,2.458,left,1.916,0,0,0,0,1,,,,,,,,,,,,,,,,,
,,,,,,,,18,2021-05-17_18h34.30.287,premceCat2_ses-02_part-02_label-phase2,2020.2.10,MacIntel,60,,,,,,,,,,,,,,,,0,0,0,70,1,stimuli/objects/hourglass.jpg,left,old,71,,,,,,,,
,,,,,,,,18,2021-05-17_18h34.30.287,premceCat2_ses-02_part-02_label-phase2,2020.2.10,MacIntel,60,,,,,left,3.31,4,1.223,left,2.577,0,0,0,0,1,,,,,,,,,,,,,,,,,
,,,,,,,,18,2021-05-17_18h34.30.287,premceCat2_ses-02_part-02_label-phase2,2020.2.10,MacIntel,60,,,,,,,,,,,,,,,,0,1,1,0,1,stimuli/objects/electricoutlet.jpg,left,old,1,,,,,,,,
,,,,,,,,18,2021-05-17_18h34.30.287,premceCat2_ses-02_part-02_label-phase2,2020.2.10,MacIntel,60,,,,,left,4.44,2,1.89,right,4.135,0,0,0,0,1,,,,,,,,,,,,,,,,,
,,,,,,,,18,2021-05-17_18h34.30.287,premceCat2_ses-02_part-02_label-phase2,2020.2.10,MacIntel,60,,,,,,,,,,,,,,,,0,2,2,35,1,stimuli/objects/phonejack.jpg,left,old,36,,,,,,,,
,,,,,,,,18,2021-05-17_18h34.30.287,premceCat2_ses-02_part-02_label-phase2,2020.2.10,MacIntel,60,,,,,right,6.72,2,2.572,,,,,,,,0,3,3,138,1,stimuli/objects/taperecorder.jpg,right,new,139,,,,,,,,
,,,,,,,,18,2021-05-17_18h34.30.287,premceCat2_ses-02_part-02_label-phase2,2020.2.10,MacIntel,60,,,,,left,3.921,3,2.093,left,1.675,0,0,0,0,1,,,,,,,,,,,,,,,,,
,,,,,,,,18,2021-05-17_18h34.30.287,premceCat2_ses-02_part-02_label-phase2,2020.2.10,MacIntel,60,,,,,,,,,,,,,,,,0,4,4,36,1,stimuli/objects/antenna.jpg,left,old,37,,,,,,,,
,,,,,,,,18,2021-05-17_18h34.30.287,premceCat2_ses-02_part-02_label-phase2,2020.2.10,MacIntel,60,,,,,left,3.949,3,1.275,right,3.281,0,0,0,0,1,,,,,,,,,,,,,,,,,
,,,,,,,,18,2021-05-17_18h34.30.287,premceCat2_ses-02_part-02_label-phase2,2020.2.10,MacIntel,60,,,,,,,,,,,,,,,,0,5,5,108,1,stimuli/objects/metalscissors.jpg,right,new,109,,,,,,,,
,,,,,,,,18,2021-05-17_18h34.30.287,premceCat2_ses-02_part-02_label-phase2,2020.2.10,MacIntel,60,,,,,left,2.484,4,2.587,right,0.423,0,0,0,0,1,,,,,,,,,,,,,,,,,
,,,,,,,,18,2021-05-17_18h34.30.287,premceCat2_ses-02_part-02_label-phase2,2020.2.10,MacIntel,60,,,,,,,,,,,,,,,,0,6,6,115,1,stimuli/objects/boltcutter.jpg,left,old,116,,,,,,,,
,,,,,,,,18,2021-05-17_18h34.30.287,premceCat2_ses-02_part-02_label-phase2,2020.2.10,MacIntel,60,,,,,right,5.594,2,1.382,,,,,,,,0,7,7,137,1,stimuli/objects/iceskate.jpg,left,old,138,,,,,,,,
,,,,,,,,18,2021-05-17_18h34.30.287,premceCat2_ses-02_part-02_label-phase2,2020.2.10,MacIntel,60,,,,,right,2.672,3,1.254,,,,,,,,0,8,8,112,1,stimuli/objects/gymnasticring.jpg,right,new,113,,,,,,,,
,,,,,,,,18,2021-05-17_18h34.30.287,premceCat2_ses-02_part-02_label-phase2,2020.2.10,MacIntel,60,,,,,left,2.507,4,1.209,left,0.754,0,0,0,0,1,,,,,,,,,,,,,,,,,
,,,,,,,,18,2021-05-17_18h34.30.287,premceCat2_ses-02_part-02_label-phase2,2020.2.10,MacIntel,60,,,,,,,,,,,,,,,,0,9,9,120,1,stimuli/objects/martiniglass01b.jpg,left,old,121,,,,,,,,
,,,,,,,,18,2021-05-17_18h34.30.287,premceCat2_ses-02_part-02_label-phase2,2020.2.10,MacIntel,60,,,,,left,3.18,2,0.838,right,1.25,0,0,0,0,1,,,,,,,,,,,,,,,,,
,,,,,,,,18,2021-05-17_18h34.30.287,premceCat2_ses-02_part-02_label-phase2,2020.2.10,MacIntel,60,,,,,,,,,,,,,,,,0,10,10,7,1,stimuli/objects/jigsaw.jpg,left,old,8,,,,,,,,
,,,,,,,,18,2021-05-17_18h34.30.287,premceCat2_ses-02_part-02_label-phase2,2020.2.10,MacIntel,60,,,,,left,4.824,4,1.472,right,2.318,0,0,0,0,1,,,,,,,,,,,,,,,,,
,,,,,,,,18,2021-05-17_18h34.30.287,premceCat2_ses-02_part-02_label-phase2,2020.2.10,MacIntel,60,,,,,,,,,,,,,,,,0,11,11,1,1,stimuli/objects/nintendods.jpg,left,old,2,,,,,,,,
,,,,,,,,18,2021-05-17_18h34.30.287,premceCat2_ses-02_part-02_label-phase2,2020.2.10,MacIntel,60,,,,,left,2.863,4,0.779,left,2.254,0,0,0,0,1,,,,,,,,,,,,,,,,,
,,,,,,,,18,2021-05-17_18h34.30.287,premceCat2_ses-02_part-02_label-phase2,2020.2.10,MacIntel,60,,,,,,,,,,,,,,,,0,12,12,118,1,stimuli/objects/toyhardhat.jpg,left,old,119,,,,,,,,
,,,,,,,,18,2021-05-17_18h34.30.287,premceCat2_ses-02_part-02_label-phase2,2020.2.10,MacIntel,60,,,,,left,1.856,3,1.207,right,1.698,0,0,0,0,1,,,,,,,,,,,,,,,,,
,,,,,,,,18,2021-05-17_18h34.30.287,premceCat2_ses-02_part-02_label-phase2,2020.2.10,MacIntel,60,,,,,,,,,,,,,,,,0,13,13,114,1,stimuli/objects/espressomachine.jpg,left,old,115,,,,,,,,
,,,,,,,,18,2021-05-17_18h34.30.287,premceCat2_ses-02_part-02_label-phase2,2020.2.10,MacIntel,60,,,,,right,4.14,2,0.583,,,,,,,,0,14,14,126,1,stimuli/objects/tableknife02.jpg,right,new,127,,,,,,,,
,,,,,,,,18,2021-05-17_18h34.30.287,premceCat2_ses-02_part-02_label-phase2,2020.2.10,MacIntel,60,,,,,right,2.934,3,0.797,,,,,,,,0,15,15,78,1,stimuli/objects/handmixer01d.jpg,left,old,79,,,,,,,,
,,,,,,,,18,2021-05-17_18h34.30.287,premceCat2_ses-02_part-02_label-phase2,2020.2.10,MacIntel,60,,,,,right,1.78,3,0.464,,,,,,,,0,16,16,76,1,stimuli/objects/megaphone.jpg,right,new,77,,,,,,,,
,,,,,,,,18,2021-05-17_18h34.30.287,premceCat2_ses-02_part-02_label-phase2,2020.2.10,MacIntel,60,,,,,left,2.031,4,1.179,left,0.791,0,0,0,0,1,,,,,,,,,,,,,,,,,
,,,,,,,,18,2021-05-17_18h34.30.287,premceCat2_ses-02_part-02_label-phase2,2020.2.10,MacIntel,60,,,,,,,,,,,,,,,,0,17,17,89,1,stimuli/objects/ducttape.jpg,right,new,90,,,,,,,,
,,,,,,,,18,2021-05-17_18h34.30.287,premceCat2_ses-02_part-02_label-phase2,2020.2.10,MacIntel,60,,,,,right,2.007,2,2.128,,,,,,,,0,18,18,110,1,stimuli/objects/lock03a.jpg,right,new,111,,,,,,,,
,,,,,,,,18,2021-05-17_18h34.30.287,premceCat2_ses-02_part-02_label-phase2,2020.2.10,MacIntel,60,,,,,left,1.443,4,0.955,right,0.435,0,0,0,0,1,,,,,,,,,,,,,,,,,
,,,,,,,,18,2021-05-17_18h34.30.287,premceCat2_ses-02_part-02_label-phase2,2020.2.10,MacIntel,60,,,,,,,,,,,,,,,,0,19,19,79,1,stimuli/objects/wire.jpg,left,old,80,,,,,,,,
,,,,,,,,18,2021-05-17_18h34.30.287,premceCat2_ses-02_part-02_label-phase2,2020.2.10,MacIntel,60,,,,,left,1.597,4,1.181,right,0.591,0,0,0,0,1,,,,,,,,,,,,,,,,,
,,,,,,,,18,2021-05-17_18h34.30.287,premceCat2_ses-02_part-02_label-phase2,2020.2.10,MacIntel,60,,,,,,,,,,,,,,,,0,20,20,123,1,stimuli/objects/cowbell.jpg,left,old,124,,,,,,,,
,,,,,,,,18,2021-05-17_18h34.30.287,premceCat2_ses-02_part-02_label-phase2,2020.2.10,MacIntel,60,,,,,left,1.339,3,0.766,right,0.327,0,0,0,0,1,,,,,,,,,,,,,,,,,
,,,,,,,,18,2021-05-17_18h34.30.287,premceCat2_ses-02_part-02_label-phase2,2020.2.10,MacIntel,60,,,,,,,,,,,,,,,,0,21,21,69,1,stimuli/objects/cellphone.jpg,left,old,70,,,,,,,,
,,,,,,,,18,2021-05-17_18h34.30.287,premceCat2_ses-02_part-02_label-phase2,2020.2.10,MacIntel,60,,,,,right,1.548,3,1.139,,,,,,,,0,22,22,30,1,stimuli/objects/printer02.jpg,right,new,31,,,,,,,,
,,,,,,,,18,2021-05-17_18h34.30.287,premceCat2_ses-02_part-02_label-phase2,2020.2.10,MacIntel,60,,,,,left,3,2,0.509,right,0.502,0,0,0,0,1,,,,,,,,,,,,,,,,,
,,,,,,,,18,2021-05-17_18h34.30.287,premceCat2_ses-02_part-02_label-phase2,2020.2.10,MacIntel,60,,,,,,,,,,,,,,,,0,23,23,141,1,stimuli/objects/generator.jpg,right,new,142,,,,,,,,
,,,,,,,,18,2021-05-17_18h34.30.287,premceCat2_ses-02_part-02_label-phase2,2020.2.10,MacIntel,60,,,,,right,2.111,3,1.879,,,,,,,,0,24,24,128,1,stimuli/objects/tripod01.jpg,right,new,129,,,,,,,,
,,,,,,,,18,2021-05-17_18h34.30.287,premceCat2_ses-02_part-02_label-phase2,2020.2.10,MacIntel,60,,,,,right,3.11,4,1.729,,,,,,,,0,25,25,131,1,stimuli/objects/spotlight.jpg,right,new,132,,,,,,,,
,,,,,,,,18,2021-05-17_18h34.30.287,premceCat2_ses-02_part-02_label-phase2,2020.2.10,MacIntel,60,,,,,left,2.847,2,0.898,left,1.151,0,0,0,0,1,,,,,,,,,,,,,,,,,
,,,,,,,,18,2021-05-17_18h34.30.287,premceCat2_ses-02_part-02_label-phase2,2020.2.10,MacIntel,60,,,,,,,,,,,,,,,,0,26,26,134,1,stimuli/objects/screwdriver04b.jpg,right,new,135,,,,,,,,
,,,,,,,,18,2021-05-17_18h34.30.287,premceCat2_ses-02_part-02_label-phase2,2020.2.10,MacIntel,60,,,,,left,4.356,3,0.911,left,1.549,0,0,0,0,1,,,,,,,,,,,,,,,,,
,,,,,,,,18,2021-05-17_18h34.30.287,premceCat2_ses-02_part-02_label-phase2,2020.2.10,MacIntel,60,,,,,,,,,,,,,,,,0,27,27,139,1,stimuli/objects/frisbee.jpg,right,new,140,,,,,,,,
,,,,,,,,18,2021-05-17_18h34.30.287,premceCat2_ses-02_part-02_label-phase2,2020.2.10,MacIntel,60,,,,,left,1.86,4,0.734,left,0.969,0,0,0,0,1,,,,,,,,,,,,,,,,,
,,,,,,,,18,2021-05-17_18h34.30.287,premceCat2_ses-02_part-02_label-phase2,2020.2.10,MacIntel,60,,,,,,,,,,,,,,,,0,28,28,45,1,stimuli/objects/measuringcup01.jpg,left,old,46,,,,,,,,
,,,,,,,,18,2021-05-17_18h34.30.287,premceCat2_ses-02_part-02_label-phase2,2020.2.10,MacIntel,60,,,,,right,2.51,3,0.793,,,,,,,,0,29,29,54,1,stimuli/objects/pda.jpg,right,new,55,,,,,,,,
,,,,,,,,18,2021-05-17_18h34.30.287,premceCat2_ses-02_part-02_label-phase2,2020.2.10,MacIntel,60,,,,,right,1.473,3,1.327,,,,,,,,0,30,30,71,1,stimuli/objects/faxmachine.jpg,right,new,72,,,,,,,,
,,,,,,,,18,2021-05-17_18h34.30.287,premceCat2_ses-02_part-02_label-phase2,2020.2.10,MacIntel,60,,,,,left,2.112,3,1.693,right,0.49,0,0,0,0,1,,,,,,,,,,,,,,,,,
,,,,,,,,18,2021-05-17_18h34.30.287,premceCat2_ses-02_part-02_label-phase2,2020.2.10,MacIntel,60,,,,,,,,,,,,,,,,0,31,31,68,1,stimuli/objects/leafblower01.jpg,right,new,69,,,,,,,,
,,,,,,,,18,2021-05-17_18h34.30.287,premceCat2_ses-02_part-02_label-phase2,2020.2.10,MacIntel,60,,,,,left,1.847,4,0.421,right,0.53,0,0,0,0,1,,,,,,,,,,,,,,,,,
,,,,,,,,18,2021-05-17_18h34.30.287,premceCat2_ses-02_part-02_label-phase2,2020.2.10,MacIntel,60,,,,,,,,,,,,,,,,0,32,32,31,1,stimuli/objects/ladder.jpg,left,old,32,,,,,,,,
,,,,,,,,18,2021-05-17_18h34.30.287,premceCat2_ses-02_part-02_label-phase2,2020.2.10,MacIntel,60,,,,,left,1.428,4,0.8,left,0.621,0,0,0,0,1,,,,,,,,,,,,,,,,,
,,,,,,,,18,2021-05-17_18h34.30.287,premceCat2_ses-02_part-02_label-phase2,2020.2.10,MacIntel,60,,,,,,,,,,,,,,,,0,33,33,77,1,stimuli/objects/photocopier.jpg,left,old,78,,,,,,,,
,,,,,,,,18,2021-05-17_18h34.30.287,premceCat2_ses-02_part-02_label-phase2,2020.2.10,MacIntel,60,,,,,right,1.697,4,0.746,,,,,,,,0,34,34,109,1,stimuli/objects/winerack.jpg,right,new,110,,,,,,,,
,,,,,,,,18,2021-05-17_18h34.30.287,premceCat2_ses-02_part-02_label-phase2,2020.2.10,MacIntel,60,,,,,right,2.484,4,0.74,,,,,,,,0,35,35,125,1,stimuli/objects/shoulderpad.jpg,right,new,126,,,,,,,,
,,,,,,,,18,2021-05-17_18h34.30.287,premceCat2_ses-02_part-02_label-phase2,2020.2.10,MacIntel,60,,,,,right,1.695,1,2.765,,,,,,,,0,36,36,104,1,stimuli/objects/lightbulb01.jpg,left,old,105,,,,,,,,
,,,,,,,,18,2021-05-17_18h34.30.287,premceCat2_ses-02_part-02_label-phase2,2020.2.10,MacIntel,60,,,,,left,1.583,4,0.505,right,1.172,0,0,0,0,1,,,,,,,,,,,,,,,,,
,,,,,,,,18,2021-05-17_18h34.30.287,premceCat2_ses-02_part-02_label-phase2,2020.2.10,MacIntel,60,,,,,,,,,,,,,,,,0,37,37,119,1,stimuli/objects/tongs01b.jpg,right,new,120,,,,,,,,
,,,,,,,,18,2021-05-17_18h34.30.287,premceCat2_ses-02_part-02_label-phase2,2020.2.10,MacIntel,60,,,,,left,3.115,3,3.361,right,0.516,0,0,0,0,1,,,,,,,,,,,,,,,,,
,,,,,,,,18,2021-05-17_18h34.30.287,premceCat2_ses-02_part-02_label-phase2,2020.2.10,MacIntel,60,,,,,,,,,,,,,,,,0,38,38,81,1,stimuli/objects/avcable.jpg,right,new,82,,,,,,,,
,,,,,,,,18,2021-05-17_18h34.30.287,premceCat2_ses-02_part-02_label-phase2,2020.2.10,MacIntel,60,,,,,left,3.698,4,1.235,left,0.445,0,0,0,0,1,,,,,,,,,,,,,,,,,
,,,,,,,,18,2021-05-17_18h34.30.287,premceCat2_ses-02_part-02_label-phase2,2020.2.10,MacIntel,60,,,,,,,,,,,,,,,,0,39,39,9,1,stimuli/objects/measuringtape01.jpg,right,new,10,,,,,,,,
,,,,,,,,18,2021-05-17_18h34.30.287,premceCat2_ses-02_part-02_label-phase2,2020.2.10,MacIntel,60,,,,,left,3.768,4,0.623,left,0.467,0,0,0,0,1,,,,,,,,,,,,,,,,,
,,,,,,,,18,2021-05-17_18h34.30.287,premceCat2_ses-02_part-02_label-phase2,2020.2.10,MacIntel,60,,,,,,,,,,,,,,,,0,40,40,43,1,stimuli/objects/punchingball.jpg,right,new,44,,,,,,,,
,,,,,,,,18,2021-05-17_18h34.30.287,premceCat2_ses-02_part-02_label-phase2,2020.2.10,MacIntel,60,,,,,left,2.249,4,0.72,left,0.301,0,0,0,0,1,,,,,,,,,,,,,,,,,
,,,,,,,,18,2021-05-17_18h34.30.287,premceCat2_ses-02_part-02_label-phase2,2020.2.10,MacIntel,60,,,,,,,,,,,,,,,,0,41,41,25,1,stimuli/objects/bowlingball.jpg,right,new,26,,,,,,,,
,,,,,,,,18,2021-05-17_18h34.30.287,premceCat2_ses-02_part-02_label-phase2,2020.2.10,MacIntel,60,,,,,right,2.66,2,0.499,,,,,,,,0,42,42,59,1,stimuli/objects/studiolight.jpg,right,new,60,,,,,,,,
,,,,,,,,18,2021-05-17_18h34.30.287,premceCat2_ses-02_part-02_label-phase2,2020.2.10,MacIntel,60,,,,,left,2.018,4,0.421,left,0.687,0,0,0,0,1,,,,,,,,,,,,,,,,,
,,,,,,,,18,2021-05-17_18h34.30.287,premceCat2_ses-02_part-02_label-phase2,2020.2.10,MacIntel,60,,,,,,,,,,,,,,,,0,43,43,58,1,stimuli/objects/rope03.jpg,left,old,59,,,,,,,,
,,,,,,,,18,2021-05-17_18h34.30.287,premceCat2_ses-02_part-02_label-phase2,2020.2.10,MacIntel,60,,,,,right,3.129,2,0.427,,,,,,,,0,44,44,83,1,stimuli/objects/kitchenscale01a.jpg,right,new,84,,,,,,,,
,,,,,,,,18,2021-05-17_18h34.30.287,premceCat2_ses-02_part-02_label-phase2,2020.2.10,MacIntel,60,,,,,left,1.528,4,0.86,right,0.724,0,0,0,0,1,,,,,,,,,,,,,,,,,
,,,,,,,,18,2021-05-17_18h34.30.287,premceCat2_ses-02_part-02_label-phase2,2020.2.10,MacIntel,60,,,,,,,,,,,,,,,,0,45,45,95,1,stimuli/objects/lectern01.jpg,left,old,96,,,,,,,,
,,,,,,,,18,2021-05-17_18h34.30.287,premceCat2_ses-02_part-02_label-phase2,2020.2.10,MacIntel,60,,,,,left,1.766,4,0.987,right,0.463,0,0,0,0,1,,,,,,,,,,,,,,,,,
,,,,,,,,18,2021-05-17_18h34.30.287,premceCat2_ses-02_part-02_label-phase2,2020.2.10,MacIntel,60,,,,,,,,,,,,,,,,0,46,46,37,1,stimuli/objects/setsquare.jpg,left,old,38,,,,,,,,
,,,,,,,,18,2021-05-17_18h34.30.287,premceCat2_ses-02_part-02_label-phase2,2020.2.10,MacIntel,60,,,,,right,2.549,2,1.784,,,,,,,,0,47,47,72,1,stimuli/objects/cclamp.jpg,right,new,73,,,,,,,,
,,,,,,,,18,2021-05-17_18h34.30.287,premceCat2_ses-02_part-02_label-phase2,2020.2.10,MacIntel,60,,,,,right,1.951,4,0.997,,,,,,,,0,48,48,51,1,stimuli/objects/webcam.jpg,right,new,52,,,,,,,,
,,,,,,,,18,2021-05-17_18h34.30.287,premceCat2_ses-02_part-02_label-phase2,2020.2.10,MacIntel,60,,,,,left,1.47,4,0.439,left,0.436,0,0,0,0,1,,,,,,,,,,,,,,,,,
,,,,,,,,18,2021-05-17_18h34.30.287,premceCat2_ses-02_part-02_label-phase2,2020.2.10,MacIntel,60,,,,,,,,,,,,,,,,0,49,49,28,1,stimuli/objects/baseballbat.jpg,left,old,29,,,,,,,,
,,,,,,,,18,2021-05-17_18h34.30.287,premceCat2_ses-02_part-02_label-phase2,2020.2.10,MacIntel,60,,,,,right,2.117,3,0.639,,,,,,,,0,50,50,116,1,stimuli/objects/radio01.jpg,right,new,117,,,,,,,,
,,,,,,,,18,2021-05-17_18h34.30.287,premceCat2_ses-02_part-02_label-phase2,2020.2.10,MacIntel,60,,,,,left,1.894,4,0.928,left,1.649,0,0,0,0,1,,,,,,,,,,,,,,,,,
,,,,,,,,18,2021-05-17_18h34.30.287,premceCat2_ses-02_part-02_label-phase2,2020.2.10,MacIntel,60,,,,,,,,,,,,,,,,0,51,51,67,1,stimuli/objects/cooler01.jpg,left,old,68,,,,,,,,
,,,,,,,,18,2021-05-17_18h34.30.287,premceCat2_ses-02_part-02_label-phase2,2020.2.10,MacIntel,60,,,,,left,4.03,4,0.787,right,1.314,0,0,0,0,1,,,,,,,,,,,,,,,,,
,,,,,,,,18,2021-05-17_18h34.30.287,premceCat2_ses-02_part-02_label-phase2,2020.2.10,MacIntel,60,,,,,,,,,,,,,,,,0,52,52,65,1,stimuli/objects/pipewrench.jpg,left,old,66,,,,,,,,
,,,,,,,,18,2021-05-17_18h34.30.287,premceCat2_ses-02_part-02_label-phase2,2020.2.10,MacIntel,60,,,,,left,2.443,4,1.568,right,0.399,0,0,0,0,1,,,,,,,,,,,,,,,,,
,,,,,,,,18,2021-05-17_18h34.30.287,premceCat2_ses-02_part-02_label-phase2,2020.2.10,MacIntel,60,,,,,,,,,,,,,,,,0,53,53,142,1,stimuli/objects/funnel.jpg,left,old,143,,,,,,,,
,,,,,,,,18,2021-05-17_18h34.30.287,premceCat2_ses-02_part-02_label-phase2,2020.2.10,MacIntel,60,,,,,left,2.44,3,0.781,left,0.383,0,0,0,0,1,,,,,,,,,,,,,,,,,
,,,,,,,,18,2021-05-17_18h34.30.287,premceCat2_ses-02_part-02_label-phase2,2020.2.10,MacIntel,60,,,,,,,,,,,,,,,,0,54,54,84,1,stimuli/objects/catchermask.jpg,left,old,85,,,,,,,,
,,,,,,,,18,2021-05-17_18h34.30.287,premceCat2_ses-02_part-02_label-phase2,2020.2.10,MacIntel,60,,,,,left,1.681,4,0.408,right,0.485,0,0,0,0,1,,,,,,,,,,,,,,,,,
,,,,,,,,18,2021-05-17_18h34.30.287,premceCat2_ses-02_part-02_label-phase2,2020.2.10,MacIntel,60,,,,,,,,,,,,,,,,0,55,55,52,1,stimuli/objects/cookiecutter.jpg,left,old,53,,,,,,,,
,,,,,,,,18,2021-05-17_18h34.30.287,premceCat2_ses-02_part-02_label-phase2,2020.2.10,MacIntel,60,,,,,left,1.651,3,1.01,right,2.519,0,0,0,0,1,,,,,,,,,,,,,,,,,
,,,,,,,,18,2021-05-17_18h34.30.287,premceCat2_ses-02_part-02_label-phase2,2020.2.10,MacIntel,60,,,,,,,,,,,,,,,,0,56,56,135,1,stimuli/objects/wheelbarrow01.jpg,left,old,136,,,,,,,,
,,,,,,,,18,2021-05-17_18h34.30.287,premceCat2_ses-02_part-02_label-phase2,2020.2.10,MacIntel,60,,,,,left,1.6,4,1.107,right,0.331,0,0,0,0,1,,,,,,,,,,,,,,,,,
,,,,,,,,18,2021-05-17_18h34.30.287,premceCat2_ses-02_part-02_label-phase2,2020.2.10,MacIntel,60,,,,,,,,,,,,,,,,0,57,57,50,1,stimuli/objects/chisel02b.jpg,right,new,51,,,,,,,,
,,,,,,,,18,2021-05-17_18h34.30.287,premceCat2_ses-02_part-02_label-phase2,2020.2.10,MacIntel,60,,,,,left,5.073,1,0.993,right,0.32,0,0,0,0,1,,,,,,,,,,,,,,,,,
,,,,,,,,18,2021-05-17_18h34.30.287,premceCat2_ses-02_part-02_label-phase2,2020.2.10,MacIntel,60,,,,,,,,,,,,,,,,0,58,58,136,1,stimuli/objects/battery02b.jpg,right,new,137,,,,,,,,
,,,,,,,,18,2021-05-17_18h34.30.287,premceCat2_ses-02_part-02_label-phase2,2020.2.10,MacIntel,60,,,,,right,1.866,3,0.351,,,,,,,,0,59,59,93,1,stimuli/objects/icepack.jpg,right,new,94,,,,,,,,
,,,,,,,,18,2021-05-17_18h34.30.287,premceCat2_ses-02_part-02_label-phase2,2020.2.10,MacIntel,60,,,,,left,1.317,4,0.39,right,0.597,0,0,0,0,1,,,,,,,,,,,,,,,,,
,,,,,,,,18,2021-05-17_18h34.30.287,premceCat2_ses-02_part-02_label-phase2,2020.2.10,MacIntel,60,,,,,,,,,,,,,,,,0,60,60,122,1,stimuli/objects/atm.jpg,left,old,123,,,,,,,,
,,,,,,,,18,2021-05-17_18h34.30.287,premceCat2_ses-02_part-02_label-phase2,2020.2.10,MacIntel,60,,,,,right,2.094,3,1.574,,,,,,,,0,61,61,57,1,stimuli/objects/audiocablesplitter.jpg,right,new,58,,,,,,,,
,,,,,,,,18,2021-05-17_18h34.30.287,premceCat2_ses-02_part-02_label-phase2,2020.2.10,MacIntel,60,,,,,left,1.53,4,0.358,left,0.418,0,0,0,0,1,,,,,,,,,,,,,,,,,
,,,,,,,,18,2021-05-17_18h34.30.287,premceCat2_ses-02_part-02_label-phase2,2020.2.10,MacIntel,60,,,,,,,,,,,,,,,,0,62,62,102,1,stimuli/objects/hockeygoalieglove.jpg,left,old,103,,,,,,,,
,,,,,,,,18,2021-05-17_18h34.30.287,premceCat2_ses-02_part-02_label-phase2,2020.2.10,MacIntel,60,,,,,left,2.638,4,0.761,right,1.051,0,0,0,0,1,,,,,,,,,,,,,,,,,
,,,,,,,,18,2021-05-17_18h34.30.287,premceCat2_ses-02_part-02_label-phase2,2020.2.10,MacIntel,60,,,,,,,,,,,,,,,,0,63,63,105,1,stimuli/objects/fanblades.jpg,left,old,106,,,,,,,,
,,,,,,,,18,2021-05-17_18h34.30.287,premceCat2_ses-02_part-02_label-phase2,2020.2.10,MacIntel,60,,,,,right,1.574,2,0.622,,,,,,,,0,64,64,113,1,stimuli/objects/powercable.jpg,right,new,114,,,,,,,,
,,,,,,,,18,2021-05-17_18h34.30.287,premceCat2_ses-02_part-02_label-phase2,2020.2.10,MacIntel,60,,,,,right,1.649,3,0.587,,,,,,,,0,65,65,39,1,stimuli/objects/sippycup.jpg,right,new,40,,,,,,,,
,,,,,,,,18,2021-05-17_18h34.30.287,premceCat2_ses-02_part-02_label-phase2,2020.2.10,MacIntel,60,,,,,right,2.174,4,0.353,,,,,,,,0,66,66,33,1,stimuli/objects/microwave.jpg,right,new,34,,,,,,,,
,,,,,,,,18,2021-05-17_18h34.30.287,premceCat2_ses-02_part-02_label-phase2,2020.2.10,MacIntel,60,,,,,left,1.615,4,0.79,right,0.558,0,0,0,0,1,,,,,,,,,,,,,,,,,
,,,,,,,,18,2021-05-17_18h34.30.287,premceCat2_ses-02_part-02_label-phase2,2020.2.10,MacIntel,60,,,,,,,,,,,,,,,,0,67,67,87,1,stimuli/objects/dvdplayer.jpg,left,old,88,,,,,,,,
,,,,,,,,18,2021-05-17_18h34.30.287,premceCat2_ses-02_part-02_label-phase2,2020.2.10,MacIntel,60,,,,,right,2.835,3,0.609,,,,,,,,0,68,68,22,1,stimuli/objects/umbrella04.jpg,right,new,23,,,,,,,,
,,,,,,,,18,2021-05-17_18h34.30.287,premceCat2_ses-02_part-02_label-phase2,2020.2.10,MacIntel,60,,,,,right,1.469,3,0.644,,,,,,,,0,69,69,17,1,stimuli/objects/exercisebench.jpg,right,new,18,,,,,,,,
,,,,,,,,18,2021-05-17_18h34.30.287,premceCat2_ses-02_part-02_label-phase2,2020.2.10,MacIntel,60,,,,,left,1.635,4,1.072,left,0.433,0,0,0,0,1,,,,,,,,,,,,,,,,,
,,,,,,,,18,2021-05-17_18h34.30.287,premceCat2_ses-02_part-02_label-phase2,2020.2.10,MacIntel,60,,,,,,,,,,,,,,,,0,70,70,2,1,stimuli/objects/dvdcase01.jpg,left,old,3,,,,,,,,
,,,,,,,,18,2021-05-17_18h34.30.287,premceCat2_ses-02_part-02_label-phase2,2020.2.10,MacIntel,60,,,,,left,1.53,4,0.611,left,0.363,0,0,0,0,1,,,,,,,,,,,,,,,,,
,,,,,,,,18,2021-05-17_18h34.30.287,premceCat2_ses-02_part-02_label-phase2,2020.2.10,MacIntel,60,,,,,,,,,,,,,,,,0,71,71,101,1,stimuli/objects/gps.jpg,left,old,102,,,,,,,,
,,,,,,,,18,2021-05-17_18h34.30.287,premceCat2_ses-02_part-02_label-phase2,2020.2.10,MacIntel,60,,,,,left,1.325,4,0.671,left,0.298,0,0,0,0,1,,,,,,,,,,,,,,,,,
,,,,,,,,18,2021-05-17_18h34.30.287,premceCat2_ses-02_part-02_label-phase2,2020.2.10,MacIntel,60,,,,,,,,,,,,,,,,0,72,72,132,1,stimuli/objects/expansioncard.jpg,left,old,133,,,,,,,,
,,,,,,,,18,2021-05-17_18h34.30.287,premceCat2_ses-02_part-02_label-phase2,2020.2.10,MacIntel,60,,,,,left,1.546,4,0.879,left,0.344,0,0,0,0,1,,,,,,,,,,,,,,,,,
,,,,,,,,18,2021-05-17_18h34.30.287,premceCat2_ses-02_part-02_label-phase2,2020.2.10,MacIntel,60,,,,,,,,,,,,,,,,0,73,73,124,1,stimuli/objects/bikepump01.jpg,left,old,125,,,,,,,,
,,,,,,,,18,2021-05-17_18h34.30.287,premceCat2_ses-02_part-02_label-phase2,2020.2.10,MacIntel,60,,,,,right,2.766,3,0.931,,,,,,,,0,74,74,12,1,stimuli/objects/garlicpress02a.jpg,right,new,13,,,,,,,,
,,,,,,,,18,2021-05-17_18h34.30.287,premceCat2_ses-02_part-02_label-phase2,2020.2.10,MacIntel,60,,,,,left,3.583,4,0.529,right,0.42,0,0,0,0,1,,,,,,,,,,,,,,,,,
,,,,,,,,18,2021-05-17_18h34.30.287,premceCat2_ses-02_part-02_label-phase2,2020.2.10,MacIntel,60,,,,,,,,,,,,,,,,0,75,75,97,1,stimuli/objects/satellitedish01.jpg,left,old,98,,,,,,,,
,,,,,,,,18,2021-05-17_18h34.30.287,premceCat2_ses-02_part-02_label-phase2,2020.2.10,MacIntel,60,,,,,right,2.65,3,0.514,,,,,,,,0,76,76,133,1,stimuli/objects/icebucket.jpg,right,new,134,,,,,,,,
,,,,,,,,18,2021-05-17_18h34.30.287,premceCat2_ses-02_part-02_label-phase2,2020.2.10,MacIntel,60,,,,,right,1.614,3,0.318,,,,,,,,0,77,77,20,1,stimuli/objects/laptop01a.jpg,right,new,21,,,,,,,,
,,,,,,,,18,2021-05-17_18h34.30.287,premceCat2_ses-02_part-02_label-phase2,2020.2.10,MacIntel,60,,,,,right,1.321,4,0.354,,,,,,,,0,78,78,80,1,stimuli/objects/snowman.jpg,right,new,81,,,,,,,,
,,,,,,,,18,2021-05-17_18h34.30.287,premceCat2_ses-02_part-02_label-phase2,2020.2.10,MacIntel,60,,,,,left,1.084,4,0.343,left,0.305,0,0,0,0,1,,,,,,,,,,,,,,,,,
,,,,,,,,18,2021-05-17_18h34.30.287,premceCat2_ses-02_part-02_label-phase2,2020.2.10,MacIntel,60,,,,,,,,,,,,,,,,0,79,79,74,1,stimuli/objects/baseball01a.jpg,left,old,75,,,,,,,,
,,,,,,,,18,2021-05-17_18h34.30.287,premceCat2_ses-02_part-02_label-phase2,2020.2.10,MacIntel,60,,,,,right,1.131,3,0.17,,,,,,,,0,80,80,18,1,stimuli/objects/cashregister01.jpg,right,new,19,,,,,,,,
,,,,,,,,18,2021-05-17_18h34.30.287,premceCat2_ses-02_part-02_label-phase2,2020.2.10,MacIntel,60,,,,,right,1.242,3,0.347,,,,,,,,0,81,81,117,1,stimuli/objects/videotape01b.jpg,right,new,118,,,,,,,,
,,,,,,,,18,2021-05-17_18h34.30.287,premceCat2_ses-02_part-02_label-phase2,2020.2.10,MacIntel,60,,,,,right,1.216,4,0.401,,,,,,,,0,82,82,42,1,stimuli/objects/snowshoe.jpg,right,new,43,,,,,,,,
,,,,,,,,18,2021-05-17_18h34.30.287,premceCat2_ses-02_part-02_label-phase2,2020.2.10,MacIntel,60,,,,,right,1.344,2,0.531,,,,,,,,0,83,83,5,1,stimuli/objects/lamp04a.jpg,left,old,6,,,,,,,,
,,,,,,,,18,2021-05-17_18h34.30.287,premceCat2_ses-02_part-02_label-phase2,2020.2.10,MacIntel,60,,,,,left,1.683,4,0.676,right,0.516,0,0,0,0,1,,,,,,,,,,,,,,,,,
,,,,,,,,18,2021-05-17_18h34.30.287,premceCat2_ses-02_part-02_label-phase2,2020.2.10,MacIntel,60,,,,,,,,,,,,,,,,0,84,84,103,1,stimuli/objects/oven.jpg,left,old,104,,,,,,,,
,,,,,,,,18,2021-05-17_18h34.30.287,premceCat2_ses-02_part-02_label-phase2,2020.2.10,MacIntel,60,,,,,right,2.577,2,0.554,,,,,,,,0,85,85,100,1,stimuli/objects/remotecontrol04.jpg,right,new,101,,,,,,,,
,,,,,,,,18,2021-05-17_18h34.30.287,premceCat2_ses-02_part-02_label-phase2,2020.2.10,MacIntel,60,,,,,right,1.65,3,0.634,,,,,,,,0,86,86,46,1,stimuli/objects/walkman.jpg,right,new,47,,,,,,,,
,,,,,,,,18,2021-05-17_18h34.30.287,premceCat2_ses-02_part-02_label-phase2,2020.2.10,MacIntel,60,,,,,left,1.655,4,0.337,right,0.591,0,0,0,0,1,,,,,,,,,,,,,,,,,
,,,,,,,,18,2021-05-17_18h34.30.287,premceCat2_ses-02_part-02_label-phase2,2020.2.10,MacIntel,60,,,,,,,,,,,,,,,,0,87,87,61,1,stimuli/objects/weedwacker.jpg,left,old,62,,,,,,,,
,,,,,,,,18,2021-05-17_18h34.30.287,premceCat2_ses-02_part-02_label-phase2,2020.2.10,MacIntel,60,,,,,right,3.05,3,0.535,,,,,,,,0,88,88,38,1,stimuli/objects/soundmixer.jpg,right,new,39,,,,,,,,
,,,,,,,,18,2021-05-17_18h34.30.287,premceCat2_ses-02_part-02_label-phase2,2020.2.10,MacIntel,60,,,,,left,2.171,4,0.586,left,0.367,0,0,0,0,1,,,,,,,,,,,,,,,,,
,,,,,,,,18,2021-05-17_18h34.30.287,premceCat2_ses-02_part-02_label-phase2,2020.2.10,MacIntel,60,,,,,,,,,,,,,,,,0,89,89,11,1,stimuli/objects/usbkey.jpg,left,old,12,,,,,,,,
,,,,,,,,18,2021-05-17_18h34.30.287,premceCat2_ses-02_part-02_label-phase2,2020.2.10,MacIntel,60,,,,,right,1.388,3,1.098,,,,,,,,0,90,90,94,1,stimuli/objects/electricmixer.jpg,right,new,95,,,,,,,,
,,,,,,,,18,2021-05-17_18h34.30.287,premceCat2_ses-02_part-02_label-phase2,2020.2.10,MacIntel,60,,,,,left,3.053,2,0.807,right,0.354,0,0,0,0,1,,,,,,,,,,,,,,,,,
,,,,,,,,18,2021-05-17_18h34.30.287,premceCat2_ses-02_part-02_label-phase2,2020.2.10,MacIntel,60,,,,,,,,,,,,,,,,0,91,91,66,1,stimuli/objects/nailgun.jpg,right,new,67,,,,,,,,
,,,,,,,,18,2021-05-17_18h34.30.287,premceCat2_ses-02_part-02_label-phase2,2020.2.10,MacIntel,60,,,,,right,2.566,2,0.851,,,,,,,,0,92,92,106,1,stimuli/objects/minifridge.jpg,right,new,107,,,,,,,,
,,,,,,,,18,2021-05-17_18h34.30.287,premceCat2_ses-02_part-02_label-phase2,2020.2.10,MacIntel,60,,,,,right,2.226,3,0.905,,,,,,,,0,93,93,55,1,stimuli/objects/toolbox02.jpg,right,new,56,,,,,,,,
,,,,,,,,18,2021-05-17_18h34.30.287,premceCat2_ses-02_part-02_label-phase2,2020.2.10,MacIntel,60,,,,,left,1.383,3,0.637,right,0.54,0,0,0,0,1,,,,,,,,,,,,,,,,,
,,,,,,,,18,2021-05-17_18h34.30.287,premceCat2_ses-02_part-02_label-phase2,2020.2.10,MacIntel,60,,,,,,,,,,,,,,,,0,94,94,64,1,stimuli/objects/axe01.jpg,left,old,65,,,,,,,,
,,,,,,,,18,2021-05-17_18h34.30.287,premceCat2_ses-02_part-02_label-phase2,2020.2.10,MacIntel,60,,,,,left,1.29,4,0.616,left,0.366,0,0,0,0,1,,,,,,,,,,,,,,,,,
,,,,,,,,18,2021-05-17_18h34.30.287,premceCat2_ses-02_part-02_label-phase2,2020.2.10,MacIntel,60,,,,,,,,,,,,,,,,0,95,95,53,1,stimuli/objects/binoculars01b.jpg,right,new,54,,,,,,,,
,,,,,,,,18,2021-05-17_18h34.30.287,premceCat2_ses-02_part-02_label-phase2,2020.2.10,MacIntel,60,,,,,left,1.134,4,0.507,left,0.596,0,0,0,0,1,,,,,,,,,,,,,,,,,
,,,,,,,,18,2021-05-17_18h34.30.287,premceCat2_ses-02_part-02_label-phase2,2020.2.10,MacIntel,60,,,,,,,,,,,,,,,,0,96,96,3,1,stimuli/objects/bowl02a.jpg,left,old,4,,,,,,,,
,,,,,,,,18,2021-05-17_18h34.30.287,premceCat2_ses-02_part-02_label-phase2,2020.2.10,MacIntel,60,,,,,right,1.357,3,0.278,,,,,,,,0,97,97,63,1,stimuli/objects/butterdish.jpg,right,new,64,,,,,,,,
,,,,,,,,18,2021-05-17_18h34.30.287,premceCat2_ses-02_part-02_label-phase2,2020.2.10,MacIntel,60,,,,,left,0.934,4,0.6,left,0.37,0,0,0,0,1,,,,,,,,,,,,,,,,,
,,,,,,,,18,2021-05-17_18h34.30.287,premceCat2_ses-02_part-02_label-phase2,2020.2.10,MacIntel,60,,,,,,,,,,,,,,,,0,98,98,23,1,stimuli/objects/football.jpg,right,new,24,,,,,,,,
,,,,,,,,18,2021-05-17_18h34.30.287,premceCat2_ses-02_part-02_label-phase2,2020.2.10,MacIntel,60,,,,,left,2.284,3,0.725,left,0.292,0,0,0,0,1,,,,,,,,,,,,,,,,,
,,,,,,,,18,2021-05-17_18h34.30.287,premceCat2_ses-02_part-02_label-phase2,2020.2.10,MacIntel,60,,,,,,,,,,,,,,,,0,99,99,24,1,stimuli/objects/skateboard.jpg,right,new,25,,,,,,,,
,,,,,,,,18,2021-05-17_18h34.30.287,premceCat2_ses-02_part-02_label-phase2,2020.2.10,MacIntel,60,,,,,right,1.027,4,1.02,,,,,,,,0,100,100,86,1,stimuli/objects/toasteroven.jpg,right,new,87,,,,,,,,
,,,,,,,,18,2021-05-17_18h34.30.287,premceCat2_ses-02_part-02_label-phase2,2020.2.10,MacIntel,60,,,,,left,1.796,3,0.321,right,0.648,0,0,0,0,1,,,,,,,,,,,,,,,,,
,,,,,,,,18,2021-05-17_18h34.30.287,premceCat2_ses-02_part-02_label-phase2,2020.2.10,MacIntel,60,,,,,,,,,,,,,,,,0,101,101,6,1,stimuli/objects/saladspinner.jpg,left,old,7,,,,,,,,
,,,,,,,,18,2021-05-17_18h34.30.287,premceCat2_ses-02_part-02_label-phase2,2020.2.10,MacIntel,60,,,,,left,1.449,3,1.124,left,0.327,0,0,0,0,1,,,,,,,,,,,,,,,,,
,,,,,,,,18,2021-05-17_18h34.30.287,premceCat2_ses-02_part-02_label-phase2,2020.2.10,MacIntel,60,,,,,,,,,,,,,,,,0,102,102,96,1,stimuli/objects/golfbag.jpg,right,new,97,,,,,,,,
,,,,,,,,18,2021-05-17_18h34.30.287,premceCat2_ses-02_part-02_label-phase2,2020.2.10,MacIntel,60,,,,,left,1.389,4,0.568,left,0.47,0,0,0,0,1,,,,,,,,,,,,,,,,,
,,,,,,,,18,2021-05-17_18h34.30.287,premceCat2_ses-02_part-02_label-phase2,2020.2.10,MacIntel,60,,,,,,,,,,,,,,,,0,103,103,44,1,stimuli/objects/level03a.jpg,left,old,45,,,,,,,,
,,,,,,,,18,2021-05-17_18h34.30.287,premceCat2_ses-02_part-02_label-phase2,2020.2.10,MacIntel,60,,,,,left,1.724,3,0.878,left,0.333,0,0,0,0,1,,,,,,,,,,,,,,,,,
,,,,,,,,18,2021-05-17_18h34.30.287,premceCat2_ses-02_part-02_label-phase2,2020.2.10,MacIntel,60,,,,,,,,,,,,,,,,0,104,104,49,1,stimuli/objects/canoepaddle02.jpg,left,old,50,,,,,,,,
,,,,,,,,18,2021-05-17_18h34.30.287,premceCat2_ses-02_part-02_label-phase2,2020.2.10,MacIntel,60,,,,,left,1.486,4,0.39,right,0.249,0,0,0,0,1,,,,,,,,,,,,,,,,,
,,,,,,,,18,2021-05-17_18h34.30.287,premceCat2_ses-02_part-02_label-phase2,2020.2.10,MacIntel,60,,,,,,,,,,,,,,,,0,105,105,91,1,stimuli/objects/snowblower.jpg,left,old,92,,,,,,,,
,,,,,,,,18,2021-05-17_18h34.30.287,premceCat2_ses-02_part-02_label-phase2,2020.2.10,MacIntel,60,,,,,left,2.104,2,0.359,right,0.346,0,0,0,0,1,,,,,,,,,,,,,,,,,
,,,,,,,,18,2021-05-17_18h34.30.287,premceCat2_ses-02_part-02_label-phase2,2020.2.10,MacIntel,60,,,,,,,,,,,,,,,,0,106,106,10,1,stimuli/objects/desktopcomputer.jpg,left,old,11,,,,,,,,
,,,,,,,,18,2021-05-17_18h34.30.287,premceCat2_ses-02_part-02_label-phase2,2020.2.10,MacIntel,60,,,,,left,2.517,4,0.827,left,0.789,0,0,0,0,1,,,,,,,,,,,,,,,,,
,,,,,,,,18,2021-05-17_18h34.30.287,premceCat2_ses-02_part-02_label-phase2,2020.2.10,MacIntel,60,,,,,,,,,,,,,,,,0,107,107,56,1,stimuli/objects/cookingpot.jpg,left,old,57,,,,,,,,
,,,,,,,,18,2021-05-17_18h34.30.287,premceCat2_ses-02_part-02_label-phase2,2020.2.10,MacIntel,60,,,,,left,1.19,4,0.345,right,0.425,0,0,0,0,1,,,,,,,,,,,,,,,,,
,,,,,,,,18,2021-05-17_18h34.30.287,premceCat2_ses-02_part-02_label-phase2,2020.2.10,MacIntel,60,,,,,,,,,,,,,,,,0,108,108,14,1,stimuli/objects/aircompressor.jpg,left,old,15,,,,,,,,
,,,,,,,,18,2021-05-17_18h34.30.287,premceCat2_ses-02_part-02_label-phase2,2020.2.10,MacIntel,60,,,,,left,0.876,4,0.384,left,0.391,0,0,0,0,1,,,,,,,,,,,,,,,,,
,,,,,,,,18,2021-05-17_18h34.30.287,premceCat2_ses-02_part-02_label-phase2,2020.2.10,MacIntel,60,,,,,,,,,,,,,,,,0,109,109,41,1,stimuli/objects/pylon01.jpg,right,new,42,,,,,,,,
,,,,,,,,18,2021-05-17_18h34.30.287,premceCat2_ses-02_part-02_label-phase2,2020.2.10,MacIntel,60,,,,,left,1.112,4,1.326,right,0.267,0,0,0,0,1,,,,,,,,,,,,,,,,,
,,,,,,,,18,2021-05-17_18h34.30.287,premceCat2_ses-02_part-02_label-phase2,2020.2.10,MacIntel,60,,,,,,,,,,,,,,,,0,110,110,107,1,stimuli/objects/waterbottle03.jpg,left,old,108,,,,,,,,
,,,,,,,,18,2021-05-17_18h34.30.287,premceCat2_ses-02_part-02_label-phase2,2020.2.10,MacIntel,60,,,,,right,2.077,2,0.495,,,,,,,,0,111,111,4,1,stimuli/objects/microphone01.jpg,right,new,5,,,,,,,,
,,,,,,,,18,2021-05-17_18h34.30.287,premceCat2_ses-02_part-02_label-phase2,2020.2.10,MacIntel,60,,,,,right,2.702,3,0.516,,,,,,,,0,112,112,82,1,stimuli/objects/snowbrush.jpg,right,new,83,,,,,,,,
,,,,,,,,18,2021-05-17_18h34.30.287,premceCat2_ses-02_part-02_label-phase2,2020.2.10,MacIntel,60,,,,,right,1.737,3,1.454,,,,,,,,0,113,113,75,1,stimuli/objects/stepladder.jpg,right,new,76,,,,,,,,
,,,,,,,,18,2021-05-17_18h34.30.287,premceCat2_ses-02_part-02_label-phase2,2020.2.10,MacIntel,60,,,,,left,1.86,4,1.13,right,0.308,0,0,0,0,1,,,,,,,,,,,,,,,,,
,,,,,,,,18,2021-05-17_18h34.30.287,premceCat2_ses-02_part-02_label-phase2,2020.2.10,MacIntel,60,,,,,,,,,,,,,,,,0,114,114,140,1,stimuli/objects/anchor.jpg,left,old,141,,,,,,,,
,,,,,,,,18,2021-05-17_18h34.30.287,premceCat2_ses-02_part-02_label-phase2,2020.2.10,MacIntel,60,,,,,left,1.5,4,0.342,right,0.349,0,0,0,0,1,,,,,,,,,,,,,,,,,
,,,,,,,,18,2021-05-17_18h34.30.287,premceCat2_ses-02_part-02_label-phase2,2020.2.10,MacIntel,60,,,,,,,,,,,,,,,,0,115,115,88,1,stimuli/objects/cork02.jpg,left,old,89,,,,,,,,
,,,,,,,,18,2021-05-17_18h34.30.287,premceCat2_ses-02_part-02_label-phase2,2020.2.10,MacIntel,60,,,,,left,1.684,4,0.342,right,0.404,0,0,0,0,1,,,,,,,,,,,,,,,,,
,,,,,,,,18,2021-05-17_18h34.30.287,premceCat2_ses-02_part-02_label-phase2,2020.2.10,MacIntel,60,,,,,,,,,,,,,,,,0,116,116,47,1,stimuli/objects/flooringstapler.jpg,left,old,48,,,,,,,,
,,,,,,,,18,2021-05-17_18h34.30.287,premceCat2_ses-02_part-02_label-phase2,2020.2.10,MacIntel,60,,,,,left,2.086,4,0.768,left,0.392,0,0,0,0,1,,,,,,,,,,,,,,,,,
,,,,,,,,18,2021-05-17_18h34.30.287,premceCat2_ses-02_part-02_label-phase2,2020.2.10,MacIntel,60,,,,,,,,,,,,,,,,0,117,117,130,1,stimuli/objects/bikewheel.jpg,left,old,131,,,,,,,,
,,,,,,,,18,2021-05-17_18h34.30.287,premceCat2_ses-02_part-02_label-phase2,2020.2.10,MacIntel,60,,,,,right,1.032,2,0.518,,,,,,,,0,118,118,121,1,stimuli/objects/ceilingspeaker.jpg,right,new,122,,,,,,,,
,,,,,,,,18,2021-05-17_18h34.30.287,premceCat2_ses-02_part-02_label-phase2,2020.2.10,MacIntel,60,,,,,right,1.749,3,0.405,,,,,,,,0,119,119,60,1,stimuli/objects/glass02a.jpg,right,new,61,,,,,,,,
,,,,,,,,18,2021-05-17_18h34.30.287,premceCat2_ses-02_part-02_label-phase2,2020.2.10,MacIntel,60,,,,,right,2.237,3,0.132,,,,,,,,0,120,120,92,1,stimuli/objects/carjack.jpg,right,new,93,,,,,,,,
,,,,,,,,18,2021-05-17_18h34.30.287,premceCat2_ses-02_part-02_label-phase2,2020.2.10,MacIntel,60,,,,,left,1.016,4,0.299,left,0.272,0,0,0,0,1,,,,,,,,,,,,,,,,,
,,,,,,,,18,2021-05-17_18h34.30.287,premceCat2_ses-02_part-02_label-phase2,2020.2.10,MacIntel,60,,,,,,,,,,,,,,,,0,121,121,85,1,stimuli/objects/golfball.jpg,right,new,86,,,,,,,,
,,,,,,,,18,2021-05-17_18h34.30.287,premceCat2_ses-02_part-02_label-phase2,2020.2.10,MacIntel,60,,,,,left,1.383,4,0.302,right,0.322,0,0,0,0,1,,,,,,,,,,,,,,,,,
,,,,,,,,18,2021-05-17_18h34.30.287,premceCat2_ses-02_part-02_label-phase2,2020.2.10,MacIntel,60,,,,,,,,,,,,,,,,0,122,122,40,1,stimuli/objects/sledgehammer.jpg,left,old,41,,,,,,,,
,,,,,,,,18,2021-05-17_18h34.30.287,premceCat2_ses-02_part-02_label-phase2,2020.2.10,MacIntel,60,,,,,left,2.019,2,0.323,left,0.396,0,0,0,0,1,,,,,,,,,,,,,,,,,
,,,,,,,,18,2021-05-17_18h34.30.287,premceCat2_ses-02_part-02_label-phase2,2020.2.10,MacIntel,60,,,,,,,,,,,,,,,,0,123,123,19,1,stimuli/objects/peppermill02b.jpg,right,new,20,,,,,,,,
,,,,,,,,18,2021-05-17_18h34.30.287,premceCat2_ses-02_part-02_label-phase2,2020.2.10,MacIntel,60,,,,,right,1.998,3,0.346,,,,,,,,0,124,124,111,1,stimuli/objects/speaker04.jpg,right,new,112,,,,,,,,
,,,,,,,,18,2021-05-17_18h34.30.287,premceCat2_ses-02_part-02_label-phase2,2020.2.10,MacIntel,60,,,,,left,1.254,4,0.527,left,0.533,0,0,0,0,1,,,,,,,,,,,,,,,,,
,,,,,,,,18,2021-05-17_18h34.30.287,premceCat2_ses-02_part-02_label-phase2,2020.2.10,MacIntel,60,,,,,,,,,,,,,,,,0,125,125,34,1,stimuli/objects/treadmill.jpg,left,old,35,,,,,,,,
,,,,,,,,18,2021-05-17_18h34.30.287,premceCat2_ses-02_part-02_label-phase2,2020.2.10,MacIntel,60,,,,,left,1.441,4,0.432,right,0.302,0,0,0,0,1,,,,,,,,,,,,,,,,,
,,,,,,,,18,2021-05-17_18h34.30.287,premceCat2_ses-02_part-02_label-phase2,2020.2.10,MacIntel,60,,,,,,,,,,,,,,,,0,126,126,129,1,stimuli/objects/gasburner.jpg,left,old,130,,,,,,,,
,,,,,,,,18,2021-05-17_18h34.30.287,premceCat2_ses-02_part-02_label-phase2,2020.2.10,MacIntel,60,,,,,left,0.921,4,0.951,left,0.543,0,0,0,0,1,,,,,,,,,,,,,,,,,
,,,,,,,,18,2021-05-17_18h34.30.287,premceCat2_ses-02_part-02_label-phase2,2020.2.10,MacIntel,60,,,,,,,,,,,,,,,,0,127,127,27,1,stimuli/objects/downhillski.jpg,left,old,28,,,,,,,,
,,,,,,,,18,2021-05-17_18h34.30.287,premceCat2_ses-02_part-02_label-phase2,2020.2.10,MacIntel,60,,,,,left,3.329,3,0.337,right,0.512,0,0,0,0,1,,,,,,,,,,,,,,,,,
,,,,,,,,18,2021-05-17_18h34.30.287,premceCat2_ses-02_part-02_label-phase2,2020.2.10,MacIntel,60,,,,,,,,,,,,,,,,0,128,128,32,1,stimuli/objects/mitresaw.jpg,right,new,33,,,,,,,,
,,,,,,,,18,2021-05-17_18h34.30.287,premceCat2_ses-02_part-02_label-phase2,2020.2.10,MacIntel,60,,,,,left,1.41,4,0.429,left,0.238,0,0,0,0,1,,,,,,,,,,,,,,,,,
,,,,,,,,18,2021-05-17_18h34.30.287,premceCat2_ses-02_part-02_label-phase2,2020.2.10,MacIntel,60,,,,,,,,,,,,,,,,0,129,129,127,1,stimuli/objects/hockeygoaliepad.jpg,left,old,128,,,,,,,,
,,,,,,,,18,2021-05-17_18h34.30.287,premceCat2_ses-02_part-02_label-phase2,2020.2.10,MacIntel,60,,,,,left,2.621,4,0.388,left,0.261,0,0,0,0,1,,,,,,,,,,,,,,,,,
,,,,,,,,18,2021-05-17_18h34.30.287,premceCat2_ses-02_part-02_label-phase2,2020.2.10,MacIntel,60,,,,,,,,,,,,,,,,0,130,130,99,1,stimuli/objects/gardenshears01a.jpg,left,old,100,,,,,,,,
,,,,,,,,18,2021-05-17_18h34.30.287,premceCat2_ses-02_part-02_label-phase2,2020.2.10,MacIntel,60,,,,,left,1.687,3,0.342,right,0.33,0,0,0,0,1,,,,,,,,,,,,,,,,,
,,,,,,,,18,2021-05-17_18h34.30.287,premceCat2_ses-02_part-02_label-phase2,2020.2.10,MacIntel,60,,,,,,,,,,,,,,,,0,131,131,21,1,stimuli/objects/paintbrush01.jpg,right,new,22,,,,,,,,
,,,,,,,,18,2021-05-17_18h34.30.287,premceCat2_ses-02_part-02_label-phase2,2020.2.10,MacIntel,60,,,,,right,1.669,3,1.912,,,,,,,,0,132,132,26,1,stimuli/objects/boogieboard.jpg,right,new,27,,,,,,,,
,,,,,,,,18,2021-05-17_18h34.30.287,premceCat2_ses-02_part-02_label-phase2,2020.2.10,MacIntel,60,,,,,left,3.858,2,1.75,right,0.41,0,0,0,0,1,,,,,,,,,,,,,,,,,
,,,,,,,,18,2021-05-17_18h34.30.287,premceCat2_ses-02_part-02_label-phase2,2020.2.10,MacIntel,60,,,,,,,,,,,,,,,,0,133,133,48,1,stimuli/objects/woodenspoon.jpg,left,old,49,,,,,,,,
,,,,,,,,18,2021-05-17_18h34.30.287,premceCat2_ses-02_part-02_label-phase2,2020.2.10,MacIntel,60,,,,,left,1.008,4,0.324,right,0.591,0,0,0,0,1,,,,,,,,,,,,,,,,,
,,,,,,,,18,2021-05-17_18h34.30.287,premceCat2_ses-02_part-02_label-phase2,2020.2.10,MacIntel,60,,,,,,,,,,,,,,,,0,134,134,62,1,stimuli/objects/pastaspoon.jpg,left,old,63,,,,,,,,
,,,,,,,,18,2021-05-17_18h34.30.287,premceCat2_ses-02_part-02_label-phase2,2020.2.10,MacIntel,60,,,,,left,1.294,3,0.128,right,0.376,0,0,0,0,1,,,,,,,,,,,,,,,,,
,,,,,,,,18,2021-05-17_18h34.30.287,premceCat2_ses-02_part-02_label-phase2,2020.2.10,MacIntel,60,,,,,,,,,,,,,,,,0,135,135,13,1,stimuli/objects/bastingbrush.jpg,right,new,14,,,,,,,,
,,,,,,,,18,2021-05-17_18h34.30.287,premceCat2_ses-02_part-02_label-phase2,2020.2.10,MacIntel,60,,,,,left,1.537,4,0.314,right,0.205,0,0,0,0,1,,,,,,,,,,,,,,,,,
,,,,,,,,18,2021-05-17_18h34.30.287,premceCat2_ses-02_part-02_label-phase2,2020.2.10,MacIntel,60,,,,,,,,,,,,,,,,0,136,136,29,1,stimuli/objects/djmixer02.jpg,left,old,30,,,,,,,,
,,,,,,,,18,2021-05-17_18h34.30.287,premceCat2_ses-02_part-02_label-phase2,2020.2.10,MacIntel,60,,,,,left,0.996,4,0.322,right,0.307,0,0,0,0,1,,,,,,,,,,,,,,,,,
,,,,,,,,18,2021-05-17_18h34.30.287,premceCat2_ses-02_part-02_label-phase2,2020.2.10,MacIntel,60,,,,,,,,,,,,,,,,0,137,137,16,1,stimuli/objects/pressurewasher.jpg,left,old,17,,,,,,,,
,,,,,,,,18,2021-05-17_18h34.30.287,premceCat2_ses-02_part-02_label-phase2,2020.2.10,MacIntel,60,,,,,left,1.195,4,0.591,left,0.333,0,0,0,0,1,,,,,,,,,,,,,,,,,
,,,,,,,,18,2021-05-17_18h34.30.287,premceCat2_ses-02_part-02_label-phase2,2020.2.10,MacIntel,60,,,,,,,,,,,,,,,,0,138,138,15,1,stimuli/objects/spicerack.jpg,left,old,16,,,,,,,,
,,,,,,,,18,2021-05-17_18h34.30.287,premceCat2_ses-02_part-02_label-phase2,2020.2.10,MacIntel,60,,,,,left,1.197,3,0.277,right,0.943,0,0,0,0,1,,,,,,,,,,,,,,,,,
,,,,,,,,18,2021-05-17_18h34.30.287,premceCat2_ses-02_part-02_label-phase2,2020.2.10,MacIntel,60,,,,,,,,,,,,,,,,0,139,139,8,1,stimuli/objects/basketballhoop01.jpg,right,new,9,,,,,,,,
,,,,,,,,18,2021-05-17_18h34.30.287,premceCat2_ses-02_part-02_label-phase2,2020.2.10,MacIntel,60,,,,,left,1.394,4,0.383,left,0.389,0,0,0,0,1,,,,,,,,,,,,,,,,,
,,,,,,,,18,2021-05-17_18h34.30.287,premceCat2_ses-02_part-02_label-phase2,2020.2.10,MacIntel,60,,,,,,,,,,,,,,,,0,140,140,98,1,stimuli/objects/podium.jpg,left,old,99,,,,,,,,
,,,,,,,,18,2021-05-17_18h34.30.287,premceCat2_ses-02_part-02_label-phase2,2020.2.10,MacIntel,60,,,,,left,1.409,2,0.386,right,0.453,0,0,0,0,1,,,,,,,,,,,,,,,,,
,,,,,,,,18,2021-05-17_18h34.30.287,premceCat2_ses-02_part-02_label-phase2,2020.2.10,MacIntel,60,,,,,,,,,,,,,,,,0,141,141,73,1,stimuli/objects/clock01a.jpg,right,new,74,,,,,,,,
,,,,,,,,18,2021-05-17_18h34.30.287,premceCat2_ses-02_part-02_label-phase2,2020.2.10,MacIntel,60,,,,,left,2.709,2,0.421,right,0.229,0,0,0,0,1,,,,,,,,,,,,,,,,,
,,,,,,,,18,2021-05-17_18h34.30.287,premceCat2_ses-02_part-02_label-phase2,2020.2.10,MacIntel,60,,,,,,,,,,,,,,,,0,142,142,90,1,stimuli/objects/carlighter02.jpg,right,new,91,,,,,,,,
,,,,,,,,18,2021-05-17_18h34.30.287,premceCat2_ses-02_part-02_label-phase2,2020.2.10,MacIntel,60,,,,,,,,,,,,,,,,,,,,,,,,,space,11.469,0,0,0,0,1,condition_files/ImagesforRecog3_1.csv
,,,,,,,,18,2021-05-17_18h34.30.287,premceCat2_ses-02_part-02_label-phase2,2020.2.10,MacIntel,60,,,,,right,2.639,3,1.124,,,,,,,,0,0,0,69,1,stimuli/objects/straw.jpg,right,new,213,,,,,,,,
,,,,,,,,18,2021-05-17_18h34.30.287,premceCat2_ses-02_part-02_label-phase2,2020.2.10,MacIntel,60,,,,,left,1.153,4,0.512,left,0.363,0,0,0,0,1,,,,,,,,,,,,,,,,,
,,,,,,,,18,2021-05-17_18h34.30.287,premceCat2_ses-02_part-02_label-phase2,2020.2.10,MacIntel,60,,,,,,,,,,,,,,,,0,1,1,14,1,stimuli/objects/fishingrod.jpg,left,old,158,,,,,,,,
,,,,,,,,18,2021-05-17_18h34.30.287,premceCat2_ses-02_part-02_label-phase2,2020.2.10,MacIntel,60,,,,,left,3.77,3,0.421,right,0.591,0,0,0,0,1,,,,,,,,,,,,,,,,,
,,,,,,,,18,2021-05-17_18h34.30.287,premceCat2_ses-02_part-02_label-phase2,2020.2.10,MacIntel,60,,,,,,,,,,,,,,,,0,2,2,27,1,stimuli/objects/saw02b.jpg,left,old,171,,,,,,,,
,,,,,,,,18,2021-05-17_18h34.30.287,premceCat2_ses-02_part-02_label-phase2,2020.2.10,MacIntel,60,,,,,right,1.262,3,0.322,,,,,,,,0,3,3,107,1,stimuli/objects/dolly01.jpg,right,new,251,,,,,,,,
,,,,,,,,18,2021-05-17_18h34.30.287,premceCat2_ses-02_part-02_label-phase2,2020.2.10,MacIntel,60,,,,,left,1.79,4,0.995,right,0.273,0,0,0,0,1,,,,,,,,,,,,,,,,,
,,,,,,,,18,2021-05-17_18h34.30.287,premceCat2_ses-02_part-02_label-phase2,2020.2.10,MacIntel,60,,,,,,,,,,,,,,,,0,4,4,56,1,stimuli/objects/thermos.jpg,left,old,200,,,,,,,,
,,,,,,,,18,2021-05-17_18h34.30.287,premceCat2_ses-02_part-02_label-phase2,2020.2.10,MacIntel,60,,,,,left,1.163,4,1.806,right,0.487,0,0,0,0,1,,,,,,,,,,,,,,,,,
,,,,,,,,18,2021-05-17_18h34.30.287,premceCat2_ses-02_part-02_label-phase2,2020.2.10,MacIntel,60,,,,,,,,,,,,,,,,0,5,5,11,1,stimuli/objects/vhstape.jpg,left,old,155,,,,,,,,
,,,,,,,,18,2021-05-17_18h34.30.287,premceCat2_ses-02_part-02_label-phase2,2020.2.10,MacIntel,60,,,,,left,1.519,4,0.623,right,0.368,0,0,0,0,1,,,,,,,,,,,,,,,,,
,,,,,,,,18,2021-05-17_18h34.30.287,premceCat2_ses-02_part-02_label-phase2,2020.2.10,MacIntel,60,,,,,,,,,,,,,,,,0,6,6,80,1,stimuli/objects/barbecue03.jpg,right,new,224,,,,,,,,
,,,,,,,,18,2021-05-17_18h34.30.287,premceCat2_ses-02_part-02_label-phase2,2020.2.10,MacIntel,60,,,,,right,1.284,4,0.53,,,,,,,,0,7,7,120,1,stimuli/objects/tent.jpg,right,new,264,,,,,,,,
,,,,,,,,18,2021-05-17_18h34.30.287,premceCat2_ses-02_part-02_label-phase2,2020.2.10,MacIntel,60,,,,,right,2.471,2,0.485,,,,,,,,0,8,8,5,1,stimuli/objects/pickaxe02.jpg,right,new,149,,,,,,,,
,,,,,,,,18,2021-05-17_18h34.30.287,premceCat2_ses-02_part-02_label-phase2,2020.2.10,MacIntel,60,,,,,left,2.104,2,0.524,right,1.083,0,0,0,0,1,,,,,,,,,,,,,,,,,
,,,,,,,,18,2021-05-17_18h34.30.287,premceCat2_ses-02_part-02_label-phase2,2020.2.10,MacIntel,60,,,,,,,,,,,,,,,,0,9,9,140,1,stimuli/objects/wineglass01.jpg,right,new,284,,,,,,,,
,,,,,,,,18,2021-05-17_18h34.30.287,premceCat2_ses-02_part-02_label-phase2,2020.2.10,MacIntel,60,,,,,left,3.216,2,0.34,left,0.287,0,0,0,0,1,,,,,,,,,,,,,,,,,
,,,,,,,,18,2021-05-17_18h34.30.287,premceCat2_ses-02_part-02_label-phase2,2020.2.10,MacIntel,60,,,,,,,,,,,,,,,,0,10,10,17,1,stimuli/objects/backpack01a.jpg,left,old,161,,,,,,,,
,,,,,,,,18,2021-05-17_18h34.30.287,premceCat2_ses-02_part-02_label-phase2,2020.2.10,MacIntel,60,,,,,right,1.402,3,1.529,,,,,,,,0,11,11,9,1,stimuli/objects/alarmsystem.jpg,right,new,153,,,,,,,,
,,,,,,,,18,2021-05-17_18h34.30.287,premceCat2_ses-02_part-02_label-phase2,2020.2.10,MacIntel,60,,,,,left,1.268,3,0.569,right,0.365,0,0,0,0,1,,,,,,,,,,,,,,,,,
,,,,,,,,18,2021-05-17_18h34.30.287,premceCat2_ses-02_part-02_label-phase2,2020.2.10,MacIntel,60,,,,,,,,,,,,,,,,0,12,12,118,1,stimuli/objects/pliers02b.jpg,left,old,262,,,,,,,,
,,,,,,,,18,2021-05-17_18h34.30.287,premceCat2_ses-02_part-02_label-phase2,2020.2.10,MacIntel,60,,,,,left,1.306,4,0.318,right,0.344,0,0,0,0,1,,,,,,,,,,,,,,,,,
,,,,,,,,18,2021-05-17_18h34.30.287,premceCat2_ses-02_part-02_label-phase2,2020.2.10,MacIntel,60,,,,,,,,,,,,,,,,0,13,13,117,1,stimuli/objects/poolnet.jpg,left,old,261,,,,,,,,
,,,,,,,,18,2021-05-17_18h34.30.287,premceCat2_ses-02_part-02_label-phase2,2020.2.10,MacIntel,60,,,,,left,1.524,4,0.377,right,0.538,0,0,0,0,1,,,,,,,,,,,,,,,,,
,,,,,,,,18,2021-05-17_18h34.30.287,premceCat2_ses-02_part-02_label-phase2,2020.2.10,MacIntel,60,,,,,,,,,,,,,,,,0,14,14,128,1,stimuli/objects/spoon01.jpg,left,old,272,,,,,,,,
,,,,,,,,18,2021-05-17_18h34.30.287,premceCat2_ses-02_part-02_label-phase2,2020.2.10,MacIntel,60,,,,,right,1.693,4,0.275,,,,,,,,0,15,15,101,1,stimuli/objects/lifejacket.jpg,right,new,245,,,,,,,,
,,,,,,,,18,2021-05-17_18h34.30.287,premceCat2_ses-02_part-02_label-phase2,2020.2.10,MacIntel,60,,,,,right,1.491,2,2.308,,,,,,,,0,16,16,76,1,stimuli/objects/headphones02b.jpg,left,old,220,,,,,,,,
,,,,,,,,18,2021-05-17_18h34.30.287,premceCat2_ses-02_part-02_label-phase2,2020.2.10,MacIntel,60,,,,,left,1.42,4,0.886,left,0.772,0,0,0,0,1,,,,,,,,,,,,,,,,,
,,,,,,,,18,2021-05-17_18h34.30.287,premceCat2_ses-02_part-02_label-phase2,2020.2.10,MacIntel,60,,,,,,,,,,,,,,,,0,17,17,64,1,stimuli/objects/surfboard.jpg,left,old,208,,,,,,,,
,,,,,,,,18,2021-05-17_18h34.30.287,premceCat2_ses-02_part-02_label-phase2,2020.2.10,MacIntel,60,,,,,right,2.383,2,0.341,,,,,,,,0,18,18,121,1,stimuli/objects/parachute.jpg,right,new,265,,,,,,,,
,,,,,,,,18,2021-05-17_18h34.30.287,premceCat2_ses-02_part-02_label-phase2,2020.2.10,MacIntel,60,,,,,right,2.073,4,0.813,,,,,,,,0,19,19,87,1,stimuli/objects/wiicontroller.jpg,right,new,231,,,,,,,,
,,,,,,,,18,2021-05-17_18h34.30.287,premceCat2_ses-02_part-02_label-phase2,2020.2.10,MacIntel,60,,,,,right,1.845,3,0.543,,,,,,,,0,20,20,82,1,stimuli/objects/shopvac.jpg,right,new,226,,,,,,,,
,,,,,,,,18,2021-05-17_18h34.30.287,premceCat2_ses-02_part-02_label-phase2,2020.2.10,MacIntel,60,,,,,left,1.414,4,0.832,right,1.33,0,0,0,0,1,,,,,,,,,,,,,,,,,
,,,,,,,,18,2021-05-17_18h34.30.287,premceCat2_ses-02_part-02_label-phase2,2020.2.10,MacIntel,60,,,,,,,,,,,,,,,,0,21,21,134,1,stimuli/objects/carantenna.jpg,left,old,278,,,,,,,,
,,,,,,,,18,2021-05-17_18h34.30.287,premceCat2_ses-02_part-02_label-phase2,2020.2.10,MacIntel,60,,,,,right,2.091,2,1.064,,,,,,,,0,22,22,55,1,stimuli/objects/fonduefork01.jpg,right,new,199,,,,,,,,
,,,,,,,,18,2021-05-17_18h34.30.287,premceCat2_ses-02_part-02_label-phase2,2020.2.10,MacIntel,60,,,,,right,1.717,2,0.193,,,,,,,,0,23,23,135,1,stimuli/objects/mortarandpestle.jpg,right,new,279,,,,,,,,
,,,,,,,,18,2021-05-17_18h34.30.287,premceCat2_ses-02_part-02_label-phase2,2020.2.10,MacIntel,60,,,,,right,3.937,3,0.732,,,,,,,,0,24,24,40,1,stimuli/objects/tablesaw.jpg,right,new,184,,,,,,,,
,,,,,,,,18,2021-05-17_18h34.30.287,premceCat2_ses-02_part-02_label-phase2,2020.2.10,MacIntel,60,,,,,right,1.59,3,0.901,,,,,,,,0,25,25,133,1,stimuli/objects/birdie.jpg,right,new,277,,,,,,,,
,,,,,,,,18,2021-05-17_18h34.30.287,premceCat2_ses-02_part-02_label-phase2,2020.2.10,MacIntel,60,,,,,right,1.146,3,0.299,,,,,,,,0,26,26,30,1,stimuli/objects/halogenlightbulb.jpg,right,new,174,,,,,,,,
,,,,,,,,18,2021-05-17_18h34.30.287,premceCat2_ses-02_part-02_label-phase2,2020.2.10,MacIntel,60,,,,,right,1.319,4,0.255,,,,,,,,0,27,27,86,1,stimuli/objects/trampoline.jpg,right,new,230,,,,,,,,
,,,,,,,,18,2021-05-17_18h34.30.287,premceCat2_ses-02_part-02_label-phase2,2020.2.10,MacIntel,60,,,,,right,1.441,4,0.357,,,,,,,,0,28,28,114,1,stimuli/objects/drinkshaker.jpg,right,new,258,,,,,,,,
,,,,,,,,18,2021-05-17_18h34.30.287,premceCat2_ses-02_part-02_label-phase2,2020.2.10,MacIntel,60,,,,,right,1.784,2,0.343,,,,,,,,0,29,29,4,1,stimuli/objects/cassettetape01a.jpg,right,new,148,,,,,,,,
,,,,,,,,18,2021-05-17_18h34.30.287,premceCat2_ses-02_part-02_label-phase2,2020.2.10,MacIntel,60,,,,,right,3.298,3,0.343,,,,,,,,0,30,30,95,1,stimuli/objects/tennisball01b.jpg,right,new,239,,,,,,,,
,,,,,,,,18,2021-05-17_18h34.30.287,premceCat2_ses-02_part-02_label-phase2,2020.2.10,MacIntel,60,,,,,right,1.267,2,0.671,,,,,,,,0,31,31,66,1,stimuli/objects/heatpump.jpg,right,new,210,,,,,,,,
,,,,,,,,18,2021-05-17_18h34.30.287,premceCat2_ses-02_part-02_label-phase2,2020.2.10,MacIntel,60,,,,,right,1.31,3,0.153,,,,,,,,0,32,32,99,1,stimuli/objects/floodlight.jpg,right,new,243,,,,,,,,
,,,,,,,,18,2021-05-17_18h34.30.287,premceCat2_ses-02_part-02_label-phase2,2020.2.10,MacIntel,60,,,,,left,1.225,3,1.076,right,0.282,0,0,0,0,1,,,,,,,,,,,,,,,,,
,,,,,,,,18,2021-05-17_18h34.30.287,premceCat2_ses-02_part-02_label-phase2,2020.2.10,MacIntel,60,,,,,,,,,,,,,,,,0,33,33,36,1,stimuli/objects/loppingshears.jpg,right,new,180,,,,,,,,
,,,,,,,,18,2021-05-17_18h34.30.287,premceCat2_ses-02_part-02_label-phase2,2020.2.10,MacIntel,60,,,,,left,1.347,4,0.387,left,0.267,0,0,0,0,1,,,,,,,,,,,,,,,,,
,,,,,,,,18,2021-05-17_18h34.30.287,premceCat2_ses-02_part-02_label-phase2,2020.2.10,MacIntel,60,,,,,,,,,,,,,,,,0,34,34,3,1,stimuli/objects/boxingglove01.jpg,right,new,147,,,,,,,,
,,,,,,,,18,2021-05-17_18h34.30.287,premceCat2_ses-02_part-02_label-phase2,2020.2.10,MacIntel,60,,,,,left,1.193,4,0.419,left,0.287,0,0,0,0,1,,,,,,,,,,,,,,,,,
,,,,,,,,18,2021-05-17_18h34.30.287,premceCat2_ses-02_part-02_label-phase2,2020.2.10,MacIntel,60,,,,,,,,,,,,,,,,0,35,35,1,1,stimuli/objects/crocodileclips.jpg,left,old,145,,,,,,,,
,,,,,,,,18,2021-05-17_18h34.30.287,premceCat2_ses-02_part-02_label-phase2,2020.2.10,MacIntel,60,,,,,left,1.245,4,0.087,left,1.098,0,0,0,0,1,,,,,,,,,,,,,,,,,
,,,,,,,,18,2021-05-17_18h34.30.287,premceCat2_ses-02_part-02_label-phase2,2020.2.10,MacIntel,60,,,,,,,,,,,,,,,,0,36,36,50,1,stimuli/objects/hockeygoaliemask.jpg,left,old,194,,,,,,,,
,,,,,,,,18,2021-05-17_18h34.30.287,premceCat2_ses-02_part-02_label-phase2,2020.2.10,MacIntel,60,,,,,right,1.606,2,0.295,,,,,,,,0,37,37,78,1,stimuli/objects/lightswitch01.jpg,right,new,222,,,,,,,,
,,,,,,,,18,2021-05-17_18h34.30.287,premceCat2_ses-02_part-02_label-phase2,2020.2.10,MacIntel,60,,,,,left,2.226,4,0.59,right,0.489,0,0,0,0,1,,,,,,,,,,,,,,,,,
,,,,,,,,18,2021-05-17_18h34.30.287,premceCat2_ses-02_part-02_label-phase2,2020.2.10,MacIntel,60,,,,,,,,,,,,,,,,0,38,38,112,1,stimuli/objects/slidetray.jpg,left,old,256,,,,,,,,
,,,,,,,,18,2021-05-17_18h34.30.287,premceCat2_ses-02_part-02_label-phase2,2020.2.10,MacIntel,60,,,,,left,1.031,4,0.299,right,0.305,0,0,0,0,1,,,,,,,,,,,,,,,,,
,,,,,,,,18,2021-05-17_18h34.30.287,premceCat2_ses-02_part-02_label-phase2,2020.2.10,MacIntel,60,,,,,,,,,,,,,,,,0,39,39,54,1,stimuli/objects/stubbywrench01a.jpg,left,old,198,,,,,,,,
,,,,,,,,18,2021-05-17_18h34.30.287,premceCat2_ses-02_part-02_label-phase2,2020.2.10,MacIntel,60,,,,,right,1.604,2,0.481,,,,,,,,0,40,40,26,1,stimuli/objects/flashlight02b.jpg,right,new,170,,,,,,,,
,,,,,,,,18,2021-05-17_18h34.30.287,premceCat2_ses-02_part-02_label-phase2,2020.2.10,MacIntel,60,,,,,left,1.296,2,0.338,right,0.316,0,0,0,0,1,,,,,,,,,,,,,,,,,
,,,,,,,,18,2021-05-17_18h34.30.287,premceCat2_ses-02_part-02_label-phase2,2020.2.10,MacIntel,60,,,,,,,,,,,,,,,,0,41,41,49,1,stimuli/objects/cakeplatter.jpg,right,new,193,,,,,,,,
,,,,,,,,18,2021-05-17_18h34.30.287,premceCat2_ses-02_part-02_label-phase2,2020.2.10,MacIntel,60,,,,,left,1.54,3,0.673,right,0.707,0,0,0,0,1,,,,,,,,,,,,,,,,,
,,,,,,,,18,2021-05-17_18h34.30.287,premceCat2_ses-02_part-02_label-phase2,2020.2.10,MacIntel,60,,,,,,,,,,,,,,,,0,42,42,48,1,stimuli/objects/eggslicer.jpg,right,new,192,,,,,,,,
,,,,,,,,18,2021-05-17_18h34.30.287,premceCat2_ses-02_part-02_label-phase2,2020.2.10,MacIntel,60,,,,,left,2.011,4,0.68,right,0.16,0,0,0,0,1,,,,,,,,,,,,,,,,,
,,,,,,,,18,2021-05-17_18h34.30.287,premceCat2_ses-02_part-02_label-phase2,2020.2.10,MacIntel,60,,,,,,,,,,,,,,,,0,43,43,109,1,stimuli/objects/toothpick02.jpg,left,old,253,,,,,,,,
,,,,,,,,18,2021-05-17_18h34.30.287,premceCat2_ses-02_part-02_label-phase2,2020.2.10,MacIntel,60,,,,,left,1.14,4,0.34,right,0.312,0,0,0,0,1,,,,,,,,,,,,,,,,,
,,,,,,,,18,2021-05-17_18h34.30.287,premceCat2_ses-02_part-02_label-phase2,2020.2.10,MacIntel,60,,,,,,,,,,,,,,,,0,44,44,125,1,stimuli/objects/sewingmachine01a.jpg,left,old,269,,,,,,,,
,,,,,,,,18,2021-05-17_18h34.30.287,premceCat2_ses-02_part-02_label-phase2,2020.2.10,MacIntel,60,,,,,left,1.363,3,2.101,left,0.36,0,0,0,0,1,,,,,,,,,,,,,,,,,
,,,,,,,,18,2021-05-17_18h34.30.287,premceCat2_ses-02_part-02_label-phase2,2020.2.10,MacIntel,60,,,,,,,,,,,,,,,,0,45,45,43,1,stimuli/objects/bowrake.jpg,right,new,187,,,,,,,,
,,,,,,,,18,2021-05-17_18h34.30.287,premceCat2_ses-02_part-02_label-phase2,2020.2.10,MacIntel,60,,,,,right,2.826,2,0.647,,,,,,,,0,46,46,21,1,stimuli/objects/drill01b.jpg,left,old,165,,,,,,,,
,,,,,,,,18,2021-05-17_18h34.30.287,premceCat2_ses-02_part-02_label-phase2,2020.2.10,MacIntel,60,,,,,left,1.28,4,0.373,right,0.26,0,0,0,0,1,,,,,,,,,,,,,,,,,
,,,,,,,,18,2021-05-17_18h34.30.287,premceCat2_ses-02_part-02_label-phase2,2020.2.10,MacIntel,60,,,,,,,,,,,,,,,,0,47,47,126,1,stimuli/objects/reflector.jpg,left,old,270,,,,,,,,
,,,,,,,,18,2021-05-17_18h34.30.287,premceCat2_ses-02_part-02_label-phase2,2020.2.10,MacIntel,60,,,,,left,2.094,3,1.419,right,0.366,0,0,0,0,1,,,,,,,,,,,,,,,,,
,,,,,,,,18,2021-05-17_18h34.30.287,premceCat2_ses-02_part-02_label-phase2,2020.2.10,MacIntel,60,,,,,,,,,,,,,,,,0,48,48,10,1,stimuli/objects/skihelmet01.jpg,left,old,154,,,,,,,,
,,,,,,,,18,2021-05-17_18h34.30.287,premceCat2_ses-02_part-02_label-phase2,2020.2.10,MacIntel,60,,,,,left,2.324,3,0.591,left,0.2,0,0,0,0,1,,,,,,,,,,,,,,,,,
,,,,,,,,18,2021-05-17_18h34.30.287,premceCat2_ses-02_part-02_label-phase2,2020.2.10,MacIntel,60,,,,,,,,,,,,,,,,0,49,49,31,1,stimuli/objects/soccerball.jpg,left,old,175,,,,,,,,
,,,,,,,,18,2021-05-17_18h34.30.287,premceCat2_ses-02_part-02_label-phase2,2020.2.10,MacIntel,60,,,,,left,1.708,3,0.551,left,0.279,0,0,0,0,1,,,,,,,,,,,,,,,,,
,,,,,,,,18,2021-05-17_18h34.30.287,premceCat2_ses-02_part-02_label-phase2,2020.2.10,MacIntel,60,,,,,,,,,,,,,,,,0,50,50,61,1,stimuli/objects/jumpercables.jpg,left,old,205,,,,,,,,
,,,,,,,,18,2021-05-17_18h34.30.287,premceCat2_ses-02_part-02_label-phase2,2020.2.10,MacIntel,60,,,,,left,1.165,2,0.364,right,0.226,0,0,0,0,1,,,,,,,,,,,,,,,,,
,,,,,,,,18,2021-05-17_18h34.30.287,premceCat2_ses-02_part-02_label-phase2,2020.2.10,MacIntel,60,,,,,,,,,,,,,,,,0,51,51,89,1,stimuli/objects/cleaver01.jpg,left,old,233,,,,,,,,
,,,,,,,,18,2021-05-17_18h34.30.287,premceCat2_ses-02_part-02_label-phase2,2020.2.10,MacIntel,60,,,,,left,1.151,3,0.273,right,0.257,0,0,0,0,1,,,,,,,,,,,,,,,,,
,,,,,,,,18,2021-05-17_18h34.30.287,premceCat2_ses-02_part-02_label-phase2,2020.2.10,MacIntel,60,,,,,,,,,,,,,,,,0,52,52,113,1,stimuli/objects/hedgeshears.jpg,left,old,257,,,,,,,,
,,,,,,,,18,2021-05-17_18h34.30.287,premceCat2_ses-02_part-02_label-phase2,2020.2.10,MacIntel,60,,,,,left,1.19,4,0.495,left,0.292,0,0,0,0,1,,,,,,,,,,,,,,,,,
,,,,,,,,18,2021-05-17_18h34.30.287,premceCat2_ses-02_part-02_label-phase2,2020.2.10,MacIntel,60,,,,,,,,,,,,,,,,0,53,53,63,1,stimuli/objects/towel01.jpg,left,old,207,,,,,,,,
,,,,,,,,18,2021-05-17_18h34.30.287,premceCat2_ses-02_part-02_label-phase2,2020.2.10,MacIntel,60,,,,,left,1.694,4,0.356,right,0.329,0,0,0,0,1,,,,,,,,,,,,,,,,,
,,,,,,,,18,2021-05-17_18h34.30.287,premceCat2_ses-02_part-02_label-phase2,2020.2.10,MacIntel,60,,,,,,,,,,,,,,,,0,54,54,115,1,stimuli/objects/tray.jpg,left,old,259,,,,,,,,
,,,,,,,,18,2021-05-17_18h34.30.287,premceCat2_ses-02_part-02_label-phase2,2020.2.10,MacIntel,60,,,,,left,1.133,4,0.392,left,0.422,0,0,0,0,1,,,,,,,,,,,,,,,,,
,,,,,,,,18,2021-05-17_18h34.30.287,premceCat2_ses-02_part-02_label-phase2,2020.2.10,MacIntel,60,,,,,,,,,,,,,,,,0,55,55,28,1,stimuli/objects/canister.jpg,left,old,172,,,,,,,,
,,,,,,,,18,2021-05-17_18h34.30.287,premceCat2_ses-02_part-02_label-phase2,2020.2.10,MacIntel,60,,,,,left,1.46,2,0.464,right,0.622,0,0,0,0,1,,,,,,,,,,,,,,,,,
,,,,,,,,18,2021-05-17_18h34.30.287,premceCat2_ses-02_part-02_label-phase2,2020.2.10,MacIntel,60,,,,,,,,,,,,,,,,0,56,56,83,1,stimuli/objects/icecubetray01a.jpg,right,new,227,,,,,,,,
,,,,,,,,18,2021-05-17_18h34.30.287,premceCat2_ses-02_part-02_label-phase2,2020.2.10,MacIntel,60,,,,,right,2.683,3,0.387,,,,,,,,0,57,57,39,1,stimuli/objects/wafflemaker.jpg,right,new,183,,,,,,,,
,,,,,,,,18,2021-05-17_18h34.30.287,premceCat2_ses-02_part-02_label-phase2,2020.2.10,MacIntel,60,,,,,right,1.642,3,0.373,,,,,,,,0,58,58,68,1,stimuli/objects/ladle02a.jpg,right,new,212,,,,,,,,
,,,,,,,,18,2021-05-17_18h34.30.287,premceCat2_ses-02_part-02_label-phase2,2020.2.10,MacIntel,60,,,,,left,1.38,4,0.804,left,0.65,0,0,0,0,1,,,,,,,,,,,,,,,,,
,,,,,,,,18,2021-05-17_18h34.30.287,premceCat2_ses-02_part-02_label-phase2,2020.2.10,MacIntel,60,,,,,,,,,,,,,,,,0,59,59,119,1,stimuli/objects/muffintray01.jpg,left,old,263,,,,,,,,
,,,,,,,,18,2021-05-17_18h34.30.287,premceCat2_ses-02_part-02_label-phase2,2020.2.10,MacIntel,60,,,,,left,1.152,4,0.821,left,0.407,0,0,0,0,1,,,,,,,,,,,,,,,,,
,,,,,,,,18,2021-05-17_18h34.30.287,premceCat2_ses-02_part-02_label-phase2,2020.2.10,MacIntel,60,,,,,,,,,,,,,,,,0,60,60,20,1,stimuli/objects/bikehelmet.jpg,left,old,164,,,,,,,,
,,,,,,,,18,2021-05-17_18h34.30.287,premceCat2_ses-02_part-02_label-phase2,2020.2.10,MacIntel,60,,,,,right,1.364,2,0.842,,,,,,,,0,61,61,24,1,stimuli/objects/monitor.jpg,right,new,168,,,,,,,,
,,,,,,,,18,2021-05-17_18h34.30.287,premceCat2_ses-02_part-02_label-phase2,2020.2.10,MacIntel,60,,,,,left,0.878,4,0.231,right,0.167,0,0,0,0,1,,,,,,,,,,,,,,,,,
,,,,,,,,18,2021-05-17_18h34.30.287,premceCat2_ses-02_part-02_label-phase2,2020.2.10,MacIntel,60,,,,,,,,,,,,,,,,0,62,62,15,1,stimuli/objects/computermouse06.jpg,right,new,159,,,,,,,,
,,,,,,,,18,2021-05-17_18h34.30.287,premceCat2_ses-02_part-02_label-phase2,2020.2.10,MacIntel,60,,,,,left,1.832,4,0.637,left,0.528,0,0,0,0,1,,,,,,,,,,,,,,,,,
,,,,,,,,18,2021-05-17_18h34.30.287,premceCat2_ses-02_part-02_label-phase2,2020.2.10,MacIntel,60,,,,,,,,,,,,,,,,0,63,63,42,1,stimuli/objects/tennisracket.jpg,right,new,186,,,,,,,,
,,,,,,,,18,2021-05-17_18h34.30.287,premceCat2_ses-02_part-02_label-phase2,2020.2.10,MacIntel,60,,,,,left,0.916,4,0.62,left,0.208,0,0,0,0,1,,,,,,,,,,,,,,,,,
,,,,,,,,18,2021-05-17_18h34.30.287,premceCat2_ses-02_part-02_label-phase2,2020.2.10,MacIntel,60,,,,,,,,,,,,,,,,0,64,64,84,1,stimuli/objects/patioumbrella.jpg,left,old,228,,,,,,,,
,,,,,,,,18,2021-05-17_18h34.30.287,premceCat2_ses-02_part-02_label-phase2,2020.2.10,MacIntel,60,,,,,left,1.058,2,0.299,right,0.228,0,0,0,0,1,,,,,,,,,,,,,,,,,
,,,,,,,,18,2021-05-17_18h34.30.287,premceCat2_ses-02_part-02_label-phase2,2020.2.10,MacIntel,60,,,,,,,,,,,,,,,,0,65,65,19,1,stimuli/objects/mug01.jpg,right,new,163,,,,,,,,
,,,,,,,,18,2021-05-17_18h34.30.287,premceCat2_ses-02_part-02_label-phase2,2020.2.10,MacIntel,60,,,,,left,1.122,2,0.302,right,0.834,0,0,0,0,1,,,,,,,,,,,,,,,,,
,,,,,,,,18,2021-05-17_18h34.30.287,premceCat2_ses-02_part-02_label-phase2,2020.2.10,MacIntel,60,,,,,,,,,,,,,,,,0,66,66,90,1,stimuli/objects/toyhockeystick01.jpg,left,old,234,,,,,,,,
,,,,,,,,18,2021-05-17_18h34.30.287,premceCat2_ses-02_part-02_label-phase2,2020.2.10,MacIntel,60,,,,,left,0.89,3,0.69,right,0.225,0,0,0,0,1,,,,,,,,,,,,,,,,,
,,,,,,,,18,2021-05-17_18h34.30.287,premceCat2_ses-02_part-02_label-phase2,2020.2.10,MacIntel,60,,,,,,,,,,,,,,,,0,67,67,142,1,stimuli/objects/needlenosepliers01.jpg,right,new,286,,,,,,,,
,,,,,,,,18,2021-05-17_18h34.30.287,premceCat2_ses-02_part-02_label-phase2,2020.2.10,MacIntel,60,,,,,left,1.649,4,0.305,right,0.35,0,0,0,0,1,,,,,,,,,,,,,,,,,
,,,,,,,,18,2021-05-17_18h34.30.287,premceCat2_ses-02_part-02_label-phase2,2020.2.10,MacIntel,60,,,,,,,,,,,,,,,,0,68,68,13,1,stimuli/objects/bungeecord02.jpg,left,old,157,,,,,,,,
,,,,,,,,18,2021-05-17_18h34.30.287,premceCat2_ses-02_part-02_label-phase2,2020.2.10,MacIntel,60,,,,,left,1.07,4,0.503,left,2.144,0,0,0,0,1,,,,,,,,,,,,,,,,,
,,,,,,,,18,2021-05-17_18h34.30.287,premceCat2_ses-02_part-02_label-phase2,2020.2.10,MacIntel,60,,,,,,,,,,,,,,,,0,69,69,57,1,stimuli/objects/swimgoggles.jpg,left,old,201,,,,,,,,
,,,,,,,,18,2021-05-17_18h34.30.287,premceCat2_ses-02_part-02_label-phase2,2020.2.10,MacIntel,60,,,,,right,1.414,4,0.612,,,,,,,,0,70,70,96,1,stimuli/objects/wateringcan.jpg,left,old,240,,,,,,,,
,,,,,,,,18,2021-05-17_18h34.30.287,premceCat2_ses-02_part-02_label-phase2,2020.2.10,MacIntel,60,,,,,left,1.611,4,0.46,left,0.665,0,0,0,0,1,,,,,,,,,,,,,,,,,
,,,,,,,,18,2021-05-17_18h34.30.287,premceCat2_ses-02_part-02_label-phase2,2020.2.10,MacIntel,60,,,,,,,,,,,,,,,,0,71,71,88,1,stimuli/objects/magneticcompass.jpg,left,old,232,,,,,,,,
,,,,,,,,18,2021-05-17_18h34.30.287,premceCat2_ses-02_part-02_label-phase2,2020.2.10,MacIntel,60,,,,,right,1.328,3,0.304,,,,,,,,0,72,72,23,1,stimuli/objects/snowboard.jpg,left,old,167,,,,,,,,
,,,,,,,,18,2021-05-17_18h34.30.287,premceCat2_ses-02_part-02_label-phase2,2020.2.10,MacIntel,60,,,,,left,1.289,4,0.414,right,0.264,0,0,0,0,1,,,,,,,,,,,,,,,,,
,,,,,,,,18,2021-05-17_18h34.30.287,premceCat2_ses-02_part-02_label-phase2,2020.2.10,MacIntel,60,,,,,,,,,,,,,,,,0,73,73,67,1,stimuli/objects/fan.jpg,left,old,211,,,,,,,,
,,,,,,,,18,2021-05-17_18h34.30.287,premceCat2_ses-02_part-02_label-phase2,2020.2.10,MacIntel,60,,,,,right,1.371,3,0.407,,,,,,,,0,74,74,111,1,stimuli/objects/diaperbag.jpg,right,new,255,,,,,,,,
,,,,,,,,18,2021-05-17_18h34.30.287,premceCat2_ses-02_part-02_label-phase2,2020.2.10,MacIntel,60,,,,,left,1.232,4,0.382,right,0.267,0,0,0,0,1,,,,,,,,,,,,,,,,,
,,,,,,,,18,2021-05-17_18h34.30.287,premceCat2_ses-02_part-02_label-phase2,2020.2.10,MacIntel,60,,,,,,,,,,,,,,,,0,75,75,79,1,stimuli/objects/boatmotor.jpg,left,old,223,,,,,,,,
,,,,,,,,18,2021-05-17_18h34.30.287,premceCat2_ses-02_part-02_label-phase2,2020.2.10,MacIntel,60,,,,,left,1.209,4,0.299,right,0.368,0,0,0,0,1,,,,,,,,,,,,,,,,,
,,,,,,,,18,2021-05-17_18h34.30.287,premceCat2_ses-02_part-02_label-phase2,2020.2.10,MacIntel,60,,,,,,,,,,,,,,,,0,76,76,7,1,stimuli/objects/butterknife.jpg,left,old,151,,,,,,,,
,,,,,,,,18,2021-05-17_18h34.30.287,premceCat2_ses-02_part-02_label-phase2,2020.2.10,MacIntel,60,,,,,right,1.3,3,0.197,,,,,,,,0,77,77,108,1,stimuli/objects/telephone01b.jpg,left,old,252,,,,,,,,
,,,,,,,,18,2021-05-17_18h34.30.287,premceCat2_ses-02_part-02_label-phase2,2020.2.10,MacIntel,60,,,,,left,1.58,4,0.46,right,0.248,0,0,0,0,1,,,,,,,,,,,,,,,,,
,,,,,,,,18,2021-05-17_18h34.30.287,premceCat2_ses-02_part-02_label-phase2,2020.2.10,MacIntel,60,,,,,,,,,,,,,,,,0,78,78,53,1,stimuli/objects/metalbrush.jpg,left,old,197,,,,,,,,
,,,,,,,,18,2021-05-17_18h34.30.287,premceCat2_ses-02_part-02_label-phase2,2020.2.10,MacIntel,60,,,,,left,3.317,2,0.442,right,0.303,0,0,0,0,1,,,,,,,,,,,,,,,,,
,,,,,,,,18,2021-05-17_18h34.30.287,premceCat2_ses-02_part-02_label-phase2,2020.2.10,MacIntel,60,,,,,,,,,,,,,,,,0,79,79,0,1,stimuli/objects/smokedetector02.jpg,right,new,144,,,,,,,,
,,,,,,,,18,2021-05-17_18h34.30.287,premceCat2_ses-02_part-02_label-phase2,2020.2.10,MacIntel,60,,,,,left,1.085,4,0.275,left,0.384,0,0,0,0,1,,,,,,,,,,,,,,,,,
,,,,,,,,18,2021-05-17_18h34.30.287,premceCat2_ses-02_part-02_label-phase2,2020.2.10,MacIntel,60,,,,,,,,,,,,,,,,0,80,80,71,1,stimuli/objects/handgripper.jpg,left,old,215,,,,,,,,
,,,,,,,,18,2021-05-17_18h34.30.287,premceCat2_ses-02_part-02_label-phase2,2020.2.10,MacIntel,60,,,,,left,1.852,2,0.383,right,0.267,0,0,0,0,1,,,,,,,,,,,,,,,,,
,,,,,,,,18,2021-05-17_18h34.30.287,premceCat2_ses-02_part-02_label-phase2,2020.2.10,MacIntel,60,,,,,,,,,,,,,,,,0,81,81,2,1,stimuli/objects/wetfloorsign.jpg,right,new,146,,,,,,,,
,,,,,,,,18,2021-05-17_18h34.30.287,premceCat2_ses-02_part-02_label-phase2,2020.2.10,MacIntel,60,,,,,left,1.772,4,0.694,left,0.508,0,0,0,0,1,,,,,,,,,,,,,,,,,
,,,,,,,,18,2021-05-17_18h34.30.287,premceCat2_ses-02_part-02_label-phase2,2020.2.10,MacIntel,60,,,,,,,,,,,,,,,,0,82,82,70,1,stimuli/objects/shovel01.jpg,right,new,214,,,,,,,,
,,,,,,,,18,2021-05-17_18h34.30.287,premceCat2_ses-02_part-02_label-phase2,2020.2.10,MacIntel,60,,,,,left,1.899,4,0.469,right,0.48,0,0,0,0,1,,,,,,,,,,,,,,,,,
,,,,,,,,18,2021-05-17_18h34.30.287,premceCat2_ses-02_part-02_label-phase2,2020.2.10,MacIntel,60,,,,,,,,,,,,,,,,0,83,83,139,1,stimuli/objects/corkscrew03a.jpg,left,old,283,,,,,,,,
,,,,,,,,18,2021-05-17_18h34.30.287,premceCat2_ses-02_part-02_label-phase2,2020.2.10,MacIntel,60,,,,,left,1.384,4,0.339,right,0.529,0,0,0,0,1,,,,,,,,,,,,,,,,,
,,,,,,,,18,2021-05-17_18h34.30.287,premceCat2_ses-02_part-02_label-phase2,2020.2.10,MacIntel,60,,,,,,,,,,,,,,,,0,84,84,65,1,stimuli/objects/bucket02.jpg,left,old,209,,,,,,,,
,,,,,,,,18,2021-05-17_18h34.30.287,premceCat2_ses-02_part-02_label-phase2,2020.2.10,MacIntel,60,,,,,left,4.307,1,2.784,left,1.486,0,0,0,0,1,,,,,,,,,,,,,,,,,
,,,,,,,,18,2021-05-17_18h34.30.287,premceCat2_ses-02_part-02_label-phase2,2020.2.10,MacIntel,60,,,,,,,,,,,,,,,,0,85,85,131,1,stimuli/objects/handblender.jpg,right,new,275,,,,,,,,
,,,,,,,,18,2021-05-17_18h34.30.287,premceCat2_ses-02_part-02_label-phase2,2020.2.10,MacIntel,60,,,,,right,1.221,4,0.433,,,,,,,,0,86,86,137,1,stimuli/objects/nutcracker01.jpg,right,new,281,,,,,,,,
,,,,,,,,18,2021-05-17_18h34.30.287,premceCat2_ses-02_part-02_label-phase2,2020.2.10,MacIntel,60,,,,,left,1.035,4,1.142,right,0.35,0,0,0,0,1,,,,,,,,,,,,,,,,,
,,,,,,,,18,2021-05-17_18h34.30.287,premceCat2_ses-02_part-02_label-phase2,2020.2.10,MacIntel,60,,,,,,,,,,,,,,,,0,87,87,25,1,stimuli/objects/shotglass.jpg,left,old,169,,,,,,,,
,,,,,,,,18,2021-05-17_18h34.30.287,premceCat2_ses-02_part-02_label-phase2,2020.2.10,MacIntel,60,,,,,left,1.543,3,0.287,right,0.237,0,0,0,0,1,,,,,,,,,,,,,,,,,
,,,,,,,,18,2021-05-17_18h34.30.287,premceCat2_ses-02_part-02_label-phase2,2020.2.10,MacIntel,60,,,,,,,,,,,,,,,,0,88,88,116,1,stimuli/objects/lockingplier.jpg,right,new,260,,,,,,,,
,,,,,,,,18,2021-05-17_18h34.30.287,premceCat2_ses-02_part-02_label-phase2,2020.2.10,MacIntel,60,,,,,left,0.99,4,0.345,left,0.201,0,0,0,0,1,,,,,,,,,,,,,,,,,
,,,,,,,,18,2021-05-17_18h34.30.287,premceCat2_ses-02_part-02_label-phase2,2020.2.10,MacIntel,60,,,,,,,,,,,,,,,,0,89,89,97,1,stimuli/objects/tupperware03a.jpg,left,old,241,,,,,,,,
,,,,,,,,18,2021-05-17_18h34.30.287,premceCat2_ses-02_part-02_label-phase2,2020.2.10,MacIntel,60,,,,,left,0.752,4,0.086,left,0.588,0,0,0,0,1,,,,,,,,,,,,,,,,,
,,,,,,,,18,2021-05-17_18h34.30.287,premceCat2_ses-02_part-02_label-phase2,2020.2.10,MacIntel,60,,,,,,,,,,,,,,,,0,90,90,110,1,stimuli/objects/skiboot01a.jpg,left,old,254,,,,,,,,
,,,,,,,,18,2021-05-17_18h34.30.287,premceCat2_ses-02_part-02_label-phase2,2020.2.10,MacIntel,60,,,,,left,0.976,4,0.531,right,0.563,0,0,0,0,1,,,,,,,,,,,,,,,,,
,,,,,,,,18,2021-05-17_18h34.30.287,premceCat2_ses-02_part-02_label-phase2,2020.2.10,MacIntel,60,,,,,,,,,,,,,,,,0,91,91,91,1,stimuli/objects/cuttingpliers02.jpg,right,new,235,,,,,,,,
,,,,,,,,18,2021-05-17_18h34.30.287,premceCat2_ses-02_part-02_label-phase2,2020.2.10,MacIntel,60,,,,,right,1.939,2,0.877,,,,,,,,0,92,92,124,1,stimuli/objects/basketball01.jpg,right,new,268,,,,,,,,
,,,,,,,,18,2021-05-17_18h34.30.287,premceCat2_ses-02_part-02_label-phase2,2020.2.10,MacIntel,60,,,,,left,1.589,4,0.596,left,0.419,0,0,0,0,1,,,,,,,,,,,,,,,,,
,,,,,,,,18,2021-05-17_18h34.30.287,premceCat2_ses-02_part-02_label-phase2,2020.2.10,MacIntel,60,,,,,,,,,,,,,,,,0,93,93,100,1,stimuli/objects/caulking.jpg,left,old,244,,,,,,,,
,,,,,,,,18,2021-05-17_18h34.30.287,premceCat2_ses-02_part-02_label-phase2,2020.2.10,MacIntel,60,,,,,left,1.046,4,0.337,right,0.318,0,0,0,0,1,,,,,,,,,,,,,,,,,
,,,,,,,,18,2021-05-17_18h34.30.287,premceCat2_ses-02_part-02_label-phase2,2020.2.10,MacIntel,60,,,,,,,,,,,,,,,,0,94,94,29,1,stimuli/objects/chandelier.jpg,left,old,173,,,,,,,,
,,,,,,,,18,2021-05-17_18h34.30.287,premceCat2_ses-02_part-02_label-phase2,2020.2.10,MacIntel,60,,,,,right,1.792,3,0.167,,,,,,,,0,95,95,98,1,stimuli/objects/cameracase01a.jpg,right,new,242,,,,,,,,
,,,,,,,,18,2021-05-17_18h34.30.287,premceCat2_ses-02_part-02_label-phase2,2020.2.10,MacIntel,60,,,,,left,1.172,2,0.602,right,0.613,0,0,0,0,1,,,,,,,,,,,,,,,,,
,,,,,,,,18,2021-05-17_18h34.30.287,premceCat2_ses-02_part-02_label-phase2,2020.2.10,MacIntel,60,,,,,,,,,,,,,,,,0,96,96,81,1,stimuli/objects/grill.jpg,right,new,225,,,,,,,,
,,,,,,,,18,2021-05-17_18h34.30.287,premceCat2_ses-02_part-02_label-phase2,2020.2.10,MacIntel,60,,,,,right,1.394,3,0.273,,,,,,,,0,97,97,6,1,stimuli/objects/solderingwire.jpg,right,new,150,,,,,,,,
,,,,,,,,18,2021-05-17_18h34.30.287,premceCat2_ses-02_part-02_label-phase2,2020.2.10,MacIntel,60,,,,,left,2,4,0.868,right,1.752,0,0,0,0,1,,,,,,,,,,,,,,,,,
,,,,,,,,18,2021-05-17_18h34.30.287,premceCat2_ses-02_part-02_label-phase2,2020.2.10,MacIntel,60,,,,,,,,,,,,,,,,0,98,98,103,1,stimuli/objects/swissarmyknife01a.jpg,right,new,247,,,,,,,,
,,,,,,,,18,2021-05-17_18h34.30.287,premceCat2_ses-02_part-02_label-phase2,2020.2.10,MacIntel,60,,,,,right,2.369,2,0.423,,,,,,,,0,99,99,59,1,stimuli/objects/speedball.jpg,right,new,203,,,,,,,,
,,,,,,,,18,2021-05-17_18h34.30.287,premceCat2_ses-02_part-02_label-phase2,2020.2.10,MacIntel,60,,,,,left,1.151,4,0.563,left,0.458,0,0,0,0,1,,,,,,,,,,,,,,,,,
,,,,,,,,18,2021-05-17_18h34.30.287,premceCat2_ses-02_part-02_label-phase2,2020.2.10,MacIntel,60,,,,,,,,,,,,,,,,0,100,100,58,1,stimuli/objects/volleyball.jpg,left,old,202,,,,,,,,
,,,,,,,,18,2021-05-17_18h34.30.287,premceCat2_ses-02_part-02_label-phase2,2020.2.10,MacIntel,60,,,,,left,1.63,3,1.009,right,0.5,0,0,0,0,1,,,,,,,,,,,,,,,,,
,,,,,,,,18,2021-05-17_18h34.30.287,premceCat2_ses-02_part-02_label-phase2,2020.2.10,MacIntel,60,,,,,,,,,,,,,,,,0,101,101,45,1,stimuli/objects/charcoalbarbecue.jpg,left,old,189,,,,,,,,
,,,,,,,,18,2021-05-17_18h34.30.287,premceCat2_ses-02_part-02_label-phase2,2020.2.10,MacIntel,60,,,,,left,1.127,4,1.139,left,0.508,0,0,0,0,1,,,,,,,,,,,,,,,,,
,,,,,,,,18,2021-05-17_18h34.30.287,premceCat2_ses-02_part-02_label-phase2,2020.2.10,MacIntel,60,,,,,,,,,,,,,,,,0,102,102,85,1,stimuli/objects/filmnegative.jpg,left,old,229,,,,,,,,
,,,,,,,,18,2021-05-17_18h34.30.287,premceCat2_ses-02_part-02_label-phase2,2020.2.10,MacIntel,60,,,,,left,1.202,4,0.327,right,0.229,0,0,0,0,1,,,,,,,,,,,,,,,,,
,,,,,,,,18,2021-05-17_18h34.30.287,premceCat2_ses-02_part-02_label-phase2,2020.2.10,MacIntel,60,,,,,,,,,,,,,,,,0,103,103,72,1,stimuli/objects/wheel01.jpg,left,old,216,,,,,,,,
,,,,,,,,18,2021-05-17_18h34.30.287,premceCat2_ses-02_part-02_label-phase2,2020.2.10,MacIntel,60,,,,,left,3.694,2,0.538,right,0.636,0,0,0,0,1,,,,,,,,,,,,,,,,,
,,,,,,,,18,2021-05-17_18h34.30.287,premceCat2_ses-02_part-02_label-phase2,2020.2.10,MacIntel,60,,,,,,,,,,,,,,,,0,104,104,41,1,stimuli/objects/flask.jpg,right,new,185,,,,,,,,
,,,,,,,,18,2021-05-17_18h34.30.287,premceCat2_ses-02_part-02_label-phase2,2020.2.10,MacIntel,60,,,,,right,1.309,4,0.495,,,,,,,,0,105,105,16,1,stimuli/objects/bottleopener01.jpg,right,new,160,,,,,,,,
,,,,,,,,18,2021-05-17_18h34.30.287,premceCat2_ses-02_part-02_label-phase2,2020.2.10,MacIntel,60,,,,,right,1.783,3,0.362,,,,,,,,0,106,106,102,1,stimuli/objects/beachumbrella01.jpg,right,new,246,,,,,,,,
,,,,,,,,18,2021-05-17_18h34.30.287,premceCat2_ses-02_part-02_label-phase2,2020.2.10,MacIntel,60,,,,,left,1.572,4,0.373,right,0.193,0,0,0,0,1,,,,,,,,,,,,,,,,,
,,,,,,,,18,2021-05-17_18h34.30.287,premceCat2_ses-02_part-02_label-phase2,2020.2.10,MacIntel,60,,,,,,,,,,,,,,,,0,107,107,75,1,stimuli/objects/mallet01b.jpg,left,old,219,,,,,,,,
,,,,,,,,18,2021-05-17_18h34.30.287,premceCat2_ses-02_part-02_label-phase2,2020.2.10,MacIntel,60,,,,,left,1.07,4,0.352,left,0.37,0,0,0,0,1,,,,,,,,,,,,,,,,,
,,,,,,,,18,2021-05-17_18h34.30.287,premceCat2_ses-02_part-02_label-phase2,2020.2.10,MacIntel,60,,,,,,,,,,,,,,,,0,108,108,74,1,stimuli/objects/shinpad.jpg,left,old,218,,,,,,,,
,,,,,,,,18,2021-05-17_18h34.30.287,premceCat2_ses-02_part-02_label-phase2,2020.2.10,MacIntel,60,,,,,left,1.037,4,0.212,right,0.18,0,0,0,0,1,,,,,,,,,,,,,,,,,
,,,,,,,,18,2021-05-17_18h34.30.287,premceCat2_ses-02_part-02_label-phase2,2020.2.10,MacIntel,60,,,,,,,,,,,,,,,,0,109,109,32,1,stimuli/objects/rollingpin01a.jpg,left,old,176,,,,,,,,
,,,,,,,,18,2021-05-17_18h34.30.287,premceCat2_ses-02_part-02_label-phase2,2020.2.10,MacIntel,60,,,,,right,1.259,3,0.234,,,,,,,,0,110,110,60,1,stimuli/objects/kite.jpg,right,new,204,,,,,,,,
,,,,,,,,18,2021-05-17_18h34.30.287,premceCat2_ses-02_part-02_label-phase2,2020.2.10,MacIntel,60,,,,,left,1.1,3,0.271,right,0.238,0,0,0,0,1,,,,,,,,,,,,,,,,,
,,,,,,,,18,2021-05-17_18h34.30.287,premceCat2_ses-02_part-02_label-phase2,2020.2.10,MacIntel,60,,,,,,,,,,,,,,,,0,111,111,104,1,stimuli/objects/alarmclock01.jpg,left,old,248,,,,,,,,
,,,,,,,,18,2021-05-17_18h34.30.287,premceCat2_ses-02_part-02_label-phase2,2020.2.10,MacIntel,60,,,,,right,1.504,3,0.066,,,,,,,,0,112,112,138,1,stimuli/objects/beermug01a.jpg,right,new,282,,,,,,,,
,,,,,,,,18,2021-05-17_18h34.30.287,premceCat2_ses-02_part-02_label-phase2,2020.2.10,MacIntel,60,,,,,right,1.622,3,0.148,,,,,,,,0,113,113,12,1,stimuli/objects/fanheater.jpg,right,new,156,,,,,,,,
,,,,,,,,18,2021-05-17_18h34.30.287,premceCat2_ses-02_part-02_label-phase2,2020.2.10,MacIntel,60,,,,,left,1.609,4,0.7,left,0.303,0,0,0,0,1,,,,,,,,,,,,,,,,,
,,,,,,,,18,2021-05-17_18h34.30.287,premceCat2_ses-02_part-02_label-phase2,2020.2.10,MacIntel,60,,,,,,,,,,,,,,,,0,114,114,33,1,stimuli/objects/ipod.jpg,left,old,177,,,,,,,,
,,,,,,,,18,2021-05-17_18h34.30.287,premceCat2_ses-02_part-02_label-phase2,2020.2.10,MacIntel,60,,,,,left,3.86,2,0.456,right,0.615,0,0,0,0,1,,,,,,,,,,,,,,,,,
,,,,,,,,18,2021-05-17_18h34.30.287,premceCat2_ses-02_part-02_label-phase2,2020.2.10,MacIntel,60,,,,,,,,,,,,,,,,0,115,115,123,1,stimuli/objects/jackhammer.jpg,right,new,267,,,,,,,,
,,,,,,,,18,2021-05-17_18h34.30.287,premceCat2_ses-02_part-02_label-phase2,2020.2.10,MacIntel,60,,,,,left,1.266,4,0.282,right,0.224,0,0,0,0,1,,,,,,,,,,,,,,,,,
,,,,,,,,18,2021-05-17_18h34.30.287,premceCat2_ses-02_part-02_label-phase2,2020.2.10,MacIntel,60,,,,,,,,,,,,,,,,0,116,116,37,1,stimuli/objects/computerkeyboard02.jpg,left,old,181,,,,,,,,
,,,,,,,,18,2021-05-17_18h34.30.287,premceCat2_ses-02_part-02_label-phase2,2020.2.10,MacIntel,60,,,,,left,0.794,4,0.154,left,0.151,0,0,0,0,1,,,,,,,,,,,,,,,,,
,,,,,,,,18,2021-05-17_18h34.30.287,premceCat2_ses-02_part-02_label-phase2,2020.2.10,MacIntel,60,,,,,,,,,,,,,,,,0,117,117,73,1,stimuli/objects/baseballglove.jpg,left,old,217,,,,,,,,
,,,,,,,,18,2021-05-17_18h34.30.287,premceCat2_ses-02_part-02_label-phase2,2020.2.10,MacIntel,60,,,,,left,1.16,4,0.176,right,0.083,0,0,0,0,1,,,,,,,,,,,,,,,,,
,,,,,,,,18,2021-05-17_18h34.30.287,premceCat2_ses-02_part-02_label-phase2,2020.2.10,MacIntel,60,,,,,,,,,,,,,,,,0,118,118,129,1,stimuli/objects/hoe.jpg,left,old,273,,,,,,,,
,,,,,,,,18,2021-05-17_18h34.30.287,premceCat2_ses-02_part-02_label-phase2,2020.2.10,MacIntel,60,,,,,left,0.999,4,0.063,right,0.653,0,0,0,0,1,,,,,,,,,,,,,,,,,
,,,,,,,,18,2021-05-17_18h34.30.287,premceCat2_ses-02_part-02_label-phase2,2020.2.10,MacIntel,60,,,,,,,,,,,,,,,,0,119,119,52,1,stimuli/objects/securitycamera.jpg,left,old,196,,,,,,,,
,,,,,,,,18,2021-05-17_18h34.30.287,premceCat2_ses-02_part-02_label-phase2,2020.2.10,MacIntel,60,,,,,left,1.513,4,0.125,right,0.241,0,0,0,0,1,,,,,,,,,,,,,,,,,
,,,,,,,,18,2021-05-17_18h34.30.287,premceCat2_ses-02_part-02_label-phase2,2020.2.10,MacIntel,60,,,,,,,,,,,,,,,,0,120,120,92,1,stimuli/objects/snowshovel.jpg,left,old,236,,,,,,,,
,,,,,,,,18,2021-05-17_18h34.30.287,premceCat2_ses-02_part-02_label-phase2,2020.2.10,MacIntel,60,,,,,left,1.2,4,0.489,left,0.363,0,0,0,0,1,,,,,,,,,,,,,,,,,
,,,,,,,,18,2021-05-17_18h34.30.287,premceCat2_ses-02_part-02_label-phase2,2020.2.10,MacIntel,60,,,,,,,,,,,,,,,,0,121,121,122,1,stimuli/objects/hockeystick.jpg,right,new,266,,,,,,,,
,,,,,,,,18,2021-05-17_18h34.30.287,premceCat2_ses-02_part-02_label-phase2,2020.2.10,MacIntel,60,,,,,right,2.513,1,1.338,,,,,,,,0,122,122,105,1,stimuli/objects/pitcher02b.jpg,left,old,249,,,,,,,,
,,,,,,,,18,2021-05-17_18h34.30.287,premceCat2_ses-02_part-02_label-phase2,2020.2.10,MacIntel,60,,,,,right,1.165,3,0.128,,,,,,,,0,123,123,35,1,stimuli/objects/stroller.jpg,right,new,179,,,,,,,,
,,,,,,,,18,2021-05-17_18h34.30.287,premceCat2_ses-02_part-02_label-phase2,2020.2.10,MacIntel,60,,,,,left,3.865,2,0.457,right,0.553,0,0,0,0,1,,,,,,,,,,,,,,,,,
,,,,,,,,18,2021-05-17_18h34.30.287,premceCat2_ses-02_part-02_label-phase2,2020.2.10,MacIntel,60,,,,,,,,,,,,,,,,0,124,124,136,1,stimuli/objects/hockeypuck.jpg,left,old,280,,,,,,,,
,,,,,,,,18,2021-05-17_18h34.30.287,premceCat2_ses-02_part-02_label-phase2,2020.2.10,MacIntel,60,,,,,left,1.769,3,0.381,right,0.284,0,0,0,0,1,,,,,,,,,,,,,,,,,
,,,,,,,,18,2021-05-17_18h34.30.287,premceCat2_ses-02_part-02_label-phase2,2020.2.10,MacIntel,60,,,,,,,,,,,,,,,,0,125,125,22,1,stimuli/objects/paintroller01.jpg,left,old,166,,,,,,,,
,,,,,,,,18,2021-05-17_18h34.30.287,premceCat2_ses-02_part-02_label-phase2,2020.2.10,MacIntel,60,,,,,right,1.378,3,0.672,,,,,,,,0,126,126,127,1,stimuli/objects/skigoggles01.jpg,right,new,271,,,,,,,,
,,,,,,,,18,2021-05-17_18h34.30.287,premceCat2_ses-02_part-02_label-phase2,2020.2.10,MacIntel,60,,,,,left,1.963,4,0.36,right,0.344,0,0,0,0,1,,,,,,,,,,,,,,,,,
,,,,,,,,18,2021-05-17_18h34.30.287,premceCat2_ses-02_part-02_label-phase2,2020.2.10,MacIntel,60,,,,,,,,,,,,,,,,0,127,127,141,1,stimuli/objects/travelmug.jpg,left,old,285,,,,,,,,
,,,,,,,,18,2021-05-17_18h34.30.287,premceCat2_ses-02_part-02_label-phase2,2020.2.10,MacIntel,60,,,,,right,2.124,2,0.903,,,,,,,,0,128,128,34,1,stimuli/objects/kneepad01c.jpg,right,new,178,,,,,,,,
,,,,,,,,18,2021-05-17_18h34.30.287,premceCat2_ses-02_part-02_label-phase2,2020.2.10,MacIntel,60,,,,,left,3.073,3,0.342,right,0.285,0,0,0,0,1,,,,,,,,,,,,,,,,,
,,,,,,,,18,2021-05-17_18h34.30.287,premceCat2_ses-02_part-02_label-phase2,2020.2.10,MacIntel,60,,,,,,,,,,,,,,,,0,129,129,46,1,stimuli/objects/waterbottleholder.jpg,right,new,190,,,,,,,,
,,,,,,,,18,2021-05-17_18h34.30.287,premceCat2_ses-02_part-02_label-phase2,2020.2.10,MacIntel,60,,,,,left,0.999,4,0.434,right,0.262,0,0,0,0,1,,,,,,,,,,,,,,,,,
,,,,,,,,18,2021-05-17_18h34.30.287,premceCat2_ses-02_part-02_label-phase2,2020.2.10,MacIntel,60,,,,,,,,,,,,,,,,0,130,130,77,1,stimuli/objects/contactlens.jpg,left,old,221,,,,,,,,
,,,,,,,,18,2021-05-17_18h34.30.287,premceCat2_ses-02_part-02_label-phase2,2020.2.10,MacIntel,60,,,,,left,0.908,4,0.299,right,0.166,0,0,0,0,1,,,,,,,,,,,,,,,,,
,,,,,,,,18,2021-05-17_18h34.30.287,premceCat2_ses-02_part-02_label-phase2,2020.2.10,MacIntel,60,,,,,,,,,,,,,,,,0,131,131,93,1,stimuli/objects/chainsaw.jpg,left,old,237,,,,,,,,
,,,,,,,,18,2021-05-17_18h34.30.287,premceCat2_ses-02_part-02_label-phase2,2020.2.10,MacIntel,60,,,,,left,1.487,4,0.169,right,0.023,0,0,0,0,1,,,,,,,,,,,,,,,,,
,,,,,,,,18,2021-05-17_18h34.30.287,premceCat2_ses-02_part-02_label-phase2,2020.2.10,MacIntel,60,,,,,,,,,,,,,,,,0,132,132,130,1,stimuli/objects/fuse.jpg,left,old,274,,,,,,,,
,,,,,,,,18,2021-05-17_18h34.30.287,premceCat2_ses-02_part-02_label-phase2,2020.2.10,MacIntel,60,,,,,left,2.198,2,0.064,right,0.425,0,0,0,0,1,,,,,,,,,,,,,,,,,
,,,,,,,,18,2021-05-17_18h34.30.287,premceCat2_ses-02_part-02_label-phase2,2020.2.10,MacIntel,60,,,,,,,,,,,,,,,,0,133,133,106,1,stimuli/objects/extensioncord.jpg,left,old,250,,,,,,,,
,,,,,,,,18,2021-05-17_18h34.30.287,premceCat2_ses-02_part-02_label-phase2,2020.2.10,MacIntel,60,,,,,left,1.335,2,0.758,right,0.343,0,0,0,0,1,,,,,,,,,,,,,,,,,
,,,,,,,,18,2021-05-17_18h34.30.287,premceCat2_ses-02_part-02_label-phase2,2020.2.10,MacIntel,60,,,,,,,,,,,,,,,,0,134,134,132,1,stimuli/objects/wirestripper.jpg,right,new,276,,,,,,,,
,,,,,,,,18,2021-05-17_18h34.30.287,premceCat2_ses-02_part-02_label-phase2,2020.2.10,MacIntel,60,,,,,left,1.095,3,0.276,right,0.259,0,0,0,0,1,,,,,,,,,,,,,,,,,
,,,,,,,,18,2021-05-17_18h34.30.287,premceCat2_ses-02_part-02_label-phase2,2020.2.10,MacIntel,60,,,,,,,,,,,,,,,,0,135,135,94,1,stimuli/objects/file.jpg,right,new,238,,,,,,,,
,,,,,,,,18,2021-05-17_18h34.30.287,premceCat2_ses-02_part-02_label-phase2,2020.2.10,MacIntel,60,,,,,left,2.938,4,0.197,right,0.374,0,0,0,0,1,,,,,,,,,,,,,,,,,
,,,,,,,,18,2021-05-17_18h34.30.287,premceCat2_ses-02_part-02_label-phase2,2020.2.10,MacIntel,60,,,,,,,,,,,,,,,,0,136,136,8,1,stimuli/objects/hammer01.jpg,left,old,152,,,,,,,,
,,,,,,,,18,2021-05-17_18h34.30.287,premceCat2_ses-02_part-02_label-phase2,2020.2.10,MacIntel,60,,,,,left,2.115,3,0.507,left,0.997,0,0,0,0,1,,,,,,,,,,,,,,,,,
,,,,,,,,18,2021-05-17_18h34.30.287,premceCat2_ses-02_part-02_label-phase2,2020.2.10,MacIntel,60,,,,,,,,,,,,,,,,0,137,137,44,1,stimuli/objects/toaster01.jpg,right,new,188,,,,,,,,
,,,,,,,,18,2021-05-17_18h34.30.287,premceCat2_ses-02_part-02_label-phase2,2020.2.10,MacIntel,60,,,,,left,4.162,3,0.318,right,1.001,0,0,0,0,1,,,,,,,,,,,,,,,,,
,,,,,,,,18,2021-05-17_18h34.30.287,premceCat2_ses-02_part-02_label-phase2,2020.2.10,MacIntel,60,,,,,,,,,,,,,,,,0,138,138,62,1,stimuli/objects/pot01.jpg,left,old,206,,,,,,,,
,,,,,,,,18,2021-05-17_18h34.30.287,premceCat2_ses-02_part-02_label-phase2,2020.2.10,MacIntel,60,,,,,left,0.91,4,0.991,right,0.352,0,0,0,0,1,,,,,,,,,,,,,,,,,
,,,,,,,,18,2021-05-17_18h34.30.287,premceCat2_ses-02_part-02_label-phase2,2020.2.10,MacIntel,60,,,,,,,,,,,,,,,,0,139,139,18,1,stimuli/objects/fluorescentlightbulb.jpg,left,old,162,,,,,,,,
,,,,,,,,18,2021-05-17_18h34.30.287,premceCat2_ses-02_part-02_label-phase2,2020.2.10,MacIntel,60,,,,,left,2.129,4,0.362,right,0.271,0,0,0,0,1,,,,,,,,,,,,,,,,,
,,,,,,,,18,2021-05-17_18h34.30.287,premceCat2_ses-02_part-02_label-phase2,2020.2.10,MacIntel,60,,,,,,,,,,,,,,,,0,140,140,38,1,stimuli/objects/breadknife.jpg,left,old,182,,,,,,,,
,,,,,,,,18,2021-05-17_18h34.30.287,premceCat2_ses-02_part-02_label-phase2,2020.2.10,MacIntel,60,,,,,right,1.641,3,0.296,,,,,,,,0,141,141,47,1,stimuli/objects/plate01b.jpg,right,new,191,,,,,,,,
,,,,,,,,18,2021-05-17_18h34.30.287,premceCat2_ses-02_part-02_label-phase2,2020.2.10,MacIntel,60,,,,,right,1.568,3,0.38,,,,,,,,0,142,142,51,1,stimuli/objects/cheeseknife01.jpg,right,new,195,,,,,,,,
,,,,,,,,18,2021-05-17_18h34.30.287,premceCat2_ses-02_part-02_label-phase2,2020.2.10,MacIntel,60,,,,,,,,,,,,,,,,,,,,,,,,,space,4.996,0,1,1,1,1,condition_files/ImagesforRecog3_2.csv
