instructions_loop.thisRepN,instructions_loop.thisTrialN,instructions_loop.thisN,instructions_loop.thisIndex,instructions_loop.ran,text1,text2,text3,participant,date,expName,psychopyVersion,OS,frameRate,key_resp_2.keys,key_resp_2.rt,key_resp_3.keys,key_resp_3.rt,recog_resp.keys,recog_resp.rt,conf_resp.keys,conf_resp.rt,resp_assoc.keys,resp_assoc.rt,assoc_loop.thisRepN,assoc_loop.thisTrialN,assoc_loop.thisN,assoc_loop.thisIndex,assoc_loop.ran,recog_loop.thisRepN,recog_loop.thisTrialN,recog_loop.thisN,recog_loop.thisIndex,recog_loop.ran,images,corr_ans,type,order,key_resp_break.keys,key_resp_break.rt,list_loop.thisRepN,list_loop.thisTrialN,list_loop.thisN,list_loop.thisIndex,list_loop.ran,recog_list
0,0,0,0,1,Welcome to the last phase of this experiment!,.,Please press the space bar to continue,19,2021-05-19_15h32.09.691,premceCat2_ses-02_part-02_label-phase2,2020.2.10,MacIntel,60,,,,,,,,,,,,,,,,,,,,,,,,,,,,,,,,
0,1,1,1,1,.,"In this phase, you will see some objects. 

For each object, you should indicate whether you have seen it before during the experiment.

Press LEFT ARROW for YES
Press RIGHT ARROW for NO

",Please press the space bar to continue ,19,2021-05-19_15h32.09.691,premceCat2_ses-02_part-02_label-phase2,2020.2.10,MacIntel,60,,,,,,,,,,,,,,,,,,,,,,,,,,,,,,,,
0,2,2,2,1,.,"After that, you will be asked how confident you are of your choice.

Please rate the confidence in your choice with the numbers from 1 to 4 of your keyboard. 

The numbers correspond to:

1 = Very unsure
2 = Unsure
3 = Sure
4 = Very Sure",Please press the space bar to continue,19,2021-05-19_15h32.09.691,premceCat2_ses-02_part-02_label-phase2,2020.2.10,MacIntel,60,,,,,,,,,,,,,,,,,,,,,,,,,,,,,,,,
,,,,,,,,19,2021-05-19_15h32.09.691,premceCat2_ses-02_part-02_label-phase2,2020.2.10,MacIntel,60,space,9.63218,space,17.06348,left,2.87653,3,1.691145,right,1.960775,0,0,0,0,1,,,,,,,,,,,,,,,,,
,,,,,,,,19,2021-05-19_15h32.09.691,premceCat2_ses-02_part-02_label-phase2,2020.2.10,MacIntel,60,,,,,,,,,,,,,,,,0,0,0,27,1,stimuli/objects/level03a.jpg,left,old,171,,,,,,,,
,,,,,,,,19,2021-05-19_15h32.09.691,premceCat2_ses-02_part-02_label-phase2,2020.2.10,MacIntel,60,,,,,right,2.236705,3,1.174275,,,,,,,,0,1,1,66,1,stimuli/objects/heatpump.jpg,right,new,210,,,,,,,,
,,,,,,,,19,2021-05-19_15h32.09.691,premceCat2_ses-02_part-02_label-phase2,2020.2.10,MacIntel,60,,,,,right,2.274585,3,1.74271,,,,,,,,0,2,2,19,1,stimuli/objects/mug01.jpg,right,new,163,,,,,,,,
,,,,,,,,19,2021-05-19_15h32.09.691,premceCat2_ses-02_part-02_label-phase2,2020.2.10,MacIntel,60,,,,,left,2.41171,4,0.70663,left,1.14092,0,0,0,0,1,,,,,,,,,,,,,,,,,
,,,,,,,,19,2021-05-19_15h32.09.691,premceCat2_ses-02_part-02_label-phase2,2020.2.10,MacIntel,60,,,,,,,,,,,,,,,,0,3,3,105,1,stimuli/objects/spicerack.jpg,left,old,249,,,,,,,,
,,,,,,,,19,2021-05-19_15h32.09.691,premceCat2_ses-02_part-02_label-phase2,2020.2.10,MacIntel,60,,,,,left,0.904075,4,0.50084,left,0.572215,0,0,0,0,1,,,,,,,,,,,,,,,,,
,,,,,,,,19,2021-05-19_15h32.09.691,premceCat2_ses-02_part-02_label-phase2,2020.2.10,MacIntel,60,,,,,,,,,,,,,,,,0,4,4,88,1,stimuli/objects/iceskate.jpg,left,old,232,,,,,,,,
,,,,,,,,19,2021-05-19_15h32.09.691,premceCat2_ses-02_part-02_label-phase2,2020.2.10,MacIntel,60,,,,,left,1.08381,4,0.37396,right,0.67863,0,0,0,0,1,,,,,,,,,,,,,,,,,
,,,,,,,,19,2021-05-19_15h32.09.691,premceCat2_ses-02_part-02_label-phase2,2020.2.10,MacIntel,60,,,,,,,,,,,,,,,,0,5,5,8,1,stimuli/objects/tape02a.jpg,left,old,152,,,,,,,,
,,,,,,,,19,2021-05-19_15h32.09.691,premceCat2_ses-02_part-02_label-phase2,2020.2.10,MacIntel,60,,,,,left,0.90026,4,0.66711,left,0.490715,0,0,0,0,1,,,,,,,,,,,,,,,,,
,,,,,,,,19,2021-05-19_15h32.09.691,premceCat2_ses-02_part-02_label-phase2,2020.2.10,MacIntel,60,,,,,,,,,,,,,,,,0,6,6,119,1,stimuli/objects/servingspoon01.jpg,left,old,263,,,,,,,,
,,,,,,,,19,2021-05-19_15h32.09.691,premceCat2_ses-02_part-02_label-phase2,2020.2.10,MacIntel,60,,,,,right,1.14335,3,0.543935,,,,,,,,0,7,7,78,1,stimuli/objects/lightswitch01.jpg,right,new,222,,,,,,,,
,,,,,,,,19,2021-05-19_15h32.09.691,premceCat2_ses-02_part-02_label-phase2,2020.2.10,MacIntel,60,,,,,left,1.03345,4,0.68404,right,0.579225,0,0,0,0,1,,,,,,,,,,,,,,,,,
,,,,,,,,19,2021-05-19_15h32.09.691,premceCat2_ses-02_part-02_label-phase2,2020.2.10,MacIntel,60,,,,,,,,,,,,,,,,0,8,8,63,1,stimuli/objects/coffeepot03a.jpg,left,old,207,,,,,,,,
,,,,,,,,19,2021-05-19_15h32.09.691,premceCat2_ses-02_part-02_label-phase2,2020.2.10,MacIntel,60,,,,,left,0.985205,3,0.65839,right,0.52425,0,0,0,0,1,,,,,,,,,,,,,,,,,
,,,,,,,,19,2021-05-19_15h32.09.691,premceCat2_ses-02_part-02_label-phase2,2020.2.10,MacIntel,60,,,,,,,,,,,,,,,,0,9,9,139,1,stimuli/objects/pitcher02b.jpg,left,old,283,,,,,,,,
,,,,,,,,19,2021-05-19_15h32.09.691,premceCat2_ses-02_part-02_label-phase2,2020.2.10,MacIntel,60,,,,,right,1.2555,4,0.75884,,,,,,,,0,10,10,2,1,stimuli/objects/wetfloorsign.jpg,right,new,146,,,,,,,,
,,,,,,,,19,2021-05-19_15h32.09.691,premceCat2_ses-02_part-02_label-phase2,2020.2.10,MacIntel,60,,,,,left,1.959475,1,0.560965,right,2.330585,0,0,0,0,1,,,,,,,,,,,,,,,,,
,,,,,,,,19,2021-05-19_15h32.09.691,premceCat2_ses-02_part-02_label-phase2,2020.2.10,MacIntel,60,,,,,,,,,,,,,,,,0,11,11,94,1,stimuli/objects/file.jpg,right,new,238,,,,,,,,
,,,,,,,,19,2021-05-19_15h32.09.691,premceCat2_ses-02_part-02_label-phase2,2020.2.10,MacIntel,60,,,,,right,1.300575,2,0.96064,,,,,,,,0,12,12,35,1,stimuli/objects/stroller.jpg,right,new,179,,,,,,,,
,,,,,,,,19,2021-05-19_15h32.09.691,premceCat2_ses-02_part-02_label-phase2,2020.2.10,MacIntel,60,,,,,left,1.045985,3,0.39793,right,0.50362,0,0,0,0,1,,,,,,,,,,,,,,,,,
,,,,,,,,19,2021-05-19_15h32.09.691,premceCat2_ses-02_part-02_label-phase2,2020.2.10,MacIntel,60,,,,,,,,,,,,,,,,0,13,13,132,1,stimuli/objects/wirestripper.jpg,right,new,276,,,,,,,,
,,,,,,,,19,2021-05-19_15h32.09.691,premceCat2_ses-02_part-02_label-phase2,2020.2.10,MacIntel,60,,,,,left,6.21425,2,0.341085,right,1.008,0,0,0,0,1,,,,,,,,,,,,,,,,,
,,,,,,,,19,2021-05-19_15h32.09.691,premceCat2_ses-02_part-02_label-phase2,2020.2.10,MacIntel,60,,,,,,,,,,,,,,,,0,14,14,36,1,stimuli/objects/loppingshears.jpg,right,new,180,,,,,,,,
,,,,,,,,19,2021-05-19_15h32.09.691,premceCat2_ses-02_part-02_label-phase2,2020.2.10,MacIntel,60,,,,,left,1.58368,4,0.324465,left,0.80493,0,0,0,0,1,,,,,,,,,,,,,,,,,
,,,,,,,,19,2021-05-19_15h32.09.691,premceCat2_ses-02_part-02_label-phase2,2020.2.10,MacIntel,60,,,,,,,,,,,,,,,,0,15,15,62,1,stimuli/objects/shotglass.jpg,left,old,206,,,,,,,,
,,,,,,,,19,2021-05-19_15h32.09.691,premceCat2_ses-02_part-02_label-phase2,2020.2.10,MacIntel,60,,,,,right,1.76909,3,0.39456,,,,,,,,0,16,16,48,1,stimuli/objects/eggslicer.jpg,right,new,192,,,,,,,,
,,,,,,,,19,2021-05-19_15h32.09.691,premceCat2_ses-02_part-02_label-phase2,2020.2.10,MacIntel,60,,,,,right,1.710895,2,0.28013,,,,,,,,0,17,17,14,1,stimuli/objects/weight01.jpg,left,old,158,,,,,,,,
,,,,,,,,19,2021-05-19_15h32.09.691,premceCat2_ses-02_part-02_label-phase2,2020.2.10,MacIntel,60,,,,,left,1.171315,4,0.309295,left,0.444935,0,0,0,0,1,,,,,,,,,,,,,,,,,
,,,,,,,,19,2021-05-19_15h32.09.691,premceCat2_ses-02_part-02_label-phase2,2020.2.10,MacIntel,60,,,,,,,,,,,,,,,,0,18,18,90,1,stimuli/objects/fishinghook03.jpg,left,old,234,,,,,,,,
,,,,,,,,19,2021-05-19_15h32.09.691,premceCat2_ses-02_part-02_label-phase2,2020.2.10,MacIntel,60,,,,,left,2.819795,4,0.713895,right,0.440635,0,0,0,0,1,,,,,,,,,,,,,,,,,
,,,,,,,,19,2021-05-19_15h32.09.691,premceCat2_ses-02_part-02_label-phase2,2020.2.10,MacIntel,60,,,,,,,,,,,,,,,,0,19,19,29,1,stimuli/objects/slidetray.jpg,left,old,173,,,,,,,,
,,,,,,,,19,2021-05-19_15h32.09.691,premceCat2_ses-02_part-02_label-phase2,2020.2.10,MacIntel,60,,,,,right,1.562175,3,0.308485,,,,,,,,0,20,20,101,1,stimuli/objects/lifejacket.jpg,right,new,245,,,,,,,,
,,,,,,,,19,2021-05-19_15h32.09.691,premceCat2_ses-02_part-02_label-phase2,2020.2.10,MacIntel,60,,,,,left,0.902125,4,1.912035,right,4.47992,0,0,0,0,1,,,,,,,,,,,,,,,,,
,,,,,,,,19,2021-05-19_15h32.09.691,premceCat2_ses-02_part-02_label-phase2,2020.2.10,MacIntel,60,,,,,,,,,,,,,,,,0,21,21,1,1,stimuli/objects/satellitedish01.jpg,left,old,145,,,,,,,,
,,,,,,,,19,2021-05-19_15h32.09.691,premceCat2_ses-02_part-02_label-phase2,2020.2.10,MacIntel,60,,,,,left,0.945795,4,0.372845,left,0.563525,0,0,0,0,1,,,,,,,,,,,,,,,,,
,,,,,,,,19,2021-05-19_15h32.09.691,premceCat2_ses-02_part-02_label-phase2,2020.2.10,MacIntel,60,,,,,,,,,,,,,,,,0,22,22,79,1,stimuli/objects/bikehelmet.jpg,left,old,223,,,,,,,,
,,,,,,,,19,2021-05-19_15h32.09.691,premceCat2_ses-02_part-02_label-phase2,2020.2.10,MacIntel,60,,,,,right,0.92665,3,0.327355,,,,,,,,0,23,23,121,1,stimuli/objects/parachute.jpg,right,new,265,,,,,,,,
,,,,,,,,19,2021-05-19_15h32.09.691,premceCat2_ses-02_part-02_label-phase2,2020.2.10,MacIntel,60,,,,,left,1.81532,3,0.284575,left,0.520705,0,0,0,0,1,,,,,,,,,,,,,,,,,
,,,,,,,,19,2021-05-19_15h32.09.691,premceCat2_ses-02_part-02_label-phase2,2020.2.10,MacIntel,60,,,,,,,,,,,,,,,,0,24,24,124,1,stimuli/objects/basketball01.jpg,right,new,268,,,,,,,,
,,,,,,,,19,2021-05-19_15h32.09.691,premceCat2_ses-02_part-02_label-phase2,2020.2.10,MacIntel,60,,,,,right,0.74905,3,0.373135,,,,,,,,0,25,25,6,1,stimuli/objects/solderingwire.jpg,right,new,150,,,,,,,,
,,,,,,,,19,2021-05-19_15h32.09.691,premceCat2_ses-02_part-02_label-phase2,2020.2.10,MacIntel,60,,,,,right,1.28352,3,0.290955,,,,,,,,0,26,26,16,1,stimuli/objects/bottleopener01.jpg,right,new,160,,,,,,,,
,,,,,,,,19,2021-05-19_15h32.09.691,premceCat2_ses-02_part-02_label-phase2,2020.2.10,MacIntel,60,,,,,right,0.77934,2,2.151125,,,,,,,,0,27,27,141,1,stimuli/objects/waterbottle03.jpg,left,old,285,,,,,,,,
,,,,,,,,19,2021-05-19_15h32.09.691,premceCat2_ses-02_part-02_label-phase2,2020.2.10,MacIntel,60,,,,,left,1.047995,4,0.264575,left,0.58914,0,0,0,0,1,,,,,,,,,,,,,,,,,
,,,,,,,,19,2021-05-19_15h32.09.691,premceCat2_ses-02_part-02_label-phase2,2020.2.10,MacIntel,60,,,,,,,,,,,,,,,,0,28,28,50,1,stimuli/objects/boatmotor.jpg,left,old,194,,,,,,,,
,,,,,,,,19,2021-05-19_15h32.09.691,premceCat2_ses-02_part-02_label-phase2,2020.2.10,MacIntel,60,,,,,right,0.83152,3,0.78711,,,,,,,,0,29,29,86,1,stimuli/objects/trampoline.jpg,right,new,230,,,,,,,,
,,,,,,,,19,2021-05-19_15h32.09.691,premceCat2_ses-02_part-02_label-phase2,2020.2.10,MacIntel,60,,,,,left,0.92467,4,0.506975,right,0.426445,0,0,0,0,1,,,,,,,,,,,,,,,,,
,,,,,,,,19,2021-05-19_15h32.09.691,premceCat2_ses-02_part-02_label-phase2,2020.2.10,MacIntel,60,,,,,,,,,,,,,,,,0,30,30,104,1,stimuli/objects/securitycamera.jpg,left,old,248,,,,,,,,
,,,,,,,,19,2021-05-19_15h32.09.691,premceCat2_ses-02_part-02_label-phase2,2020.2.10,MacIntel,60,,,,,left,1.259315,3,0.22434,left,0.398905,0,0,0,0,1,,,,,,,,,,,,,,,,,
,,,,,,,,19,2021-05-19_15h32.09.691,premceCat2_ses-02_part-02_label-phase2,2020.2.10,MacIntel,60,,,,,,,,,,,,,,,,0,31,31,117,1,stimuli/objects/snowboard.jpg,left,old,261,,,,,,,,
,,,,,,,,19,2021-05-19_15h32.09.691,premceCat2_ses-02_part-02_label-phase2,2020.2.10,MacIntel,60,,,,,left,1.136115,3,0.291475,left,0.39529,0,0,0,0,1,,,,,,,,,,,,,,,,,
,,,,,,,,19,2021-05-19_15h32.09.691,premceCat2_ses-02_part-02_label-phase2,2020.2.10,MacIntel,60,,,,,,,,,,,,,,,,0,32,32,17,1,stimuli/objects/baseball01a.jpg,left,old,161,,,,,,,,
,,,,,,,,19,2021-05-19_15h32.09.691,premceCat2_ses-02_part-02_label-phase2,2020.2.10,MacIntel,60,,,,,left,1.37721,3,0.392105,left,0.388895,0,0,0,0,1,,,,,,,,,,,,,,,,,
,,,,,,,,19,2021-05-19_15h32.09.691,premceCat2_ses-02_part-02_label-phase2,2020.2.10,MacIntel,60,,,,,,,,,,,,,,,,0,33,33,136,1,stimuli/objects/skihelmet01.jpg,left,old,280,,,,,,,,
,,,,,,,,19,2021-05-19_15h32.09.691,premceCat2_ses-02_part-02_label-phase2,2020.2.10,MacIntel,60,,,,,right,1.716475,2,0.44897,,,,,,,,0,34,34,102,1,stimuli/objects/beachumbrella01.jpg,right,new,246,,,,,,,,
,,,,,,,,19,2021-05-19_15h32.09.691,premceCat2_ses-02_part-02_label-phase2,2020.2.10,MacIntel,60,,,,,left,1.006415,4,0.374315,right,0.28977,0,0,0,0,1,,,,,,,,,,,,,,,,,
,,,,,,,,19,2021-05-19_15h32.09.691,premceCat2_ses-02_part-02_label-phase2,2020.2.10,MacIntel,60,,,,,,,,,,,,,,,,0,35,35,65,1,stimuli/objects/gastank.jpg,left,old,209,,,,,,,,
,,,,,,,,19,2021-05-19_15h32.09.691,premceCat2_ses-02_part-02_label-phase2,2020.2.10,MacIntel,60,,,,,left,0.89238,4,0.306335,right,0.36067,0,0,0,0,1,,,,,,,,,,,,,,,,,
,,,,,,,,19,2021-05-19_15h32.09.691,premceCat2_ses-02_part-02_label-phase2,2020.2.10,MacIntel,60,,,,,,,,,,,,,,,,0,36,36,93,1,stimuli/objects/lawnmower.jpg,left,old,237,,,,,,,,
,,,,,,,,19,2021-05-19_15h32.09.691,premceCat2_ses-02_part-02_label-phase2,2020.2.10,MacIntel,60,,,,,right,1.430045,3,0.429405,,,,,,,,0,37,37,95,1,stimuli/objects/tennisball01b.jpg,right,new,239,,,,,,,,
,,,,,,,,19,2021-05-19_15h32.09.691,premceCat2_ses-02_part-02_label-phase2,2020.2.10,MacIntel,60,,,,,left,0.82338,4,0.459085,left,0.37162,0,0,0,0,1,,,,,,,,,,,,,,,,,
,,,,,,,,19,2021-05-19_15h32.09.691,premceCat2_ses-02_part-02_label-phase2,2020.2.10,MacIntel,60,,,,,,,,,,,,,,,,0,38,38,77,1,stimuli/objects/bowl02a.jpg,left,old,221,,,,,,,,
,,,,,,,,19,2021-05-19_15h32.09.691,premceCat2_ses-02_part-02_label-phase2,2020.2.10,MacIntel,60,,,,,right,1.938915,3,0.559885,,,,,,,,0,39,39,18,1,stimuli/objects/fanblades.jpg,left,old,162,,,,,,,,
,,,,,,,,19,2021-05-19_15h32.09.691,premceCat2_ses-02_part-02_label-phase2,2020.2.10,MacIntel,60,,,,,left,0.843815,4,0.00091,right,0.378805,0,0,0,0,1,,,,,,,,,,,,,,,,,
,,,,,,,,19,2021-05-19_15h32.09.691,premceCat2_ses-02_part-02_label-phase2,2020.2.10,MacIntel,60,,,,,,,,,,,,,,,,0,40,40,28,1,stimuli/objects/oven.jpg,left,old,172,,,,,,,,
,,,,,,,,19,2021-05-19_15h32.09.691,premceCat2_ses-02_part-02_label-phase2,2020.2.10,MacIntel,60,,,,,left,1.661305,4,0.272535,left,0.33818,0,0,0,0,1,,,,,,,,,,,,,,,,,
,,,,,,,,19,2021-05-19_15h32.09.691,premceCat2_ses-02_part-02_label-phase2,2020.2.10,MacIntel,60,,,,,,,,,,,,,,,,0,41,41,71,1,stimuli/objects/swimgoggles.jpg,left,old,215,,,,,,,,
,,,,,,,,19,2021-05-19_15h32.09.691,premceCat2_ses-02_part-02_label-phase2,2020.2.10,MacIntel,60,,,,,left,1.20079,3,0.81155,left,0.392475,0,0,0,0,1,,,,,,,,,,,,,,,,,
,,,,,,,,19,2021-05-19_15h32.09.691,premceCat2_ses-02_part-02_label-phase2,2020.2.10,MacIntel,60,,,,,,,,,,,,,,,,0,42,42,31,1,stimuli/objects/cooler01.jpg,left,old,175,,,,,,,,
,,,,,,,,19,2021-05-19_15h32.09.691,premceCat2_ses-02_part-02_label-phase2,2020.2.10,MacIntel,60,,,,,left,2.366715,2,0.442155,left,0.62426,0,0,0,0,1,,,,,,,,,,,,,,,,,
,,,,,,,,19,2021-05-19_15h32.09.691,premceCat2_ses-02_part-02_label-phase2,2020.2.10,MacIntel,60,,,,,,,,,,,,,,,,0,43,43,114,1,stimuli/objects/drinkshaker.jpg,right,new,258,,,,,,,,
,,,,,,,,19,2021-05-19_15h32.09.691,premceCat2_ses-02_part-02_label-phase2,2020.2.10,MacIntel,60,,,,,right,1.961975,3,1.12637,,,,,,,,0,44,44,107,1,stimuli/objects/dolly01.jpg,right,new,251,,,,,,,,
,,,,,,,,19,2021-05-19_15h32.09.691,premceCat2_ses-02_part-02_label-phase2,2020.2.10,MacIntel,60,,,,,right,1.473565,3,1.94681,,,,,,,,0,45,45,30,1,stimuli/objects/halogenlightbulb.jpg,right,new,174,,,,,,,,
,,,,,,,,19,2021-05-19_15h32.09.691,premceCat2_ses-02_part-02_label-phase2,2020.2.10,MacIntel,60,,,,,left,1.51977,3,0.699715,left,0.42331,0,0,0,0,1,,,,,,,,,,,,,,,,,
,,,,,,,,19,2021-05-19_15h32.09.691,premceCat2_ses-02_part-02_label-phase2,2020.2.10,MacIntel,60,,,,,,,,,,,,,,,,0,46,46,45,1,stimuli/objects/charcoalbarbecue.jpg,left,old,189,,,,,,,,
,,,,,,,,19,2021-05-19_15h32.09.691,premceCat2_ses-02_part-02_label-phase2,2020.2.10,MacIntel,60,,,,,left,7.518075,3,0.779325,right,1.62644,0,0,0,0,1,,,,,,,,,,,,,,,,,
,,,,,,,,19,2021-05-19_15h32.09.691,premceCat2_ses-02_part-02_label-phase2,2020.2.10,MacIntel,60,,,,,,,,,,,,,,,,0,47,47,13,1,stimuli/objects/gardenshears01a.jpg,left,old,157,,,,,,,,
,,,,,,,,19,2021-05-19_15h32.09.691,premceCat2_ses-02_part-02_label-phase2,2020.2.10,MacIntel,60,,,,,left,0.84069,2,0.87343,right,0.422805,0,0,0,0,1,,,,,,,,,,,,,,,,,
,,,,,,,,19,2021-05-19_15h32.09.691,premceCat2_ses-02_part-02_label-phase2,2020.2.10,MacIntel,60,,,,,,,,,,,,,,,,0,48,48,140,1,stimuli/objects/wineglass01.jpg,right,new,284,,,,,,,,
,,,,,,,,19,2021-05-19_15h32.09.691,premceCat2_ses-02_part-02_label-phase2,2020.2.10,MacIntel,60,,,,,left,0.83092,4,0.292055,left,0.4427,0,0,0,0,1,,,,,,,,,,,,,,,,,
,,,,,,,,19,2021-05-19_15h32.09.691,premceCat2_ses-02_part-02_label-phase2,2020.2.10,MacIntel,60,,,,,,,,,,,,,,,,0,49,49,128,1,stimuli/objects/hourglass.jpg,left,old,272,,,,,,,,
,,,,,,,,19,2021-05-19_15h32.09.691,premceCat2_ses-02_part-02_label-phase2,2020.2.10,MacIntel,60,,,,,right,1.431175,2,0.278945,,,,,,,,0,50,50,122,1,stimuli/objects/hockeystick.jpg,right,new,266,,,,,,,,
,,,,,,,,19,2021-05-19_15h32.09.691,premceCat2_ses-02_part-02_label-phase2,2020.2.10,MacIntel,60,,,,,left,0.759815,3,0.890825,right,0.41688,0,0,0,0,1,,,,,,,,,,,,,,,,,
,,,,,,,,19,2021-05-19_15h32.09.691,premceCat2_ses-02_part-02_label-phase2,2020.2.10,MacIntel,60,,,,,,,,,,,,,,,,0,51,51,54,1,stimuli/objects/ladder.jpg,left,old,198,,,,,,,,
,,,,,,,,19,2021-05-19_15h32.09.691,premceCat2_ses-02_part-02_label-phase2,2020.2.10,MacIntel,60,,,,,right,1.14611,2,0.41072,,,,,,,,0,52,52,85,1,stimuli/objects/lamp04a.jpg,left,old,229,,,,,,,,
,,,,,,,,19,2021-05-19_15h32.09.691,premceCat2_ses-02_part-02_label-phase2,2020.2.10,MacIntel,60,,,,,left,1.35271,3,0.326555,right,0.461895,0,0,0,0,1,,,,,,,,,,,,,,,,,
,,,,,,,,19,2021-05-19_15h32.09.691,premceCat2_ses-02_part-02_label-phase2,2020.2.10,MacIntel,60,,,,,,,,,,,,,,,,0,53,53,67,1,stimuli/objects/desktopcomputer.jpg,left,old,211,,,,,,,,
,,,,,,,,19,2021-05-19_15h32.09.691,premceCat2_ses-02_part-02_label-phase2,2020.2.10,MacIntel,60,,,,,left,0.84672,4,0.344265,left,1.24519,0,0,0,0,1,,,,,,,,,,,,,,,,,
,,,,,,,,19,2021-05-19_15h32.09.691,premceCat2_ses-02_part-02_label-phase2,2020.2.10,MacIntel,60,,,,,,,,,,,,,,,,0,54,54,112,1,stimuli/objects/wire.jpg,left,old,256,,,,,,,,
,,,,,,,,19,2021-05-19_15h32.09.691,premceCat2_ses-02_part-02_label-phase2,2020.2.10,MacIntel,60,,,,,right,0.94884,4,0.72442,,,,,,,,0,55,55,15,1,stimuli/objects/computermouse06.jpg,right,new,159,,,,,,,,
,,,,,,,,19,2021-05-19_15h32.09.691,premceCat2_ses-02_part-02_label-phase2,2020.2.10,MacIntel,60,,,,,right,0.98021,3,0.2907,,,,,,,,0,56,56,83,1,stimuli/objects/icecubetray01a.jpg,right,new,227,,,,,,,,
,,,,,,,,19,2021-05-19_15h32.09.691,premceCat2_ses-02_part-02_label-phase2,2020.2.10,MacIntel,60,,,,,left,0.87707,3,0.42522,right,0.306805,0,0,0,0,1,,,,,,,,,,,,,,,,,
,,,,,,,,19,2021-05-19_15h32.09.691,premceCat2_ses-02_part-02_label-phase2,2020.2.10,MacIntel,60,,,,,,,,,,,,,,,,0,57,57,106,1,stimuli/objects/phonejack.jpg,left,old,250,,,,,,,,
,,,,,,,,19,2021-05-19_15h32.09.691,premceCat2_ses-02_part-02_label-phase2,2020.2.10,MacIntel,60,,,,,right,1.3343,3,0.29203,,,,,,,,0,58,58,138,1,stimuli/objects/beermug01a.jpg,right,new,282,,,,,,,,
,,,,,,,,19,2021-05-19_15h32.09.691,premceCat2_ses-02_part-02_label-phase2,2020.2.10,MacIntel,60,,,,,right,1.17996,4,0.39689,,,,,,,,0,59,59,44,1,stimuli/objects/toaster01.jpg,right,new,188,,,,,,,,
,,,,,,,,19,2021-05-19_15h32.09.691,premceCat2_ses-02_part-02_label-phase2,2020.2.10,MacIntel,60,,,,,right,0.97796,4,0.37885,,,,,,,,0,60,60,98,1,stimuli/objects/cameracase01a.jpg,right,new,242,,,,,,,,
,,,,,,,,19,2021-05-19_15h32.09.691,premceCat2_ses-02_part-02_label-phase2,2020.2.10,MacIntel,60,,,,,right,8.67014,2,0.53403,,,,,,,,0,61,61,113,1,stimuli/objects/sewingmachine01a.jpg,left,old,257,,,,,,,,
,,,,,,,,19,2021-05-19_15h32.09.691,premceCat2_ses-02_part-02_label-phase2,2020.2.10,MacIntel,60,,,,,right,2.370575,2,0.02697,,,,,,,,0,62,62,116,1,stimuli/objects/lockingplier.jpg,right,new,260,,,,,,,,
,,,,,,,,19,2021-05-19_15h32.09.691,premceCat2_ses-02_part-02_label-phase2,2020.2.10,MacIntel,60,,,,,left,0.9332,3,0.18826,right,0.492325,0,0,0,0,1,,,,,,,,,,,,,,,,,
,,,,,,,,19,2021-05-19_15h32.09.691,premceCat2_ses-02_part-02_label-phase2,2020.2.10,MacIntel,60,,,,,,,,,,,,,,,,0,63,63,92,1,stimuli/objects/axe01.jpg,left,old,236,,,,,,,,
,,,,,,,,19,2021-05-19_15h32.09.691,premceCat2_ses-02_part-02_label-phase2,2020.2.10,MacIntel,60,,,,,right,1.67998,3,0.3756,,,,,,,,0,64,64,108,1,stimuli/objects/outletadapter.jpg,left,old,252,,,,,,,,
,,,,,,,,19,2021-05-19_15h32.09.691,premceCat2_ses-02_part-02_label-phase2,2020.2.10,MacIntel,60,,,,,right,1.680765,3,0.257245,,,,,,,,0,65,65,80,1,stimuli/objects/barbecue03.jpg,right,new,224,,,,,,,,
,,,,,,,,19,2021-05-19_15h32.09.691,premceCat2_ses-02_part-02_label-phase2,2020.2.10,MacIntel,60,,,,,left,0.777855,4,0.000515,left,0.33872,0,0,0,0,1,,,,,,,,,,,,,,,,,
,,,,,,,,19,2021-05-19_15h32.09.691,premceCat2_ses-02_part-02_label-phase2,2020.2.10,MacIntel,60,,,,,,,,,,,,,,,,0,66,66,38,1,stimuli/objects/contactlens.jpg,left,old,182,,,,,,,,
,,,,,,,,19,2021-05-19_15h32.09.691,premceCat2_ses-02_part-02_label-phase2,2020.2.10,MacIntel,60,,,,,right,1.081655,3,0.162815,,,,,,,,0,67,67,131,1,stimuli/objects/handblender.jpg,right,new,275,,,,,,,,
,,,,,,,,19,2021-05-19_15h32.09.691,premceCat2_ses-02_part-02_label-phase2,2020.2.10,MacIntel,60,,,,,left,0.831245,4,0.261415,right,0.907155,0,0,0,0,1,,,,,,,,,,,,,,,,,
,,,,,,,,19,2021-05-19_15h32.09.691,premceCat2_ses-02_part-02_label-phase2,2020.2.10,MacIntel,60,,,,,,,,,,,,,,,,0,68,68,72,1,stimuli/objects/paintroller01.jpg,left,old,216,,,,,,,,
,,,,,,,,19,2021-05-19_15h32.09.691,premceCat2_ses-02_part-02_label-phase2,2020.2.10,MacIntel,60,,,,,right,0.944075,4,0.039465,,,,,,,,0,69,69,39,1,stimuli/objects/wafflemaker.jpg,right,new,183,,,,,,,,
,,,,,,,,19,2021-05-19_15h32.09.691,premceCat2_ses-02_part-02_label-phase2,2020.2.10,MacIntel,60,,,,,right,1.1622,4,0.247015,,,,,,,,0,70,70,9,1,stimuli/objects/alarmsystem.jpg,right,new,153,,,,,,,,
,,,,,,,,19,2021-05-19_15h32.09.691,premceCat2_ses-02_part-02_label-phase2,2020.2.10,MacIntel,60,,,,,left,1.13681,4,0.50895,right,1.79248,0,0,0,0,1,,,,,,,,,,,,,,,,,
,,,,,,,,19,2021-05-19_15h32.09.691,premceCat2_ses-02_part-02_label-phase2,2020.2.10,MacIntel,60,,,,,,,,,,,,,,,,0,71,71,97,1,stimuli/objects/peeler01.jpg,left,old,241,,,,,,,,
,,,,,,,,19,2021-05-19_15h32.09.691,premceCat2_ses-02_part-02_label-phase2,2020.2.10,MacIntel,60,,,,,right,1.128615,2,0.258465,,,,,,,,0,72,72,142,1,stimuli/objects/needlenosepliers01.jpg,right,new,286,,,,,,,,
,,,,,,,,19,2021-05-19_15h32.09.691,premceCat2_ses-02_part-02_label-phase2,2020.2.10,MacIntel,60,,,,,right,1.326945,3,0.42269,,,,,,,,0,73,73,46,1,stimuli/objects/waterbottleholder.jpg,right,new,190,,,,,,,,
,,,,,,,,19,2021-05-19_15h32.09.691,premceCat2_ses-02_part-02_label-phase2,2020.2.10,MacIntel,60,,,,,left,0.919115,3,0.52511,right,0.288745,0,0,0,0,1,,,,,,,,,,,,,,,,,
,,,,,,,,19,2021-05-19_15h32.09.691,premceCat2_ses-02_part-02_label-phase2,2020.2.10,MacIntel,60,,,,,,,,,,,,,,,,0,74,74,37,1,stimuli/objects/expansioncard.jpg,left,old,181,,,,,,,,
,,,,,,,,19,2021-05-19_15h32.09.691,premceCat2_ses-02_part-02_label-phase2,2020.2.10,MacIntel,60,,,,,left,1.19939,3,1.42861,right,0.830785,0,0,0,0,1,,,,,,,,,,,,,,,,,
,,,,,,,,19,2021-05-19_15h32.09.691,premceCat2_ses-02_part-02_label-phase2,2020.2.10,MacIntel,60,,,,,,,,,,,,,,,,0,75,75,43,1,stimuli/objects/bowrake.jpg,right,new,187,,,,,,,,
,,,,,,,,19,2021-05-19_15h32.09.691,premceCat2_ses-02_part-02_label-phase2,2020.2.10,MacIntel,60,,,,,right,1.06967,3,0.2745,,,,,,,,0,76,76,40,1,stimuli/objects/tablesaw.jpg,right,new,184,,,,,,,,
,,,,,,,,19,2021-05-19_15h32.09.691,premceCat2_ses-02_part-02_label-phase2,2020.2.10,MacIntel,60,,,,,left,0.831345,2,0.443515,left,0.335295,0,0,0,0,1,,,,,,,,,,,,,,,,,
,,,,,,,,19,2021-05-19_15h32.09.691,premceCat2_ses-02_part-02_label-phase2,2020.2.10,MacIntel,60,,,,,,,,,,,,,,,,0,77,77,68,1,stimuli/objects/ladle02a.jpg,right,new,212,,,,,,,,
,,,,,,,,19,2021-05-19_15h32.09.691,premceCat2_ses-02_part-02_label-phase2,2020.2.10,MacIntel,60,,,,,right,1.53635,2,0.25656,,,,,,,,0,78,78,34,1,stimuli/objects/kneepad01c.jpg,right,new,178,,,,,,,,
,,,,,,,,19,2021-05-19_15h32.09.691,premceCat2_ses-02_part-02_label-phase2,2020.2.10,MacIntel,60,,,,,right,0.92031,3,0.33129,,,,,,,,0,79,79,111,1,stimuli/objects/diaperbag.jpg,right,new,255,,,,,,,,
,,,,,,,,19,2021-05-19_15h32.09.691,premceCat2_ses-02_part-02_label-phase2,2020.2.10,MacIntel,60,,,,,right,0.91556,2,0.406945,,,,,,,,0,80,80,55,1,stimuli/objects/fonduefork01.jpg,right,new,199,,,,,,,,
,,,,,,,,19,2021-05-19_15h32.09.691,premceCat2_ses-02_part-02_label-phase2,2020.2.10,MacIntel,60,,,,,left,0.947845,4,0.49123,left,0.34513,0,0,0,0,1,,,,,,,,,,,,,,,,,
,,,,,,,,19,2021-05-19_15h32.09.691,premceCat2_ses-02_part-02_label-phase2,2020.2.10,MacIntel,60,,,,,,,,,,,,,,,,0,81,81,23,1,stimuli/objects/surfboard.jpg,left,old,167,,,,,,,,
,,,,,,,,19,2021-05-19_15h32.09.691,premceCat2_ses-02_part-02_label-phase2,2020.2.10,MacIntel,60,,,,,right,1.05019,3,0.231445,,,,,,,,0,82,82,5,1,stimuli/objects/pickaxe02.jpg,right,new,149,,,,,,,,
,,,,,,,,19,2021-05-19_15h32.09.691,premceCat2_ses-02_part-02_label-phase2,2020.2.10,MacIntel,60,,,,,left,1.05022,3,0.29373,right,0.26534,0,0,0,0,1,,,,,,,,,,,,,,,,,
,,,,,,,,19,2021-05-19_15h32.09.691,premceCat2_ses-02_part-02_label-phase2,2020.2.10,MacIntel,60,,,,,,,,,,,,,,,,0,83,83,21,1,stimuli/objects/gluetube.jpg,left,old,165,,,,,,,,
,,,,,,,,19,2021-05-19_15h32.09.691,premceCat2_ses-02_part-02_label-phase2,2020.2.10,MacIntel,60,,,,,left,1.36186,2,0.094095,right,0.22053,0,0,0,0,1,,,,,,,,,,,,,,,,,
,,,,,,,,19,2021-05-19_15h32.09.691,premceCat2_ses-02_part-02_label-phase2,2020.2.10,MacIntel,60,,,,,,,,,,,,,,,,0,84,84,109,1,stimuli/objects/saladspinner.jpg,left,old,253,,,,,,,,
,,,,,,,,19,2021-05-19_15h32.09.691,premceCat2_ses-02_part-02_label-phase2,2020.2.10,MacIntel,60,,,,,right,1.18007,2,0.37854,,,,,,,,0,85,85,47,1,stimuli/objects/plate01b.jpg,right,new,191,,,,,,,,
,,,,,,,,19,2021-05-19_15h32.09.691,premceCat2_ses-02_part-02_label-phase2,2020.2.10,MacIntel,60,,,,,left,0.781235,3,0.23982,left,0.25912,0,0,0,0,1,,,,,,,,,,,,,,,,,
,,,,,,,,19,2021-05-19_15h32.09.691,premceCat2_ses-02_part-02_label-phase2,2020.2.10,MacIntel,60,,,,,,,,,,,,,,,,0,86,86,89,1,stimuli/objects/rollingpin01a.jpg,left,old,233,,,,,,,,
,,,,,,,,19,2021-05-19_15h32.09.691,premceCat2_ses-02_part-02_label-phase2,2020.2.10,MacIntel,60,,,,,right,1.19797,3,0.49172,,,,,,,,0,87,87,41,1,stimuli/objects/flask.jpg,right,new,185,,,,,,,,
,,,,,,,,19,2021-05-19_15h32.09.691,premceCat2_ses-02_part-02_label-phase2,2020.2.10,MacIntel,60,,,,,left,1.616815,2,0.32581,right,0.25259,0,0,0,0,1,,,,,,,,,,,,,,,,,
,,,,,,,,19,2021-05-19_15h32.09.691,premceCat2_ses-02_part-02_label-phase2,2020.2.10,MacIntel,60,,,,,,,,,,,,,,,,0,88,88,10,1,stimuli/objects/sportbag.jpg,left,old,154,,,,,,,,
,,,,,,,,19,2021-05-19_15h32.09.691,premceCat2_ses-02_part-02_label-phase2,2020.2.10,MacIntel,60,,,,,left,1.331775,3,0.507055,right,0.694565,0,0,0,0,1,,,,,,,,,,,,,,,,,
,,,,,,,,19,2021-05-19_15h32.09.691,premceCat2_ses-02_part-02_label-phase2,2020.2.10,MacIntel,60,,,,,,,,,,,,,,,,0,89,89,4,1,stimuli/objects/cassettetape01a.jpg,right,new,148,,,,,,,,
,,,,,,,,19,2021-05-19_15h32.09.691,premceCat2_ses-02_part-02_label-phase2,2020.2.10,MacIntel,60,,,,,right,3.42992,3,0.42258,,,,,,,,0,90,90,69,1,stimuli/objects/straw.jpg,right,new,213,,,,,,,,
,,,,,,,,19,2021-05-19_15h32.09.691,premceCat2_ses-02_part-02_label-phase2,2020.2.10,MacIntel,60,,,,,right,1.14696,2,0.129755,,,,,,,,0,91,91,51,1,stimuli/objects/cheeseknife01.jpg,right,new,195,,,,,,,,
,,,,,,,,19,2021-05-19_15h32.09.691,premceCat2_ses-02_part-02_label-phase2,2020.2.10,MacIntel,60,,,,,left,0.765365,4,0.25871,left,0.269515,0,0,0,0,1,,,,,,,,,,,,,,,,,
,,,,,,,,19,2021-05-19_15h32.09.691,premceCat2_ses-02_part-02_label-phase2,2020.2.10,MacIntel,60,,,,,,,,,,,,,,,,0,92,92,126,1,stimuli/objects/bikewheel.jpg,left,old,270,,,,,,,,
,,,,,,,,19,2021-05-19_15h32.09.691,premceCat2_ses-02_part-02_label-phase2,2020.2.10,MacIntel,60,,,,,left,2.287645,2,0.30636,right,0.313205,0,0,0,0,1,,,,,,,,,,,,,,,,,
,,,,,,,,19,2021-05-19_15h32.09.691,premceCat2_ses-02_part-02_label-phase2,2020.2.10,MacIntel,60,,,,,,,,,,,,,,,,0,93,93,96,1,stimuli/objects/boltcutter.jpg,left,old,240,,,,,,,,
,,,,,,,,19,2021-05-19_15h32.09.691,premceCat2_ses-02_part-02_label-phase2,2020.2.10,MacIntel,60,,,,,left,1.3691,3,0.596215,right,1.17596,0,0,0,0,1,,,,,,,,,,,,,,,,,
,,,,,,,,19,2021-05-19_15h32.09.691,premceCat2_ses-02_part-02_label-phase2,2020.2.10,MacIntel,60,,,,,,,,,,,,,,,,0,94,94,115,1,stimuli/objects/toothpick02.jpg,left,old,259,,,,,,,,
,,,,,,,,19,2021-05-19_15h32.09.691,premceCat2_ses-02_part-02_label-phase2,2020.2.10,MacIntel,60,,,,,left,3.953205,3,0.442425,left,0.2754,0,0,0,0,1,,,,,,,,,,,,,,,,,
,,,,,,,,19,2021-05-19_15h32.09.691,premceCat2_ses-02_part-02_label-phase2,2020.2.10,MacIntel,60,,,,,,,,,,,,,,,,0,95,95,84,1,stimuli/objects/hockeygoalieglove.jpg,left,old,228,,,,,,,,
,,,,,,,,19,2021-05-19_15h32.09.691,premceCat2_ses-02_part-02_label-phase2,2020.2.10,MacIntel,60,,,,,left,1.496255,4,0.99713,left,0.55667,0,0,0,0,1,,,,,,,,,,,,,,,,,
,,,,,,,,19,2021-05-19_15h32.09.691,premceCat2_ses-02_part-02_label-phase2,2020.2.10,MacIntel,60,,,,,,,,,,,,,,,,0,96,96,42,1,stimuli/objects/tennisracket.jpg,right,new,186,,,,,,,,
,,,,,,,,19,2021-05-19_15h32.09.691,premceCat2_ses-02_part-02_label-phase2,2020.2.10,MacIntel,60,,,,,left,0.84457,4,0.122805,right,0.2059,0,0,0,0,1,,,,,,,,,,,,,,,,,
,,,,,,,,19,2021-05-19_15h32.09.691,premceCat2_ses-02_part-02_label-phase2,2020.2.10,MacIntel,60,,,,,,,,,,,,,,,,0,97,97,22,1,stimuli/objects/aircompressor.jpg,left,old,166,,,,,,,,
,,,,,,,,19,2021-05-19_15h32.09.691,premceCat2_ses-02_part-02_label-phase2,2020.2.10,MacIntel,60,,,,,right,0.83548,3,0.104865,,,,,,,,0,98,98,82,1,stimuli/objects/shopvac.jpg,right,new,226,,,,,,,,
,,,,,,,,19,2021-05-19_15h32.09.691,premceCat2_ses-02_part-02_label-phase2,2020.2.10,MacIntel,60,,,,,right,1.135505,3,0.037335,,,,,,,,0,99,99,123,1,stimuli/objects/jackhammer.jpg,right,new,267,,,,,,,,
,,,,,,,,19,2021-05-19_15h32.09.691,premceCat2_ses-02_part-02_label-phase2,2020.2.10,MacIntel,60,,,,,right,1.01362,4,0.110595,,,,,,,,0,100,100,99,1,stimuli/objects/floodlight.jpg,right,new,243,,,,,,,,
,,,,,,,,19,2021-05-19_15h32.09.691,premceCat2_ses-02_part-02_label-phase2,2020.2.10,MacIntel,60,,,,,right,1.165305,3,0.000455,,,,,,,,0,101,101,49,1,stimuli/objects/cakeplatter.jpg,right,new,193,,,,,,,,
,,,,,,,,19,2021-05-19_15h32.09.691,premceCat2_ses-02_part-02_label-phase2,2020.2.10,MacIntel,60,,,,,right,0.981975,2,0.070385,,,,,,,,0,102,102,118,1,stimuli/objects/caulking.jpg,left,old,262,,,,,,,,
,,,,,,,,19,2021-05-19_15h32.09.691,premceCat2_ses-02_part-02_label-phase2,2020.2.10,MacIntel,60,,,,,right,1.081235,3,0.13841,,,,,,,,0,103,103,81,1,stimuli/objects/grill.jpg,right,new,225,,,,,,,,
,,,,,,,,19,2021-05-19_15h32.09.691,premceCat2_ses-02_part-02_label-phase2,2020.2.10,MacIntel,60,,,,,left,1.947135,2,0.27482,left,0.81404,0,0,0,0,1,,,,,,,,,,,,,,,,,
,,,,,,,,19,2021-05-19_15h32.09.691,premceCat2_ses-02_part-02_label-phase2,2020.2.10,MacIntel,60,,,,,,,,,,,,,,,,0,104,104,0,1,stimuli/objects/smokedetector02.jpg,right,new,144,,,,,,,,
,,,,,,,,19,2021-05-19_15h32.09.691,premceCat2_ses-02_part-02_label-phase2,2020.2.10,MacIntel,60,,,,,right,1.64597,3,0.10689,,,,,,,,0,105,105,60,1,stimuli/objects/kite.jpg,right,new,204,,,,,,,,
,,,,,,,,19,2021-05-19_15h32.09.691,premceCat2_ses-02_part-02_label-phase2,2020.2.10,MacIntel,60,,,,,left,0.844775,4,0.209455,left,0.493195,0,0,0,0,1,,,,,,,,,,,,,,,,,
,,,,,,,,19,2021-05-19_15h32.09.691,premceCat2_ses-02_part-02_label-phase2,2020.2.10,MacIntel,60,,,,,,,,,,,,,,,,0,106,106,130,1,stimuli/objects/ipad02.jpg,left,old,274,,,,,,,,
,,,,,,,,19,2021-05-19_15h32.09.691,premceCat2_ses-02_part-02_label-phase2,2020.2.10,MacIntel,60,,,,,left,1.166155,3,0.24327,right,0.22952,0,0,0,0,1,,,,,,,,,,,,,,,,,
,,,,,,,,19,2021-05-19_15h32.09.691,premceCat2_ses-02_part-02_label-phase2,2020.2.10,MacIntel,60,,,,,,,,,,,,,,,,0,107,107,91,1,stimuli/objects/cuttingpliers02.jpg,right,new,235,,,,,,,,
,,,,,,,,19,2021-05-19_15h32.09.691,premceCat2_ses-02_part-02_label-phase2,2020.2.10,MacIntel,60,,,,,right,1.38537,2,0.000485,,,,,,,,0,108,108,12,1,stimuli/objects/fanheater.jpg,right,new,156,,,,,,,,
,,,,,,,,19,2021-05-19_15h32.09.691,premceCat2_ses-02_part-02_label-phase2,2020.2.10,MacIntel,60,,,,,right,1.20237,4,3.720955,,,,,,,,0,109,109,59,1,stimuli/objects/speedball.jpg,right,new,203,,,,,,,,
,,,,,,,,19,2021-05-19_15h32.09.691,premceCat2_ses-02_part-02_label-phase2,2020.2.10,MacIntel,60,,,,,right,1.330275,3,0.31205,,,,,,,,0,110,110,3,1,stimuli/objects/boxingglove01.jpg,right,new,147,,,,,,,,
,,,,,,,,19,2021-05-19_15h32.09.691,premceCat2_ses-02_part-02_label-phase2,2020.2.10,MacIntel,60,,,,,left,3.06586,1,0.41017,left,0.743355,0,0,0,0,1,,,,,,,,,,,,,,,,,
,,,,,,,,19,2021-05-19_15h32.09.691,premceCat2_ses-02_part-02_label-phase2,2020.2.10,MacIntel,60,,,,,,,,,,,,,,,,0,111,111,33,1,stimuli/objects/scanner.jpg,left,old,177,,,,,,,,
,,,,,,,,19,2021-05-19_15h32.09.691,premceCat2_ses-02_part-02_label-phase2,2020.2.10,MacIntel,60,,,,,right,1.13539,3,0.292,,,,,,,,0,112,112,127,1,stimuli/objects/skigoggles01.jpg,right,new,271,,,,,,,,
,,,,,,,,19,2021-05-19_15h32.09.691,premceCat2_ses-02_part-02_label-phase2,2020.2.10,MacIntel,60,,,,,right,1.59975,4,0.2763,,,,,,,,0,113,113,120,1,stimuli/objects/tent.jpg,right,new,264,,,,,,,,
,,,,,,,,19,2021-05-19_15h32.09.691,premceCat2_ses-02_part-02_label-phase2,2020.2.10,MacIntel,60,,,,,right,0.94585,2,0.343345,,,,,,,,0,114,114,135,1,stimuli/objects/mortarandpestle.jpg,right,new,279,,,,,,,,
,,,,,,,,19,2021-05-19_15h32.09.691,premceCat2_ses-02_part-02_label-phase2,2020.2.10,MacIntel,60,,,,,left,2.132805,3,0.31257,left,0.294955,0,0,0,0,1,,,,,,,,,,,,,,,,,
,,,,,,,,19,2021-05-19_15h32.09.691,premceCat2_ses-02_part-02_label-phase2,2020.2.10,MacIntel,60,,,,,,,,,,,,,,,,0,115,115,64,1,stimuli/objects/exercisemachine.jpg,left,old,208,,,,,,,,
,,,,,,,,19,2021-05-19_15h32.09.691,premceCat2_ses-02_part-02_label-phase2,2020.2.10,MacIntel,60,,,,,left,1.748805,3,0.376915,right,0.276585,0,0,0,0,1,,,,,,,,,,,,,,,,,
,,,,,,,,19,2021-05-19_15h32.09.691,premceCat2_ses-02_part-02_label-phase2,2020.2.10,MacIntel,60,,,,,,,,,,,,,,,,0,116,116,25,1,stimuli/objects/cowbell.jpg,left,old,169,,,,,,,,
,,,,,,,,19,2021-05-19_15h32.09.691,premceCat2_ses-02_part-02_label-phase2,2020.2.10,MacIntel,60,,,,,left,1.23304,4,0.34384,right,0.745505,0,0,0,0,1,,,,,,,,,,,,,,,,,
,,,,,,,,19,2021-05-19_15h32.09.691,premceCat2_ses-02_part-02_label-phase2,2020.2.10,MacIntel,60,,,,,,,,,,,,,,,,0,117,117,75,1,stimuli/objects/painttray.jpg,left,old,219,,,,,,,,
,,,,,,,,19,2021-05-19_15h32.09.691,premceCat2_ses-02_part-02_label-phase2,2020.2.10,MacIntel,60,,,,,left,1.26086,4,0.575335,left,0.49707,0,0,0,0,1,,,,,,,,,,,,,,,,,
,,,,,,,,19,2021-05-19_15h32.09.691,premceCat2_ses-02_part-02_label-phase2,2020.2.10,MacIntel,60,,,,,,,,,,,,,,,,0,118,118,129,1,stimuli/objects/bucket02.jpg,left,old,273,,,,,,,,
,,,,,,,,19,2021-05-19_15h32.09.691,premceCat2_ses-02_part-02_label-phase2,2020.2.10,MacIntel,60,,,,,left,1.78286,4,0.110975,right,0.277105,0,0,0,0,1,,,,,,,,,,,,,,,,,
,,,,,,,,19,2021-05-19_15h32.09.691,premceCat2_ses-02_part-02_label-phase2,2020.2.10,MacIntel,60,,,,,,,,,,,,,,,,0,119,119,53,1,stimuli/objects/staplegun.jpg,left,old,197,,,,,,,,
,,,,,,,,19,2021-05-19_15h32.09.691,premceCat2_ses-02_part-02_label-phase2,2020.2.10,MacIntel,60,,,,,left,1.18194,3,0.460475,right,0.29302,0,0,0,0,1,,,,,,,,,,,,,,,,,
,,,,,,,,19,2021-05-19_15h32.09.691,premceCat2_ses-02_part-02_label-phase2,2020.2.10,MacIntel,60,,,,,,,,,,,,,,,,0,120,120,61,1,stimuli/objects/flooringstapler.jpg,left,old,205,,,,,,,,
,,,,,,,,19,2021-05-19_15h32.09.691,premceCat2_ses-02_part-02_label-phase2,2020.2.10,MacIntel,60,,,,,left,0.76309,4,0.27259,right,0.24882,0,0,0,0,1,,,,,,,,,,,,,,,,,
,,,,,,,,19,2021-05-19_15h32.09.691,premceCat2_ses-02_part-02_label-phase2,2020.2.10,MacIntel,60,,,,,,,,,,,,,,,,0,121,121,100,1,stimuli/objects/setsquare.jpg,left,old,244,,,,,,,,
,,,,,,,,19,2021-05-19_15h32.09.691,premceCat2_ses-02_part-02_label-phase2,2020.2.10,MacIntel,60,,,,,left,1.15499,3,1.199515,right,0.253885,0,0,0,0,1,,,,,,,,,,,,,,,,,
,,,,,,,,19,2021-05-19_15h32.09.691,premceCat2_ses-02_part-02_label-phase2,2020.2.10,MacIntel,60,,,,,,,,,,,,,,,,0,122,122,32,1,stimuli/objects/travelmug.jpg,left,old,176,,,,,,,,
,,,,,,,,19,2021-05-19_15h32.09.691,premceCat2_ses-02_part-02_label-phase2,2020.2.10,MacIntel,60,,,,,left,5.325845,2,0.24596,right,0.40751,0,0,0,0,1,,,,,,,,,,,,,,,,,
,,,,,,,,19,2021-05-19_15h32.09.691,premceCat2_ses-02_part-02_label-phase2,2020.2.10,MacIntel,60,,,,,,,,,,,,,,,,0,123,123,134,1,stimuli/objects/electricoutlet.jpg,left,old,278,,,,,,,,
,,,,,,,,19,2021-05-19_15h32.09.691,premceCat2_ses-02_part-02_label-phase2,2020.2.10,MacIntel,60,,,,,left,1.312955,3,0.39579,left,0.382165,0,0,0,0,1,,,,,,,,,,,,,,,,,
,,,,,,,,19,2021-05-19_15h32.09.691,premceCat2_ses-02_part-02_label-phase2,2020.2.10,MacIntel,60,,,,,,,,,,,,,,,,0,124,124,74,1,stimuli/objects/patioumbrella.jpg,left,old,218,,,,,,,,
,,,,,,,,19,2021-05-19_15h32.09.691,premceCat2_ses-02_part-02_label-phase2,2020.2.10,MacIntel,60,,,,,left,1.009265,2,0.57603,right,0.35789,0,0,0,0,1,,,,,,,,,,,,,,,,,
,,,,,,,,19,2021-05-19_15h32.09.691,premceCat2_ses-02_part-02_label-phase2,2020.2.10,MacIntel,60,,,,,,,,,,,,,,,,0,125,125,11,1,stimuli/objects/airconditioner.jpg,left,old,155,,,,,,,,
,,,,,,,,19,2021-05-19_15h32.09.691,premceCat2_ses-02_part-02_label-phase2,2020.2.10,MacIntel,60,,,,,left,0.83238,4,0.173265,left,0.185945,0,0,0,0,1,,,,,,,,,,,,,,,,,
,,,,,,,,19,2021-05-19_15h32.09.691,premceCat2_ses-02_part-02_label-phase2,2020.2.10,MacIntel,60,,,,,,,,,,,,,,,,0,126,126,110,1,stimuli/objects/fishingrod.jpg,left,old,254,,,,,,,,
,,,,,,,,19,2021-05-19_15h32.09.691,premceCat2_ses-02_part-02_label-phase2,2020.2.10,MacIntel,60,,,,,right,1.228215,3,0.25925,,,,,,,,0,127,127,57,1,stimuli/objects/kiddiepool.jpg,left,old,201,,,,,,,,
,,,,,,,,19,2021-05-19_15h32.09.691,premceCat2_ses-02_part-02_label-phase2,2020.2.10,MacIntel,60,,,,,left,0.77938,4,0.239895,left,0.258295,0,0,0,0,1,,,,,,,,,,,,,,,,,
,,,,,,,,19,2021-05-19_15h32.09.691,premceCat2_ses-02_part-02_label-phase2,2020.2.10,MacIntel,60,,,,,,,,,,,,,,,,0,128,128,20,1,stimuli/objects/treadmill.jpg,left,old,164,,,,,,,,
,,,,,,,,19,2021-05-19_15h32.09.691,premceCat2_ses-02_part-02_label-phase2,2020.2.10,MacIntel,60,,,,,left,8.836185,4,0.55936,right,1.60592,0,0,0,0,1,,,,,,,,,,,,,,,,,
,,,,,,,,19,2021-05-19_15h32.09.691,premceCat2_ses-02_part-02_label-phase2,2020.2.10,MacIntel,60,,,,,,,,,,,,,,,,0,129,129,125,1,stimuli/objects/leafrake.jpg,left,old,269,,,,,,,,
,,,,,,,,19,2021-05-19_15h32.09.691,premceCat2_ses-02_part-02_label-phase2,2020.2.10,MacIntel,60,,,,,right,1.368405,4,0.51062,,,,,,,,0,130,130,87,1,stimuli/objects/wiicontroller.jpg,right,new,231,,,,,,,,
,,,,,,,,19,2021-05-19_15h32.09.691,premceCat2_ses-02_part-02_label-phase2,2020.2.10,MacIntel,60,,,,,right,8.6963,2,0.27653,,,,,,,,0,131,131,24,1,stimuli/objects/monitor.jpg,right,new,168,,,,,,,,
,,,,,,,,19,2021-05-19_15h32.09.691,premceCat2_ses-02_part-02_label-phase2,2020.2.10,MacIntel,60,,,,,right,1.12927,2,0.260345,,,,,,,,0,132,132,103,1,stimuli/objects/swissarmyknife01a.jpg,right,new,247,,,,,,,,
,,,,,,,,19,2021-05-19_15h32.09.691,premceCat2_ses-02_part-02_label-phase2,2020.2.10,MacIntel,60,,,,,right,0.67699,3,0.294545,,,,,,,,0,133,133,137,1,stimuli/objects/nutcracker01.jpg,right,new,281,,,,,,,,
,,,,,,,,19,2021-05-19_15h32.09.691,premceCat2_ses-02_part-02_label-phase2,2020.2.10,MacIntel,60,,,,,right,0.7681,4,0.312175,,,,,,,,0,134,134,26,1,stimuli/objects/flashlight02b.jpg,right,new,170,,,,,,,,
,,,,,,,,19,2021-05-19_15h32.09.691,premceCat2_ses-02_part-02_label-phase2,2020.2.10,MacIntel,60,,,,,right,1.214575,2,0.1083,,,,,,,,0,135,135,58,1,stimuli/objects/skiboot01a.jpg,left,old,202,,,,,,,,
,,,,,,,,19,2021-05-19_15h32.09.691,premceCat2_ses-02_part-02_label-phase2,2020.2.10,MacIntel,60,,,,,right,1.465625,1,0.16019,,,,,,,,0,136,136,70,1,stimuli/objects/shovel01.jpg,right,new,214,,,,,,,,
,,,,,,,,19,2021-05-19_15h32.09.691,premceCat2_ses-02_part-02_label-phase2,2020.2.10,MacIntel,60,,,,,left,0.91112,4,0.072365,right,0.764905,0,0,0,0,1,,,,,,,,,,,,,,,,,
,,,,,,,,19,2021-05-19_15h32.09.691,premceCat2_ses-02_part-02_label-phase2,2020.2.10,MacIntel,60,,,,,,,,,,,,,,,,0,137,137,52,1,stimuli/objects/usbkey.jpg,left,old,196,,,,,,,,
,,,,,,,,19,2021-05-19_15h32.09.691,premceCat2_ses-02_part-02_label-phase2,2020.2.10,MacIntel,60,,,,,left,1.3814,3,0.39512,left,0.273865,0,0,0,0,1,,,,,,,,,,,,,,,,,
,,,,,,,,19,2021-05-19_15h32.09.691,premceCat2_ses-02_part-02_label-phase2,2020.2.10,MacIntel,60,,,,,,,,,,,,,,,,0,138,138,56,1,stimuli/objects/cork02.jpg,left,old,200,,,,,,,,
,,,,,,,,19,2021-05-19_15h32.09.691,premceCat2_ses-02_part-02_label-phase2,2020.2.10,MacIntel,60,,,,,left,3.451975,2,0.092855,left,0.28979,0,0,0,0,1,,,,,,,,,,,,,,,,,
,,,,,,,,19,2021-05-19_15h32.09.691,premceCat2_ses-02_part-02_label-phase2,2020.2.10,MacIntel,60,,,,,,,,,,,,,,,,0,139,139,73,1,stimuli/objects/shinpad.jpg,left,old,217,,,,,,,,
,,,,,,,,19,2021-05-19_15h32.09.691,premceCat2_ses-02_part-02_label-phase2,2020.2.10,MacIntel,60,,,,,left,0.846,4,0.126305,right,1.35805,0,0,0,0,1,,,,,,,,,,,,,,,,,
,,,,,,,,19,2021-05-19_15h32.09.691,premceCat2_ses-02_part-02_label-phase2,2020.2.10,MacIntel,60,,,,,,,,,,,,,,,,0,140,140,7,1,stimuli/objects/bottlecap.jpg,left,old,151,,,,,,,,
,,,,,,,,19,2021-05-19_15h32.09.691,premceCat2_ses-02_part-02_label-phase2,2020.2.10,MacIntel,60,,,,,right,0.97474,4,0.15433,,,,,,,,0,141,141,133,1,stimuli/objects/birdie.jpg,right,new,277,,,,,,,,
,,,,,,,,19,2021-05-19_15h32.09.691,premceCat2_ses-02_part-02_label-phase2,2020.2.10,MacIntel,60,,,,,right,0.861145,4,0.2402,,,,,,,,0,142,142,76,1,stimuli/objects/papershredder.jpg,left,old,220,,,,,,,,
,,,,,,,,19,2021-05-19_15h32.09.691,premceCat2_ses-02_part-02_label-phase2,2020.2.10,MacIntel,60,,,,,,,,,,,,,,,,,,,,,,,,,space,54.79924,0,0,0,1,1,condition_files/ImagesforRecog4_2.csv
,,,,,,,,19,2021-05-19_15h32.09.691,premceCat2_ses-02_part-02_label-phase2,2020.2.10,MacIntel,60,,,,,left,1.54369,4,0.50843,right,0.837495,0,0,0,0,1,,,,,,,,,,,,,,,,,
,,,,,,,,19,2021-05-19_15h32.09.691,premceCat2_ses-02_part-02_label-phase2,2020.2.10,MacIntel,60,,,,,,,,,,,,,,,,0,0,0,135,1,stimuli/objects/pressurewasher.jpg,left,old,136,,,,,,,,
,,,,,,,,19,2021-05-19_15h32.09.691,premceCat2_ses-02_part-02_label-phase2,2020.2.10,MacIntel,60,,,,,right,1.19521,2,0.159315,,,,,,,,0,1,1,46,1,stimuli/objects/walkman.jpg,right,new,47,,,,,,,,
,,,,,,,,19,2021-05-19_15h32.09.691,premceCat2_ses-02_part-02_label-phase2,2020.2.10,MacIntel,60,,,,,right,1.16217,2,0.15775,,,,,,,,0,2,2,66,1,stimuli/objects/nailgun.jpg,right,new,67,,,,,,,,
,,,,,,,,19,2021-05-19_15h32.09.691,premceCat2_ses-02_part-02_label-phase2,2020.2.10,MacIntel,60,,,,,left,0.74394,4,0.093675,right,2.44385,0,0,0,0,1,,,,,,,,,,,,,,,,,
,,,,,,,,19,2021-05-19_15h32.09.691,premceCat2_ses-02_part-02_label-phase2,2020.2.10,MacIntel,60,,,,,,,,,,,,,,,,0,3,3,29,1,stimuli/objects/computerkeyboard02.jpg,left,old,30,,,,,,,,
,,,,,,,,19,2021-05-19_15h32.09.691,premceCat2_ses-02_part-02_label-phase2,2020.2.10,MacIntel,60,,,,,left,1.16434,3,0.28791,left,0.197185,0,0,0,0,1,,,,,,,,,,,,,,,,,
,,,,,,,,19,2021-05-19_15h32.09.691,premceCat2_ses-02_part-02_label-phase2,2020.2.10,MacIntel,60,,,,,,,,,,,,,,,,0,4,4,84,1,stimuli/objects/hockeypuck.jpg,left,old,85,,,,,,,,
,,,,,,,,19,2021-05-19_15h32.09.691,premceCat2_ses-02_part-02_label-phase2,2020.2.10,MacIntel,60,,,,,right,1.086525,4,0.00707,,,,,,,,0,5,5,51,1,stimuli/objects/webcam.jpg,right,new,52,,,,,,,,
,,,,,,,,19,2021-05-19_15h32.09.691,premceCat2_ses-02_part-02_label-phase2,2020.2.10,MacIntel,60,,,,,left,0.91171,4,0.156965,right,0.1475,0,0,0,0,1,,,,,,,,,,,,,,,,,
,,,,,,,,19,2021-05-19_15h32.09.691,premceCat2_ses-02_part-02_label-phase2,2020.2.10,MacIntel,60,,,,,,,,,,,,,,,,0,6,6,61,1,stimuli/objects/metalbrush.jpg,left,old,62,,,,,,,,
,,,,,,,,19,2021-05-19_15h32.09.691,premceCat2_ses-02_part-02_label-phase2,2020.2.10,MacIntel,60,,,,,right,2.097805,3,0.925055,,,,,,,,0,7,7,33,1,stimuli/objects/microwave.jpg,right,new,34,,,,,,,,
,,,,,,,,19,2021-05-19_15h32.09.691,premceCat2_ses-02_part-02_label-phase2,2020.2.10,MacIntel,60,,,,,right,1.062945,2,0.310465,,,,,,,,0,8,8,134,1,stimuli/objects/screwdriver04b.jpg,right,new,135,,,,,,,,
,,,,,,,,19,2021-05-19_15h32.09.691,premceCat2_ses-02_part-02_label-phase2,2020.2.10,MacIntel,60,,,,,left,0.731375,3,0.24188,right,0.538825,0,0,0,0,1,,,,,,,,,,,,,,,,,
,,,,,,,,19,2021-05-19_15h32.09.691,premceCat2_ses-02_part-02_label-phase2,2020.2.10,MacIntel,60,,,,,,,,,,,,,,,,0,9,9,14,1,stimuli/objects/wheelbarrow01.jpg,left,old,15,,,,,,,,
,,,,,,,,19,2021-05-19_15h32.09.691,premceCat2_ses-02_part-02_label-phase2,2020.2.10,MacIntel,60,,,,,right,1.694905,3,0.34962,,,,,,,,0,10,10,88,1,stimuli/objects/measuringcup01.jpg,left,old,89,,,,,,,,
,,,,,,,,19,2021-05-19_15h32.09.691,premceCat2_ses-02_part-02_label-phase2,2020.2.10,MacIntel,60,,,,,right,0.9781,3,0.61033,,,,,,,,0,11,11,106,1,stimuli/objects/minifridge.jpg,right,new,107,,,,,,,,
,,,,,,,,19,2021-05-19_15h32.09.691,premceCat2_ses-02_part-02_label-phase2,2020.2.10,MacIntel,60,,,,,left,1.22973,2,0.261985,left,0.24058,0,0,0,0,1,,,,,,,,,,,,,,,,,
,,,,,,,,19,2021-05-19_15h32.09.691,premceCat2_ses-02_part-02_label-phase2,2020.2.10,MacIntel,60,,,,,,,,,,,,,,,,0,12,12,71,1,stimuli/objects/faxmachine.jpg,right,new,72,,,,,,,,
,,,,,,,,19,2021-05-19_15h32.09.691,premceCat2_ses-02_part-02_label-phase2,2020.2.10,MacIntel,60,,,,,right,2.351125,4,0.53924,,,,,,,,0,13,13,22,1,stimuli/objects/umbrella04.jpg,right,new,23,,,,,,,,
,,,,,,,,19,2021-05-19_15h32.09.691,premceCat2_ses-02_part-02_label-phase2,2020.2.10,MacIntel,60,,,,,right,0.880465,4,0.3088,,,,,,,,0,14,14,68,1,stimuli/objects/leafblower01.jpg,right,new,69,,,,,,,,
,,,,,,,,19,2021-05-19_15h32.09.691,premceCat2_ses-02_part-02_label-phase2,2020.2.10,MacIntel,60,,,,,left,1.02946,2,0.594675,right,0.262095,0,0,0,0,1,,,,,,,,,,,,,,,,,
,,,,,,,,19,2021-05-19_15h32.09.691,premceCat2_ses-02_part-02_label-phase2,2020.2.10,MacIntel,60,,,,,,,,,,,,,,,,0,15,15,118,1,stimuli/objects/sledgehammer.jpg,left,old,119,,,,,,,,
,,,,,,,,19,2021-05-19_15h32.09.691,premceCat2_ses-02_part-02_label-phase2,2020.2.10,MacIntel,60,,,,,right,1.099455,2,0.347235,,,,,,,,0,16,16,64,1,stimuli/objects/knifesharpener.jpg,left,old,65,,,,,,,,
,,,,,,,,19,2021-05-19_15h32.09.691,premceCat2_ses-02_part-02_label-phase2,2020.2.10,MacIntel,60,,,,,right,0.995225,4,0.316255,,,,,,,,0,17,17,108,1,stimuli/objects/metalscissors.jpg,right,new,109,,,,,,,,
,,,,,,,,19,2021-05-19_15h32.09.691,premceCat2_ses-02_part-02_label-phase2,2020.2.10,MacIntel,60,,,,,right,5.3938,3,1.014125,,,,,,,,0,18,18,28,1,stimuli/objects/anchor.jpg,left,old,29,,,,,,,,
,,,,,,,,19,2021-05-19_15h32.09.691,premceCat2_ses-02_part-02_label-phase2,2020.2.10,MacIntel,60,,,,,right,0.89425,3,0.37516,,,,,,,,0,19,19,8,1,stimuli/objects/basketballhoop01.jpg,right,new,9,,,,,,,,
,,,,,,,,19,2021-05-19_15h32.09.691,premceCat2_ses-02_part-02_label-phase2,2020.2.10,MacIntel,60,,,,,left,1.869175,3,0.261155,right,1.621585,0,0,0,0,1,,,,,,,,,,,,,,,,,
,,,,,,,,19,2021-05-19_15h32.09.691,premceCat2_ses-02_part-02_label-phase2,2020.2.10,MacIntel,60,,,,,,,,,,,,,,,,0,20,20,16,1,stimuli/objects/stubbywrench01a.jpg,left,old,17,,,,,,,,
,,,,,,,,19,2021-05-19_15h32.09.691,premceCat2_ses-02_part-02_label-phase2,2020.2.10,MacIntel,60,,,,,right,1.61238,3,0.32207,,,,,,,,0,21,21,55,1,stimuli/objects/toolbox02.jpg,right,new,56,,,,,,,,
,,,,,,,,19,2021-05-19_15h32.09.691,premceCat2_ses-02_part-02_label-phase2,2020.2.10,MacIntel,60,,,,,left,0.95951,3,0.309605,right,0.27044,0,0,0,0,1,,,,,,,,,,,,,,,,,
,,,,,,,,19,2021-05-19_15h32.09.691,premceCat2_ses-02_part-02_label-phase2,2020.2.10,MacIntel,60,,,,,,,,,,,,,,,,0,22,22,89,1,stimuli/objects/ducttape.jpg,right,new,90,,,,,,,,
,,,,,,,,19,2021-05-19_15h32.09.691,premceCat2_ses-02_part-02_label-phase2,2020.2.10,MacIntel,60,,,,,right,1.654725,2,0.348525,,,,,,,,0,23,23,25,1,stimuli/objects/bowlingball.jpg,right,new,26,,,,,,,,
,,,,,,,,19,2021-05-19_15h32.09.691,premceCat2_ses-02_part-02_label-phase2,2020.2.10,MacIntel,60,,,,,right,1.014175,3,0.278135,,,,,,,,0,24,24,12,1,stimuli/objects/garlicpress02a.jpg,right,new,13,,,,,,,,
,,,,,,,,19,2021-05-19_15h32.09.691,premceCat2_ses-02_part-02_label-phase2,2020.2.10,MacIntel,60,,,,,right,0.728395,3,0.342245,,,,,,,,0,25,25,92,1,stimuli/objects/carjack.jpg,right,new,93,,,,,,,,
,,,,,,,,19,2021-05-19_15h32.09.691,premceCat2_ses-02_part-02_label-phase2,2020.2.10,MacIntel,60,,,,,right,1.420475,2,0.173235,,,,,,,,0,26,26,81,1,stimuli/objects/avcable.jpg,right,new,82,,,,,,,,
,,,,,,,,19,2021-05-19_15h32.09.691,premceCat2_ses-02_part-02_label-phase2,2020.2.10,MacIntel,60,,,,,right,0.833295,2,0.297925,,,,,,,,0,27,27,59,1,stimuli/objects/studiolight.jpg,right,new,60,,,,,,,,
,,,,,,,,19,2021-05-19_15h32.09.691,premceCat2_ses-02_part-02_label-phase2,2020.2.10,MacIntel,60,,,,,left,1.53208,3,0.28791,left,0.659745,0,0,0,0,1,,,,,,,,,,,,,,,,,
,,,,,,,,19,2021-05-19_15h32.09.691,premceCat2_ses-02_part-02_label-phase2,2020.2.10,MacIntel,60,,,,,,,,,,,,,,,,0,28,28,0,1,stimuli/objects/ethernetcable02.jpg,left,old,1,,,,,,,,
,,,,,,,,19,2021-05-19_15h32.09.691,premceCat2_ses-02_part-02_label-phase2,2020.2.10,MacIntel,60,,,,,left,3.203845,3,0.57686,right,0.478145,0,0,0,0,1,,,,,,,,,,,,,,,,,
,,,,,,,,19,2021-05-19_15h32.09.691,premceCat2_ses-02_part-02_label-phase2,2020.2.10,MacIntel,60,,,,,,,,,,,,,,,,0,29,29,47,1,stimuli/objects/hoe.jpg,left,old,48,,,,,,,,
,,,,,,,,19,2021-05-19_15h32.09.691,premceCat2_ses-02_part-02_label-phase2,2020.2.10,MacIntel,60,,,,,left,1.31387,4,0.412045,left,0.30595,0,0,0,0,1,,,,,,,,,,,,,,,,,
,,,,,,,,19,2021-05-19_15h32.09.691,premceCat2_ses-02_part-02_label-phase2,2020.2.10,MacIntel,60,,,,,,,,,,,,,,,,0,30,30,10,1,stimuli/objects/dvdcase01.jpg,left,old,11,,,,,,,,
,,,,,,,,19,2021-05-19_15h32.09.691,premceCat2_ses-02_part-02_label-phase2,2020.2.10,MacIntel,60,,,,,left,1.387835,2,0.396405,right,0.276055,0,0,0,0,1,,,,,,,,,,,,,,,,,
,,,,,,,,19,2021-05-19_15h32.09.691,premceCat2_ses-02_part-02_label-phase2,2020.2.10,MacIntel,60,,,,,,,,,,,,,,,,0,31,31,99,1,stimuli/objects/snowblower.jpg,left,old,100,,,,,,,,
,,,,,,,,19,2021-05-19_15h32.09.691,premceCat2_ses-02_part-02_label-phase2,2020.2.10,MacIntel,60,,,,,right,1.112975,2,0.098185,,,,,,,,0,32,32,75,1,stimuli/objects/stepladder.jpg,right,new,76,,,,,,,,
,,,,,,,,19,2021-05-19_15h32.09.691,premceCat2_ses-02_part-02_label-phase2,2020.2.10,MacIntel,60,,,,,right,1.401145,3,0.54058,,,,,,,,0,33,33,23,1,stimuli/objects/football.jpg,right,new,24,,,,,,,,
,,,,,,,,19,2021-05-19_15h32.09.691,premceCat2_ses-02_part-02_label-phase2,2020.2.10,MacIntel,60,,,,,left,1.269965,4,0.198935,left,0.229245,0,0,0,0,1,,,,,,,,,,,,,,,,,
,,,,,,,,19,2021-05-19_15h32.09.691,premceCat2_ses-02_part-02_label-phase2,2020.2.10,MacIntel,60,,,,,,,,,,,,,,,,0,34,34,67,1,stimuli/objects/bikelock.jpg,left,old,68,,,,,,,,
,,,,,,,,19,2021-05-19_15h32.09.691,premceCat2_ses-02_part-02_label-phase2,2020.2.10,MacIntel,60,,,,,left,0.952785,2,0.20657,left,0.25795,0,0,0,0,1,,,,,,,,,,,,,,,,,
,,,,,,,,19,2021-05-19_15h32.09.691,premceCat2_ses-02_part-02_label-phase2,2020.2.10,MacIntel,60,,,,,,,,,,,,,,,,0,35,35,130,1,stimuli/objects/soccerball.jpg,left,old,131,,,,,,,,
,,,,,,,,19,2021-05-19_15h32.09.691,premceCat2_ses-02_part-02_label-phase2,2020.2.10,MacIntel,60,,,,,left,0.984475,2,0.94312,left,0.186055,0,0,0,0,1,,,,,,,,,,,,,,,,,
,,,,,,,,19,2021-05-19_15h32.09.691,premceCat2_ses-02_part-02_label-phase2,2020.2.10,MacIntel,60,,,,,,,,,,,,,,,,0,36,36,50,1,stimuli/objects/chisel02b.jpg,right,new,51,,,,,,,,
,,,,,,,,19,2021-05-19_15h32.09.691,premceCat2_ses-02_part-02_label-phase2,2020.2.10,MacIntel,60,,,,,left,0.864105,4,0.127435,right,0.12129,0,0,0,0,1,,,,,,,,,,,,,,,,,
,,,,,,,,19,2021-05-19_15h32.09.691,premceCat2_ses-02_part-02_label-phase2,2020.2.10,MacIntel,60,,,,,,,,,,,,,,,,0,37,37,2,1,stimuli/objects/filmnegative.jpg,left,old,3,,,,,,,,
,,,,,,,,19,2021-05-19_15h32.09.691,premceCat2_ses-02_part-02_label-phase2,2020.2.10,MacIntel,60,,,,,left,2.147655,2,0.3269,left,0.85462,0,0,0,0,1,,,,,,,,,,,,,,,,,
,,,,,,,,19,2021-05-19_15h32.09.691,premceCat2_ses-02_part-02_label-phase2,2020.2.10,MacIntel,60,,,,,,,,,,,,,,,,0,38,38,117,1,stimuli/objects/videotape01b.jpg,right,new,118,,,,,,,,
,,,,,,,,19,2021-05-19_15h32.09.691,premceCat2_ses-02_part-02_label-phase2,2020.2.10,MacIntel,60,,,,,left,1.04523,4,0.308445,right,0.37255,0,0,0,0,1,,,,,,,,,,,,,,,,,
,,,,,,,,19,2021-05-19_15h32.09.691,premceCat2_ses-02_part-02_label-phase2,2020.2.10,MacIntel,60,,,,,,,,,,,,,,,,0,39,39,104,1,stimuli/objects/carantenna.jpg,left,old,105,,,,,,,,
,,,,,,,,19,2021-05-19_15h32.09.691,premceCat2_ses-02_part-02_label-phase2,2020.2.10,MacIntel,60,,,,,left,0.930415,3,0.207885,right,0.216455,0,0,0,0,1,,,,,,,,,,,,,,,,,
,,,,,,,,19,2021-05-19_15h32.09.691,premceCat2_ses-02_part-02_label-phase2,2020.2.10,MacIntel,60,,,,,,,,,,,,,,,,0,40,40,77,1,stimuli/objects/headphones02b.jpg,left,old,78,,,,,,,,
,,,,,,,,19,2021-05-19_15h32.09.691,premceCat2_ses-02_part-02_label-phase2,2020.2.10,MacIntel,60,,,,,right,6.09275,4,0.22344,,,,,,,,0,41,41,139,1,stimuli/objects/frisbee.jpg,right,new,140,,,,,,,,
,,,,,,,,19,2021-05-19_15h32.09.691,premceCat2_ses-02_part-02_label-phase2,2020.2.10,MacIntel,60,,,,,left,1.266575,4,0.110175,left,1.46685,0,0,0,0,1,,,,,,,,,,,,,,,,,
,,,,,,,,19,2021-05-19_15h32.09.691,premceCat2_ses-02_part-02_label-phase2,2020.2.10,MacIntel,60,,,,,,,,,,,,,,,,0,42,42,101,1,stimuli/objects/chandelier.jpg,left,old,102,,,,,,,,
,,,,,,,,19,2021-05-19_15h32.09.691,premceCat2_ses-02_part-02_label-phase2,2020.2.10,MacIntel,60,,,,,right,1.55165,1,0.095865,,,,,,,,0,43,43,43,1,stimuli/objects/punchingball.jpg,right,new,44,,,,,,,,
,,,,,,,,19,2021-05-19_15h32.09.691,premceCat2_ses-02_part-02_label-phase2,2020.2.10,MacIntel,60,,,,,right,0.845435,4,0.15112,,,,,,,,0,44,44,42,1,stimuli/objects/snowshoe.jpg,right,new,43,,,,,,,,
,,,,,,,,19,2021-05-19_15h32.09.691,premceCat2_ses-02_part-02_label-phase2,2020.2.10,MacIntel,60,,,,,right,1.94367,3,0.620285,,,,,,,,0,45,45,131,1,stimuli/objects/spotlight.jpg,right,new,132,,,,,,,,
,,,,,,,,19,2021-05-19_15h32.09.691,premceCat2_ses-02_part-02_label-phase2,2020.2.10,MacIntel,60,,,,,right,1.112985,3,0.246225,,,,,,,,0,46,46,18,1,stimuli/objects/cashregister01.jpg,right,new,19,,,,,,,,
,,,,,,,,19,2021-05-19_15h32.09.691,premceCat2_ses-02_part-02_label-phase2,2020.2.10,MacIntel,60,,,,,right,1.663175,3,0.762065,,,,,,,,0,47,47,121,1,stimuli/objects/ceilingspeaker.jpg,right,new,122,,,,,,,,
,,,,,,,,19,2021-05-19_15h32.09.691,premceCat2_ses-02_part-02_label-phase2,2020.2.10,MacIntel,60,,,,,right,0.837675,4,0.177595,,,,,,,,0,48,48,19,1,stimuli/objects/peppermill02b.jpg,right,new,20,,,,,,,,
,,,,,,,,19,2021-05-19_15h32.09.691,premceCat2_ses-02_part-02_label-phase2,2020.2.10,MacIntel,60,,,,,left,3.26526,2,0.14012,left,0.436935,0,0,0,0,1,,,,,,,,,,,,,,,,,
,,,,,,,,19,2021-05-19_15h32.09.691,premceCat2_ses-02_part-02_label-phase2,2020.2.10,MacIntel,60,,,,,,,,,,,,,,,,0,49,49,30,1,stimuli/objects/printer02.jpg,right,new,31,,,,,,,,
,,,,,,,,19,2021-05-19_15h32.09.691,premceCat2_ses-02_part-02_label-phase2,2020.2.10,MacIntel,60,,,,,left,1.072285,3,0.23307,right,0.43805,0,0,0,0,1,,,,,,,,,,,,,,,,,
,,,,,,,,19,2021-05-19_15h32.09.691,premceCat2_ses-02_part-02_label-phase2,2020.2.10,MacIntel,60,,,,,,,,,,,,,,,,0,50,50,78,1,stimuli/objects/tupperware03a.jpg,left,old,79,,,,,,,,
,,,,,,,,19,2021-05-19_15h32.09.691,premceCat2_ses-02_part-02_label-phase2,2020.2.10,MacIntel,60,,,,,left,5.238245,4,0.311225,right,0.39335,0,0,0,0,1,,,,,,,,,,,,,,,,,
,,,,,,,,19,2021-05-19_15h32.09.691,premceCat2_ses-02_part-02_label-phase2,2020.2.10,MacIntel,60,,,,,,,,,,,,,,,,0,51,51,52,1,stimuli/objects/spatula04.jpg,left,old,53,,,,,,,,
,,,,,,,,19,2021-05-19_15h32.09.691,premceCat2_ses-02_part-02_label-phase2,2020.2.10,MacIntel,60,,,,,left,1.091565,3,0.457175,right,0.57486,0,0,0,0,1,,,,,,,,,,,,,,,,,
,,,,,,,,19,2021-05-19_15h32.09.691,premceCat2_ses-02_part-02_label-phase2,2020.2.10,MacIntel,60,,,,,,,,,,,,,,,,0,52,52,45,1,stimuli/objects/aluminiumfoil.jpg,left,old,46,,,,,,,,
,,,,,,,,19,2021-05-19_15h32.09.691,premceCat2_ses-02_part-02_label-phase2,2020.2.10,MacIntel,60,,,,,left,1.29068,3,0.360955,left,0.55603,0,0,0,0,1,,,,,,,,,,,,,,,,,
,,,,,,,,19,2021-05-19_15h32.09.691,premceCat2_ses-02_part-02_label-phase2,2020.2.10,MacIntel,60,,,,,,,,,,,,,,,,0,53,53,127,1,stimuli/objects/badmintonracket.jpg,left,old,128,,,,,,,,
,,,,,,,,19,2021-05-19_15h32.09.691,premceCat2_ses-02_part-02_label-phase2,2020.2.10,MacIntel,60,,,,,right,2.327345,3,0.39408,,,,,,,,0,54,54,141,1,stimuli/objects/generator.jpg,right,new,142,,,,,,,,
,,,,,,,,19,2021-05-19_15h32.09.691,premceCat2_ses-02_part-02_label-phase2,2020.2.10,MacIntel,60,,,,,left,1.44279,2,0.261425,left,0.307365,0,0,0,0,1,,,,,,,,,,,,,,,,,
,,,,,,,,19,2021-05-19_15h32.09.691,premceCat2_ses-02_part-02_label-phase2,2020.2.10,MacIntel,60,,,,,,,,,,,,,,,,0,55,55,120,1,stimuli/objects/pot01.jpg,left,old,121,,,,,,,,
,,,,,,,,19,2021-05-19_15h32.09.691,premceCat2_ses-02_part-02_label-phase2,2020.2.10,MacIntel,60,,,,,right,2.779795,2,0.224475,,,,,,,,0,56,56,85,1,stimuli/objects/golfball.jpg,right,new,86,,,,,,,,
,,,,,,,,19,2021-05-19_15h32.09.691,premceCat2_ses-02_part-02_label-phase2,2020.2.10,MacIntel,60,,,,,right,1.19621,2,0.271805,,,,,,,,0,57,57,94,1,stimuli/objects/electricmixer.jpg,right,new,95,,,,,,,,
,,,,,,,,19,2021-05-19_15h32.09.691,premceCat2_ses-02_part-02_label-phase2,2020.2.10,MacIntel,60,,,,,left,0.924635,4,0.21205,left,0.239025,0,0,0,0,1,,,,,,,,,,,,,,,,,
,,,,,,,,19,2021-05-19_15h32.09.691,premceCat2_ses-02_part-02_label-phase2,2020.2.10,MacIntel,60,,,,,,,,,,,,,,,,0,58,58,97,1,stimuli/objects/coffeemachine.jpg,left,old,98,,,,,,,,
,,,,,,,,19,2021-05-19_15h32.09.691,premceCat2_ses-02_part-02_label-phase2,2020.2.10,MacIntel,60,,,,,left,1.562135,3,0.087595,right,0.230535,0,0,0,0,1,,,,,,,,,,,,,,,,,
,,,,,,,,19,2021-05-19_15h32.09.691,premceCat2_ses-02_part-02_label-phase2,2020.2.10,MacIntel,60,,,,,,,,,,,,,,,,0,59,59,11,1,stimuli/objects/telephone01b.jpg,left,old,12,,,,,,,,
,,,,,,,,19,2021-05-19_15h32.09.691,premceCat2_ses-02_part-02_label-phase2,2020.2.10,MacIntel,60,,,,,left,1.136485,3,0.18922,right,0.32631,0,0,0,0,1,,,,,,,,,,,,,,,,,
,,,,,,,,19,2021-05-19_15h32.09.691,premceCat2_ses-02_part-02_label-phase2,2020.2.10,MacIntel,60,,,,,,,,,,,,,,,,0,60,60,44,1,stimuli/objects/pliers02b.jpg,left,old,45,,,,,,,,
,,,,,,,,19,2021-05-19_15h32.09.691,premceCat2_ses-02_part-02_label-phase2,2020.2.10,MacIntel,60,,,,,right,0.859205,4,0.210975,,,,,,,,0,61,61,4,1,stimuli/objects/microphone01.jpg,right,new,5,,,,,,,,
,,,,,,,,19,2021-05-19_15h32.09.691,premceCat2_ses-02_part-02_label-phase2,2020.2.10,MacIntel,60,,,,,left,1.96696,1,0.409605,left,0.29043,0,0,0,0,1,,,,,,,,,,,,,,,,,
,,,,,,,,19,2021-05-19_15h32.09.691,premceCat2_ses-02_part-02_label-phase2,2020.2.10,MacIntel,60,,,,,,,,,,,,,,,,0,62,62,113,1,stimuli/objects/powercable.jpg,right,new,114,,,,,,,,
,,,,,,,,19,2021-05-19_15h32.09.691,premceCat2_ses-02_part-02_label-phase2,2020.2.10,MacIntel,60,,,,,left,1.23482,2,0.36088,left,0.249475,0,0,0,0,1,,,,,,,,,,,,,,,,,
,,,,,,,,19,2021-05-19_15h32.09.691,premceCat2_ses-02_part-02_label-phase2,2020.2.10,MacIntel,60,,,,,,,,,,,,,,,,0,63,63,58,1,stimuli/objects/toyhardhat.jpg,left,old,59,,,,,,,,
,,,,,,,,19,2021-05-19_15h32.09.691,premceCat2_ses-02_part-02_label-phase2,2020.2.10,MacIntel,60,,,,,right,0.880675,3,0.176935,,,,,,,,0,64,64,86,1,stimuli/objects/toasteroven.jpg,right,new,87,,,,,,,,
,,,,,,,,19,2021-05-19_15h32.09.691,premceCat2_ses-02_part-02_label-phase2,2020.2.10,MacIntel,60,,,,,right,0.947425,3,0.12764,,,,,,,,0,65,65,116,1,stimuli/objects/radio01.jpg,right,new,117,,,,,,,,
,,,,,,,,19,2021-05-19_15h32.09.691,premceCat2_ses-02_part-02_label-phase2,2020.2.10,MacIntel,60,,,,,left,1.153715,3,0.311345,right,0.32067,0,0,0,0,1,,,,,,,,,,,,,,,,,
,,,,,,,,19,2021-05-19_15h32.09.691,premceCat2_ses-02_part-02_label-phase2,2020.2.10,MacIntel,60,,,,,,,,,,,,,,,,0,66,66,132,1,stimuli/objects/djmixer02.jpg,left,old,133,,,,,,,,
,,,,,,,,19,2021-05-19_15h32.09.691,premceCat2_ses-02_part-02_label-phase2,2020.2.10,MacIntel,60,,,,,left,1.4472,3,0.12589,left,0.2487,0,0,0,0,1,,,,,,,,,,,,,,,,,
,,,,,,,,19,2021-05-19_15h32.09.691,premceCat2_ses-02_part-02_label-phase2,2020.2.10,MacIntel,60,,,,,,,,,,,,,,,,0,67,67,102,1,stimuli/objects/propanetank01.jpg,left,old,103,,,,,,,,
,,,,,,,,19,2021-05-19_15h32.09.691,premceCat2_ses-02_part-02_label-phase2,2020.2.10,MacIntel,60,,,,,right,1.13915,2,0.128415,,,,,,,,0,68,68,49,1,stimuli/objects/volleyball.jpg,left,old,50,,,,,,,,
,,,,,,,,19,2021-05-19_15h32.09.691,premceCat2_ses-02_part-02_label-phase2,2020.2.10,MacIntel,60,,,,,right,1.164725,3,0.12272,,,,,,,,0,69,69,20,1,stimuli/objects/laptop01a.jpg,right,new,21,,,,,,,,
,,,,,,,,19,2021-05-19_15h32.09.691,premceCat2_ses-02_part-02_label-phase2,2020.2.10,MacIntel,60,,,,,left,0.900005,3,0.64417,left,0.39287,0,0,0,0,1,,,,,,,,,,,,,,,,,
,,,,,,,,19,2021-05-19_15h32.09.691,premceCat2_ses-02_part-02_label-phase2,2020.2.10,MacIntel,60,,,,,,,,,,,,,,,,0,70,70,27,1,stimuli/objects/baseballglove.jpg,left,old,28,,,,,,,,
,,,,,,,,19,2021-05-19_15h32.09.691,premceCat2_ses-02_part-02_label-phase2,2020.2.10,MacIntel,60,,,,,right,0.894875,2,1.743475,,,,,,,,0,71,71,110,1,stimuli/objects/lock03a.jpg,right,new,111,,,,,,,,
,,,,,,,,19,2021-05-19_15h32.09.691,premceCat2_ses-02_part-02_label-phase2,2020.2.10,MacIntel,60,,,,,right,0.679225,2,0.559055,,,,,,,,0,72,72,53,1,stimuli/objects/binoculars01b.jpg,right,new,54,,,,,,,,
,,,,,,,,19,2021-05-19_15h32.09.691,premceCat2_ses-02_part-02_label-phase2,2020.2.10,MacIntel,60,,,,,right,0.94334,3,0.22431,,,,,,,,0,73,73,38,1,stimuli/objects/soundmixer.jpg,right,new,39,,,,,,,,
,,,,,,,,19,2021-05-19_15h32.09.691,premceCat2_ses-02_part-02_label-phase2,2020.2.10,MacIntel,60,,,,,left,0.734345,4,0.191225,right,1.1822,0,0,0,0,1,,,,,,,,,,,,,,,,,
,,,,,,,,19,2021-05-19_15h32.09.691,premceCat2_ses-02_part-02_label-phase2,2020.2.10,MacIntel,60,,,,,,,,,,,,,,,,0,74,74,91,1,stimuli/objects/chainsaw.jpg,left,old,92,,,,,,,,
,,,,,,,,19,2021-05-19_15h32.09.691,premceCat2_ses-02_part-02_label-phase2,2020.2.10,MacIntel,60,,,,,left,1.567695,3,2.217815,right,0.86307,0,0,0,0,1,,,,,,,,,,,,,,,,,
,,,,,,,,19,2021-05-19_15h32.09.691,premceCat2_ses-02_part-02_label-phase2,2020.2.10,MacIntel,60,,,,,,,,,,,,,,,,0,75,75,126,1,stimuli/objects/tableknife02.jpg,right,new,127,,,,,,,,
,,,,,,,,19,2021-05-19_15h32.09.691,premceCat2_ses-02_part-02_label-phase2,2020.2.10,MacIntel,60,,,,,right,2.765445,2,0.025535,,,,,,,,0,76,76,115,1,stimuli/objects/pipewrench.jpg,left,old,116,,,,,,,,
,,,,,,,,19,2021-05-19_15h32.09.691,premceCat2_ses-02_part-02_label-phase2,2020.2.10,MacIntel,60,,,,,left,0.905365,3,0.05669,left,0.058325,0,0,0,0,1,,,,,,,,,,,,,,,,,
,,,,,,,,19,2021-05-19_15h32.09.691,premceCat2_ses-02_part-02_label-phase2,2020.2.10,MacIntel,60,,,,,,,,,,,,,,,,0,77,77,1,1,stimuli/objects/photocopier.jpg,left,old,2,,,,,,,,
,,,,,,,,19,2021-05-19_15h32.09.691,premceCat2_ses-02_part-02_label-phase2,2020.2.10,MacIntel,60,,,,,right,1.19774,2,0.697695,,,,,,,,0,78,78,122,1,stimuli/objects/extensioncord.jpg,left,old,123,,,,,,,,
,,,,,,,,19,2021-05-19_15h32.09.691,premceCat2_ses-02_part-02_label-phase2,2020.2.10,MacIntel,60,,,,,left,1.261385,4,0.7948,left,0.238245,0,0,0,0,1,,,,,,,,,,,,,,,,,
,,,,,,,,19,2021-05-19_15h32.09.691,premceCat2_ses-02_part-02_label-phase2,2020.2.10,MacIntel,60,,,,,,,,,,,,,,,,0,79,79,69,1,stimuli/objects/atm.jpg,left,old,70,,,,,,,,
,,,,,,,,19,2021-05-19_15h32.09.691,premceCat2_ses-02_part-02_label-phase2,2020.2.10,MacIntel,60,,,,,left,0.994005,3,0.579655,left,0.744605,0,0,0,0,1,,,,,,,,,,,,,,,,,
,,,,,,,,19,2021-05-19_15h32.09.691,premceCat2_ses-02_part-02_label-phase2,2020.2.10,MacIntel,60,,,,,,,,,,,,,,,,0,80,80,7,1,stimuli/objects/puttyknife.jpg,left,old,8,,,,,,,,
,,,,,,,,19,2021-05-19_15h32.09.691,premceCat2_ses-02_part-02_label-phase2,2020.2.10,MacIntel,60,,,,,right,0.743855,4,0.261665,,,,,,,,0,81,81,72,1,stimuli/objects/cclamp.jpg,right,new,73,,,,,,,,
,,,,,,,,19,2021-05-19_15h32.09.691,premceCat2_ses-02_part-02_label-phase2,2020.2.10,MacIntel,60,,,,,left,2.33504,4,0.21144,left,1.77762,0,0,0,0,1,,,,,,,,,,,,,,,,,
,,,,,,,,19,2021-05-19_15h32.09.691,premceCat2_ses-02_part-02_label-phase2,2020.2.10,MacIntel,60,,,,,,,,,,,,,,,,0,82,82,124,1,stimuli/objects/reflector.jpg,left,old,125,,,,,,,,
,,,,,,,,19,2021-05-19_15h32.09.691,premceCat2_ses-02_part-02_label-phase2,2020.2.10,MacIntel,60,,,,,right,0.8585,3,0.049495,,,,,,,,0,83,83,24,1,stimuli/objects/skateboard.jpg,right,new,25,,,,,,,,
,,,,,,,,19,2021-05-19_15h32.09.691,premceCat2_ses-02_part-02_label-phase2,2020.2.10,MacIntel,60,,,,,right,0.74059,3,0.192615,,,,,,,,0,84,84,133,1,stimuli/objects/icebucket.jpg,right,new,134,,,,,,,,
,,,,,,,,19,2021-05-19_15h32.09.691,premceCat2_ses-02_part-02_label-phase2,2020.2.10,MacIntel,60,,,,,right,1.87802,3,0.32286,,,,,,,,0,85,85,56,1,stimuli/objects/thermos.jpg,left,old,57,,,,,,,,
,,,,,,,,19,2021-05-19_15h32.09.691,premceCat2_ses-02_part-02_label-phase2,2020.2.10,MacIntel,60,,,,,right,1.78171,2,0.02327,,,,,,,,0,86,86,36,1,stimuli/objects/gps.jpg,left,old,37,,,,,,,,
,,,,,,,,19,2021-05-19_15h32.09.691,premceCat2_ses-02_part-02_label-phase2,2020.2.10,MacIntel,60,,,,,right,1.70481,3,0.173805,,,,,,,,0,87,87,112,1,stimuli/objects/gymnasticring.jpg,right,new,113,,,,,,,,
,,,,,,,,19,2021-05-19_15h32.09.691,premceCat2_ses-02_part-02_label-phase2,2020.2.10,MacIntel,60,,,,,right,0.844825,3,0.193425,,,,,,,,0,88,88,41,1,stimuli/objects/pylon01.jpg,right,new,42,,,,,,,,
,,,,,,,,19,2021-05-19_15h32.09.691,premceCat2_ses-02_part-02_label-phase2,2020.2.10,MacIntel,60,,,,,right,0.65553,3,0.22899,,,,,,,,0,89,89,73,1,stimuli/objects/clock01a.jpg,right,new,74,,,,,,,,
,,,,,,,,19,2021-05-19_15h32.09.691,premceCat2_ses-02_part-02_label-phase2,2020.2.10,MacIntel,60,,,,,right,0.998315,4,0.192605,,,,,,,,0,90,90,82,1,stimuli/objects/snowbrush.jpg,right,new,83,,,,,,,,
,,,,,,,,19,2021-05-19_15h32.09.691,premceCat2_ses-02_part-02_label-phase2,2020.2.10,MacIntel,60,,,,,right,0.938765,3,0.10688,,,,,,,,0,91,91,136,1,stimuli/objects/battery02b.jpg,right,new,137,,,,,,,,
,,,,,,,,19,2021-05-19_15h32.09.691,premceCat2_ses-02_part-02_label-phase2,2020.2.10,MacIntel,60,,,,,right,0.92244,3,0.14195,,,,,,,,0,92,92,9,1,stimuli/objects/measuringtape01.jpg,right,new,10,,,,,,,,
,,,,,,,,19,2021-05-19_15h32.09.691,premceCat2_ses-02_part-02_label-phase2,2020.2.10,MacIntel,60,,,,,left,1.05944,3,0.364415,left,0.468615,0,0,0,0,1,,,,,,,,,,,,,,,,,
,,,,,,,,19,2021-05-19_15h32.09.691,premceCat2_ses-02_part-02_label-phase2,2020.2.10,MacIntel,60,,,,,,,,,,,,,,,,0,93,93,74,1,stimuli/objects/toyhockeystick01.jpg,left,old,75,,,,,,,,
,,,,,,,,19,2021-05-19_15h32.09.691,premceCat2_ses-02_part-02_label-phase2,2020.2.10,MacIntel,60,,,,,right,1.99726,2,0.339395,,,,,,,,0,94,94,76,1,stimuli/objects/megaphone.jpg,right,new,77,,,,,,,,
,,,,,,,,19,2021-05-19_15h32.09.691,premceCat2_ses-02_part-02_label-phase2,2020.2.10,MacIntel,60,,,,,left,0.86432,4,0.193785,right,0.240505,0,0,0,0,1,,,,,,,,,,,,,,,,,
,,,,,,,,19,2021-05-19_15h32.09.691,premceCat2_ses-02_part-02_label-phase2,2020.2.10,MacIntel,60,,,,,,,,,,,,,,,,0,95,95,79,1,stimuli/objects/dvdplayer.jpg,left,old,80,,,,,,,,
,,,,,,,,19,2021-05-19_15h32.09.691,premceCat2_ses-02_part-02_label-phase2,2020.2.10,MacIntel,60,,,,,left,2.38114,3,0.27713,right,0.35904,0,0,0,0,1,,,,,,,,,,,,,,,,,
,,,,,,,,19,2021-05-19_15h32.09.691,premceCat2_ses-02_part-02_label-phase2,2020.2.10,MacIntel,60,,,,,,,,,,,,,,,,0,96,96,95,1,stimuli/objects/lectern01.jpg,left,old,96,,,,,,,,
,,,,,,,,19,2021-05-19_15h32.09.691,premceCat2_ses-02_part-02_label-phase2,2020.2.10,MacIntel,60,,,,,left,0.877515,4,0.746485,right,0.19465,0,0,0,0,1,,,,,,,,,,,,,,,,,
,,,,,,,,19,2021-05-19_15h32.09.691,premceCat2_ses-02_part-02_label-phase2,2020.2.10,MacIntel,60,,,,,,,,,,,,,,,,0,97,97,40,1,stimuli/objects/wateringcan.jpg,left,old,41,,,,,,,,
,,,,,,,,19,2021-05-19_15h32.09.691,premceCat2_ses-02_part-02_label-phase2,2020.2.10,MacIntel,60,,,,,left,0.85857,4,0.15973,left,0.044005,0,0,0,0,1,,,,,,,,,,,,,,,,,
,,,,,,,,19,2021-05-19_15h32.09.691,premceCat2_ses-02_part-02_label-phase2,2020.2.10,MacIntel,60,,,,,,,,,,,,,,,,0,98,98,103,1,stimuli/objects/towel01.jpg,left,old,104,,,,,,,,
,,,,,,,,19,2021-05-19_15h32.09.691,premceCat2_ses-02_part-02_label-phase2,2020.2.10,MacIntel,60,,,,,left,0.832305,4,0.13214,left,0.7913,0,0,0,0,1,,,,,,,,,,,,,,,,,
,,,,,,,,19,2021-05-19_15h32.09.691,premceCat2_ses-02_part-02_label-phase2,2020.2.10,MacIntel,60,,,,,,,,,,,,,,,,0,99,99,98,1,stimuli/objects/handgripper.jpg,left,old,99,,,,,,,,
,,,,,,,,19,2021-05-19_15h32.09.691,premceCat2_ses-02_part-02_label-phase2,2020.2.10,MacIntel,60,,,,,right,0.967455,2,1.903215,,,,,,,,0,100,100,83,1,stimuli/objects/kitchenscale01a.jpg,right,new,84,,,,,,,,
,,,,,,,,19,2021-05-19_15h32.09.691,premceCat2_ses-02_part-02_label-phase2,2020.2.10,MacIntel,60,,,,,left,7.29781,2,0.31938,left,0.34526,0,0,0,0,1,,,,,,,,,,,,,,,,,
,,,,,,,,19,2021-05-19_15h32.09.691,premceCat2_ses-02_part-02_label-phase2,2020.2.10,MacIntel,60,,,,,,,,,,,,,,,,0,101,101,48,1,stimuli/objects/breadknife.jpg,left,old,49,,,,,,,,
,,,,,,,,19,2021-05-19_15h32.09.691,premceCat2_ses-02_part-02_label-phase2,2020.2.10,MacIntel,60,,,,,right,1.45568,2,0.446085,,,,,,,,0,102,102,54,1,stimuli/objects/pda.jpg,right,new,55,,,,,,,,
,,,,,,,,19,2021-05-19_15h32.09.691,premceCat2_ses-02_part-02_label-phase2,2020.2.10,MacIntel,60,,,,,left,0.87787,4,0.04728,right,0.22654,0,0,0,0,1,,,,,,,,,,,,,,,,,
,,,,,,,,19,2021-05-19_15h32.09.691,premceCat2_ses-02_part-02_label-phase2,2020.2.10,MacIntel,60,,,,,,,,,,,,,,,,0,103,103,31,1,stimuli/objects/mallet01b.jpg,left,old,32,,,,,,,,
,,,,,,,,19,2021-05-19_15h32.09.691,premceCat2_ses-02_part-02_label-phase2,2020.2.10,MacIntel,60,,,,,left,0.8805,4,0.125895,left,0.223375,0,0,0,0,1,,,,,,,,,,,,,,,,,
,,,,,,,,19,2021-05-19_15h32.09.691,premceCat2_ses-02_part-02_label-phase2,2020.2.10,MacIntel,60,,,,,,,,,,,,,,,,0,104,104,3,1,stimuli/objects/dishrack.jpg,left,old,4,,,,,,,,
,,,,,,,,19,2021-05-19_15h32.09.691,premceCat2_ses-02_part-02_label-phase2,2020.2.10,MacIntel,60,,,,,left,0.752305,3,0.19175,right,0.2447,0,0,0,0,1,,,,,,,,,,,,,,,,,
,,,,,,,,19,2021-05-19_15h32.09.691,premceCat2_ses-02_part-02_label-phase2,2020.2.10,MacIntel,60,,,,,,,,,,,,,,,,0,105,105,70,1,stimuli/objects/martiniglass01b.jpg,left,old,71,,,,,,,,
,,,,,,,,19,2021-05-19_15h32.09.691,premceCat2_ses-02_part-02_label-phase2,2020.2.10,MacIntel,60,,,,,right,0.97848,3,1.008795,,,,,,,,0,106,106,93,1,stimuli/objects/icepack.jpg,right,new,94,,,,,,,,
,,,,,,,,19,2021-05-19_15h32.09.691,premceCat2_ses-02_part-02_label-phase2,2020.2.10,MacIntel,60,,,,,left,2.00074,3,0.224,right,0.56351,0,0,0,0,1,,,,,,,,,,,,,,,,,
,,,,,,,,19,2021-05-19_15h32.09.691,premceCat2_ses-02_part-02_label-phase2,2020.2.10,MacIntel,60,,,,,,,,,,,,,,,,0,107,107,142,1,stimuli/objects/spoon01.jpg,left,old,143,,,,,,,,
,,,,,,,,19,2021-05-19_15h32.09.691,premceCat2_ses-02_part-02_label-phase2,2020.2.10,MacIntel,60,,,,,right,0.86635,2,0.036645,,,,,,,,0,108,108,21,1,stimuli/objects/paintbrush01.jpg,right,new,22,,,,,,,,
,,,,,,,,19,2021-05-19_15h32.09.691,premceCat2_ses-02_part-02_label-phase2,2020.2.10,MacIntel,60,,,,,right,0.99901,2,0.17444,,,,,,,,0,109,109,100,1,stimuli/objects/remotecontrol04.jpg,right,new,101,,,,,,,,
,,,,,,,,19,2021-05-19_15h32.09.691,premceCat2_ses-02_part-02_label-phase2,2020.2.10,MacIntel,60,,,,,right,0.926265,3,0.11707,,,,,,,,0,110,110,129,1,stimuli/objects/cleaver01.jpg,left,old,130,,,,,,,,
,,,,,,,,19,2021-05-19_15h32.09.691,premceCat2_ses-02_part-02_label-phase2,2020.2.10,MacIntel,60,,,,,right,0.89906,4,0.195175,,,,,,,,0,111,111,39,1,stimuli/objects/sippycup.jpg,right,new,40,,,,,,,,
,,,,,,,,19,2021-05-19_15h32.09.691,premceCat2_ses-02_part-02_label-phase2,2020.2.10,MacIntel,60,,,,,left,0.779245,2,0.27715,left,0.373965,0,0,0,0,1,,,,,,,,,,,,,,,,,
,,,,,,,,19,2021-05-19_15h32.09.691,premceCat2_ses-02_part-02_label-phase2,2020.2.10,MacIntel,60,,,,,,,,,,,,,,,,0,112,112,140,1,stimuli/objects/catchermask.jpg,left,old,141,,,,,,,,
,,,,,,,,19,2021-05-19_15h32.09.691,premceCat2_ses-02_part-02_label-phase2,2020.2.10,MacIntel,60,,,,,left,0.77538,4,0.02524,left,0.175355,0,0,0,0,1,,,,,,,,,,,,,,,,,
,,,,,,,,19,2021-05-19_15h32.09.691,premceCat2_ses-02_part-02_label-phase2,2020.2.10,MacIntel,60,,,,,,,,,,,,,,,,0,113,113,123,1,stimuli/objects/gasburner.jpg,left,old,124,,,,,,,,
,,,,,,,,19,2021-05-19_15h32.09.691,premceCat2_ses-02_part-02_label-phase2,2020.2.10,MacIntel,60,,,,,left,0.627205,3,0.050475,left,0.247425,0,0,0,0,1,,,,,,,,,,,,,,,,,
,,,,,,,,19,2021-05-19_15h32.09.691,premceCat2_ses-02_part-02_label-phase2,2020.2.10,MacIntel,60,,,,,,,,,,,,,,,,0,114,114,62,1,stimuli/objects/potatomasher03b.jpg,left,old,63,,,,,,,,
,,,,,,,,19,2021-05-19_15h32.09.691,premceCat2_ses-02_part-02_label-phase2,2020.2.10,MacIntel,60,,,,,right,0.939105,3,0.10584,,,,,,,,0,115,115,13,1,stimuli/objects/bastingbrush.jpg,right,new,14,,,,,,,,
,,,,,,,,19,2021-05-19_15h32.09.691,premceCat2_ses-02_part-02_label-phase2,2020.2.10,MacIntel,60,,,,,left,0.83398,4,0.042755,left,0.08966,0,0,0,0,1,,,,,,,,,,,,,,,,,
,,,,,,,,19,2021-05-19_15h32.09.691,premceCat2_ses-02_part-02_label-phase2,2020.2.10,MacIntel,60,,,,,,,,,,,,,,,,0,116,116,105,1,stimuli/objects/videocamera01a.jpg,left,old,106,,,,,,,,
,,,,,,,,19,2021-05-19_15h32.09.691,premceCat2_ses-02_part-02_label-phase2,2020.2.10,MacIntel,60,,,,,right,4.30641,2,0.110105,,,,,,,,0,117,117,107,1,stimuli/objects/canister.jpg,left,old,108,,,,,,,,
,,,,,,,,19,2021-05-19_15h32.09.691,premceCat2_ses-02_part-02_label-phase2,2020.2.10,MacIntel,60,,,,,right,1.01253,2,0.4606,,,,,,,,0,118,118,35,1,stimuli/objects/crocodileclips.jpg,left,old,36,,,,,,,,
,,,,,,,,19,2021-05-19_15h32.09.691,premceCat2_ses-02_part-02_label-phase2,2020.2.10,MacIntel,60,,,,,left,0.998545,4,0.192275,right,1.66222,0,0,0,0,1,,,,,,,,,,,,,,,,,
,,,,,,,,19,2021-05-19_15h32.09.691,premceCat2_ses-02_part-02_label-phase2,2020.2.10,MacIntel,60,,,,,,,,,,,,,,,,0,119,119,15,1,stimuli/objects/watercooler.jpg,left,old,16,,,,,,,,
,,,,,,,,19,2021-05-19_15h32.09.691,premceCat2_ses-02_part-02_label-phase2,2020.2.10,MacIntel,60,,,,,right,0.813785,4,1.209785,,,,,,,,0,120,120,128,1,stimuli/objects/tripod01.jpg,right,new,129,,,,,,,,
,,,,,,,,19,2021-05-19_15h32.09.691,premceCat2_ses-02_part-02_label-phase2,2020.2.10,MacIntel,60,,,,,right,1.22551,1,0.057175,,,,,,,,0,121,121,34,1,stimuli/objects/hockeygoaliemask.jpg,left,old,35,,,,,,,,
,,,,,,,,19,2021-05-19_15h32.09.691,premceCat2_ses-02_part-02_label-phase2,2020.2.10,MacIntel,60,,,,,right,0.93325,3,0.209215,,,,,,,,0,122,122,17,1,stimuli/objects/exercisebench.jpg,right,new,18,,,,,,,,
,,,,,,,,19,2021-05-19_15h32.09.691,premceCat2_ses-02_part-02_label-phase2,2020.2.10,MacIntel,60,,,,,left,0.744615,2,0.273155,left,0.71157,0,0,0,0,1,,,,,,,,,,,,,,,,,
,,,,,,,,19,2021-05-19_15h32.09.691,premceCat2_ses-02_part-02_label-phase2,2020.2.10,MacIntel,60,,,,,,,,,,,,,,,,0,123,123,87,1,stimuli/objects/fluorescentlightbulb.jpg,left,old,88,,,,,,,,
,,,,,,,,19,2021-05-19_15h32.09.691,premceCat2_ses-02_part-02_label-phase2,2020.2.10,MacIntel,60,,,,,right,1.500245,3,0.045485,,,,,,,,0,124,124,119,1,stimuli/objects/tongs01b.jpg,right,new,120,,,,,,,,
,,,,,,,,19,2021-05-19_15h32.09.691,premceCat2_ses-02_part-02_label-phase2,2020.2.10,MacIntel,60,,,,,right,0.79311,4,1.408645,,,,,,,,0,125,125,80,1,stimuli/objects/snowman.jpg,right,new,81,,,,,,,,
,,,,,,,,19,2021-05-19_15h32.09.691,premceCat2_ses-02_part-02_label-phase2,2020.2.10,MacIntel,60,,,,,right,0.91168,4,0.40538,,,,,,,,0,126,126,60,1,stimuli/objects/glass02a.jpg,right,new,61,,,,,,,,
,,,,,,,,19,2021-05-19_15h32.09.691,premceCat2_ses-02_part-02_label-phase2,2020.2.10,MacIntel,60,,,,,right,1.211685,3,0.759975,,,,,,,,0,127,127,32,1,stimuli/objects/mitresaw.jpg,right,new,33,,,,,,,,
,,,,,,,,19,2021-05-19_15h32.09.691,premceCat2_ses-02_part-02_label-phase2,2020.2.10,MacIntel,60,,,,,right,0.881145,3,0.266505,,,,,,,,0,128,128,90,1,stimuli/objects/carlighter02.jpg,right,new,91,,,,,,,,
,,,,,,,,19,2021-05-19_15h32.09.691,premceCat2_ses-02_part-02_label-phase2,2020.2.10,MacIntel,60,,,,,right,0.809825,3,0.20531,,,,,,,,0,129,129,111,1,stimuli/objects/speaker04.jpg,right,new,112,,,,,,,,
,,,,,,,,19,2021-05-19_15h32.09.691,premceCat2_ses-02_part-02_label-phase2,2020.2.10,MacIntel,60,,,,,right,0.918,4,0.29192,,,,,,,,0,130,130,138,1,stimuli/objects/taperecorder.jpg,right,new,139,,,,,,,,
,,,,,,,,19,2021-05-19_15h32.09.691,premceCat2_ses-02_part-02_label-phase2,2020.2.10,MacIntel,60,,,,,left,0.813735,4,0.144025,right,0.1581,0,0,0,0,1,,,,,,,,,,,,,,,,,
,,,,,,,,19,2021-05-19_15h32.09.691,premceCat2_ses-02_part-02_label-phase2,2020.2.10,MacIntel,60,,,,,,,,,,,,,,,,0,131,131,65,1,stimuli/objects/squeegee01b.jpg,left,old,66,,,,,,,,
,,,,,,,,19,2021-05-19_15h32.09.691,premceCat2_ses-02_part-02_label-phase2,2020.2.10,MacIntel,60,,,,,right,1.231715,3,0.03128,,,,,,,,0,132,132,125,1,stimuli/objects/shoulderpad.jpg,right,new,126,,,,,,,,
,,,,,,,,19,2021-05-19_15h32.09.691,premceCat2_ses-02_part-02_label-phase2,2020.2.10,MacIntel,60,,,,,left,0.77943,3,0.22064,left,0.075605,0,0,0,0,1,,,,,,,,,,,,,,,,,
,,,,,,,,19,2021-05-19_15h32.09.691,premceCat2_ses-02_part-02_label-phase2,2020.2.10,MacIntel,60,,,,,,,,,,,,,,,,0,133,133,137,1,stimuli/objects/exercisebike.jpg,left,old,138,,,,,,,,
,,,,,,,,19,2021-05-19_15h32.09.691,premceCat2_ses-02_part-02_label-phase2,2020.2.10,MacIntel,60,,,,,left,1.86104,2,0.09049,right,0.26166,0,0,0,0,1,,,,,,,,,,,,,,,,,
,,,,,,,,19,2021-05-19_15h32.09.691,premceCat2_ses-02_part-02_label-phase2,2020.2.10,MacIntel,60,,,,,,,,,,,,,,,,0,134,134,37,1,stimuli/objects/bungeecord02.jpg,left,old,38,,,,,,,,
,,,,,,,,19,2021-05-19_15h32.09.691,premceCat2_ses-02_part-02_label-phase2,2020.2.10,MacIntel,60,,,,,right,0.79661,3,0.14547,,,,,,,,0,135,135,114,1,stimuli/objects/butterknife.jpg,left,old,115,,,,,,,,
,,,,,,,,19,2021-05-19_15h32.09.691,premceCat2_ses-02_part-02_label-phase2,2020.2.10,MacIntel,60,,,,,right,0.91163,4,0.57599,,,,,,,,0,136,136,63,1,stimuli/objects/butterdish.jpg,right,new,64,,,,,,,,
,,,,,,,,19,2021-05-19_15h32.09.691,premceCat2_ses-02_part-02_label-phase2,2020.2.10,MacIntel,60,,,,,right,2.188875,2,1.994275,,,,,,,,0,137,137,96,1,stimuli/objects/golfbag.jpg,right,new,97,,,,,,,,
,,,,,,,,19,2021-05-19_15h32.09.691,premceCat2_ses-02_part-02_label-phase2,2020.2.10,MacIntel,60,,,,,left,1.09169,3,0.715255,left,1.25612,0,0,0,0,1,,,,,,,,,,,,,,,,,
,,,,,,,,19,2021-05-19_15h32.09.691,premceCat2_ses-02_part-02_label-phase2,2020.2.10,MacIntel,60,,,,,,,,,,,,,,,,0,138,138,5,1,stimuli/objects/fan.jpg,left,old,6,,,,,,,,
,,,,,,,,19,2021-05-19_15h32.09.691,premceCat2_ses-02_part-02_label-phase2,2020.2.10,MacIntel,60,,,,,right,0.769735,4,0.002195,,,,,,,,0,139,139,26,1,stimuli/objects/boogieboard.jpg,right,new,27,,,,,,,,
,,,,,,,,19,2021-05-19_15h32.09.691,premceCat2_ses-02_part-02_label-phase2,2020.2.10,MacIntel,60,,,,,left,0.82868,4,0.29159,left,0.172805,0,0,0,0,1,,,,,,,,,,,,,,,,,
,,,,,,,,19,2021-05-19_15h32.09.691,premceCat2_ses-02_part-02_label-phase2,2020.2.10,MacIntel,60,,,,,,,,,,,,,,,,0,140,140,6,1,stimuli/objects/corkscrew03a.jpg,left,old,7,,,,,,,,
,,,,,,,,19,2021-05-19_15h32.09.691,premceCat2_ses-02_part-02_label-phase2,2020.2.10,MacIntel,60,,,,,right,0.76838,4,0.24258,,,,,,,,0,141,141,109,1,stimuli/objects/winerack.jpg,right,new,110,,,,,,,,
,,,,,,,,19,2021-05-19_15h32.09.691,premceCat2_ses-02_part-02_label-phase2,2020.2.10,MacIntel,60,,,,,right,1.044295,3,0.068875,,,,,,,,0,142,142,57,1,stimuli/objects/audiocablesplitter.jpg,right,new,58,,,,,,,,
,,,,,,,,19,2021-05-19_15h32.09.691,premceCat2_ses-02_part-02_label-phase2,2020.2.10,MacIntel,60,,,,,,,,,,,,,,,,,,,,,,,,,space,3.461655,0,1,1,0,1,condition_files/ImagesforRecog4_1.csv
