instructions_loop.thisRepN,instructions_loop.thisTrialN,instructions_loop.thisN,instructions_loop.thisIndex,instructions_loop.ran,text1,text2,text3,participant,date,expName,psychopyVersion,OS,frameRate,key_resp_2.keys,key_resp_2.rt,key_resp_3.keys,key_resp_3.rt,recog_resp.keys,recog_resp.rt,conf_resp.keys,conf_resp.rt,resp_assoc.keys,resp_assoc.rt,assoc_loop.thisRepN,assoc_loop.thisTrialN,assoc_loop.thisN,assoc_loop.thisIndex,assoc_loop.ran,recog_loop.thisRepN,recog_loop.thisTrialN,recog_loop.thisN,recog_loop.thisIndex,recog_loop.ran,images,corr_ans,type,order,key_resp_break.keys,key_resp_break.rt,list_loop.thisRepN,list_loop.thisTrialN,list_loop.thisN,list_loop.thisIndex,list_loop.ran,recog_list
0,0,0,0,1,Welcome to the last phase of this experiment!,.,Please press the space bar to continue,20,2021-06-06_13h45.30.524,premceCat2_ses-02_part-02_label-phase2,2020.2.10,MacIntel,60,,,,,,,,,,,,,,,,,,,,,,,,,,,,,,,,
0,1,1,1,1,.,"In this phase, you will see some objects. 

For each object, you should indicate whether you have seen it before during the experiment.

Press LEFT ARROW for YES
Press RIGHT ARROW for NO

",Please press the space bar to continue ,20,2021-06-06_13h45.30.524,premceCat2_ses-02_part-02_label-phase2,2020.2.10,MacIntel,60,,,,,,,,,,,,,,,,,,,,,,,,,,,,,,,,
0,2,2,2,1,.,"After that, you will be asked how confident you are of your choice.

Please rate the confidence in your choice with the numbers from 1 to 4 of your keyboard. 

The numbers correspond to:

1 = Very unsure
2 = Unsure
3 = Sure
4 = Very Sure",Please press the space bar to continue,20,2021-06-06_13h45.30.524,premceCat2_ses-02_part-02_label-phase2,2020.2.10,MacIntel,60,,,,,,,,,,,,,,,,,,,,,,,,,,,,,,,,
,,,,,,,,20,2021-06-06_13h45.30.524,premceCat2_ses-02_part-02_label-phase2,2020.2.10,MacIntel,60,space,21.855,space,19.899,left,6.179,2,4.727,right,7.674,0,0,0,0,1,,,,,,,,,,,,,,,,,
,,,,,,,,20,2021-06-06_13h45.30.524,premceCat2_ses-02_part-02_label-phase2,2020.2.10,MacIntel,60,,,,,,,,,,,,,,,,0,0,0,31,1,stimuli/objects/outdoorheater.jpg,left,old,175,,,,,,,,
,,,,,,,,20,2021-06-06_13h45.30.524,premceCat2_ses-02_part-02_label-phase2,2020.2.10,MacIntel,60,,,,,left,7.685,2,3.296,right,2.873,0,0,0,0,1,,,,,,,,,,,,,,,,,
,,,,,,,,20,2021-06-06_13h45.30.524,premceCat2_ses-02_part-02_label-phase2,2020.2.10,MacIntel,60,,,,,,,,,,,,,,,,0,1,1,113,1,stimuli/objects/boltcutter.jpg,left,old,257,,,,,,,,
,,,,,,,,20,2021-06-06_13h45.30.524,premceCat2_ses-02_part-02_label-phase2,2020.2.10,MacIntel,60,,,,,left,3.087,4,1.247,left,15.495,0,0,0,0,1,,,,,,,,,,,,,,,,,
,,,,,,,,20,2021-06-06_13h45.30.524,premceCat2_ses-02_part-02_label-phase2,2020.2.10,MacIntel,60,,,,,,,,,,,,,,,,0,2,2,71,1,stimuli/objects/anchor.jpg,left,old,215,,,,,,,,
,,,,,,,,20,2021-06-06_13h45.30.524,premceCat2_ses-02_part-02_label-phase2,2020.2.10,MacIntel,60,,,,,left,6.517,3,4.251,right,2.977,0,0,0,0,1,,,,,,,,,,,,,,,,,
,,,,,,,,20,2021-06-06_13h45.30.524,premceCat2_ses-02_part-02_label-phase2,2020.2.10,MacIntel,60,,,,,,,,,,,,,,,,0,3,3,65,1,stimuli/objects/hoe.jpg,left,old,209,,,,,,,,
,,,,,,,,20,2021-06-06_13h45.30.524,premceCat2_ses-02_part-02_label-phase2,2020.2.10,MacIntel,60,,,,,left,6.318,4,0.994,left,1.328,0,0,0,0,1,,,,,,,,,,,,,,,,,
,,,,,,,,20,2021-06-06_13h45.30.524,premceCat2_ses-02_part-02_label-phase2,2020.2.10,MacIntel,60,,,,,,,,,,,,,,,,0,4,4,139,1,stimuli/objects/measuringcup01.jpg,left,old,283,,,,,,,,
,,,,,,,,20,2021-06-06_13h45.30.524,premceCat2_ses-02_part-02_label-phase2,2020.2.10,MacIntel,60,,,,,left,3.003,3,1.033,left,2.077,0,0,0,0,1,,,,,,,,,,,,,,,,,
,,,,,,,,20,2021-06-06_13h45.30.524,premceCat2_ses-02_part-02_label-phase2,2020.2.10,MacIntel,60,,,,,,,,,,,,,,,,0,5,5,89,1,stimuli/objects/pastaspoon.jpg,left,old,233,,,,,,,,
,,,,,,,,20,2021-06-06_13h45.30.524,premceCat2_ses-02_part-02_label-phase2,2020.2.10,MacIntel,60,,,,,right,4.185,2,2.678,,,,,,,,0,6,6,142,1,stimuli/objects/needlenosepliers01.jpg,right,new,286,,,,,,,,
,,,,,,,,20,2021-06-06_13h45.30.524,premceCat2_ses-02_part-02_label-phase2,2020.2.10,MacIntel,60,,,,,right,5.147,3,2.312,,,,,,,,0,7,7,99,1,stimuli/objects/floodlight.jpg,right,new,243,,,,,,,,
,,,,,,,,20,2021-06-06_13h45.30.524,premceCat2_ses-02_part-02_label-phase2,2020.2.10,MacIntel,60,,,,,left,2.889,3,4.694,left,1.391,0,0,0,0,1,,,,,,,,,,,,,,,,,
,,,,,,,,20,2021-06-06_13h45.30.524,premceCat2_ses-02_part-02_label-phase2,2020.2.10,MacIntel,60,,,,,,,,,,,,,,,,0,8,8,64,1,stimuli/objects/fishingrod.jpg,left,old,208,,,,,,,,
,,,,,,,,20,2021-06-06_13h45.30.524,premceCat2_ses-02_part-02_label-phase2,2020.2.10,MacIntel,60,,,,,right,4.794,3,2.894,,,,,,,,0,9,9,116,1,stimuli/objects/lockingplier.jpg,right,new,260,,,,,,,,
,,,,,,,,20,2021-06-06_13h45.30.524,premceCat2_ses-02_part-02_label-phase2,2020.2.10,MacIntel,60,,,,,left,3.602,4,1.229,right,16.559,0,0,0,0,1,,,,,,,,,,,,,,,,,
,,,,,,,,20,2021-06-06_13h45.30.524,premceCat2_ses-02_part-02_label-phase2,2020.2.10,MacIntel,60,,,,,,,,,,,,,,,,0,10,10,75,1,stimuli/objects/ladder.jpg,left,old,219,,,,,,,,
,,,,,,,,20,2021-06-06_13h45.30.524,premceCat2_ses-02_part-02_label-phase2,2020.2.10,MacIntel,60,,,,,right,3.303,2,1.761,,,,,,,,0,11,11,28,1,stimuli/objects/saladspinner.jpg,left,old,172,,,,,,,,
,,,,,,,,20,2021-06-06_13h45.30.524,premceCat2_ses-02_part-02_label-phase2,2020.2.10,MacIntel,60,,,,,right,6.419,3,1.752,,,,,,,,0,12,12,6,1,stimuli/objects/solderingwire.jpg,right,new,150,,,,,,,,
,,,,,,,,20,2021-06-06_13h45.30.524,premceCat2_ses-02_part-02_label-phase2,2020.2.10,MacIntel,60,,,,,right,3.986,2,0.962,,,,,,,,0,13,13,4,1,stimuli/objects/cassettetape01a.jpg,right,new,148,,,,,,,,
,,,,,,,,20,2021-06-06_13h45.30.524,premceCat2_ses-02_part-02_label-phase2,2020.2.10,MacIntel,60,,,,,left,3.081,4,0.93,left,3.742,0,0,0,0,1,,,,,,,,,,,,,,,,,
,,,,,,,,20,2021-06-06_13h45.30.524,premceCat2_ses-02_part-02_label-phase2,2020.2.10,MacIntel,60,,,,,,,,,,,,,,,,0,14,14,136,1,stimuli/objects/exercisebike.jpg,left,old,280,,,,,,,,
,,,,,,,,20,2021-06-06_13h45.30.524,premceCat2_ses-02_part-02_label-phase2,2020.2.10,MacIntel,60,,,,,left,1.819,4,1.478,right,1.927,0,0,0,0,1,,,,,,,,,,,,,,,,,
,,,,,,,,20,2021-06-06_13h45.30.524,premceCat2_ses-02_part-02_label-phase2,2020.2.10,MacIntel,60,,,,,,,,,,,,,,,,0,15,15,76,1,stimuli/objects/satellitedish01.jpg,left,old,220,,,,,,,,
,,,,,,,,20,2021-06-06_13h45.30.524,premceCat2_ses-02_part-02_label-phase2,2020.2.10,MacIntel,60,,,,,right,2.845,4,2.013,,,,,,,,0,16,16,46,1,stimuli/objects/waterbottleholder.jpg,right,new,190,,,,,,,,
,,,,,,,,20,2021-06-06_13h45.30.524,premceCat2_ses-02_part-02_label-phase2,2020.2.10,MacIntel,60,,,,,left,2.662,3,1.397,right,1.518,0,0,0,0,1,,,,,,,,,,,,,,,,,
,,,,,,,,20,2021-06-06_13h45.30.524,premceCat2_ses-02_part-02_label-phase2,2020.2.10,MacIntel,60,,,,,,,,,,,,,,,,0,17,17,70,1,stimuli/objects/shovel01.jpg,right,new,214,,,,,,,,
,,,,,,,,20,2021-06-06_13h45.30.524,premceCat2_ses-02_part-02_label-phase2,2020.2.10,MacIntel,60,,,,,right,3.067,3,1.995,,,,,,,,0,18,18,124,1,stimuli/objects/basketball01.jpg,right,new,268,,,,,,,,
,,,,,,,,20,2021-06-06_13h45.30.524,premceCat2_ses-02_part-02_label-phase2,2020.2.10,MacIntel,60,,,,,left,9.654,4,1.125,right,4.812,0,0,0,0,1,,,,,,,,,,,,,,,,,
,,,,,,,,20,2021-06-06_13h45.30.524,premceCat2_ses-02_part-02_label-phase2,2020.2.10,MacIntel,60,,,,,,,,,,,,,,,,0,19,19,108,1,stimuli/objects/slidetray.jpg,left,old,252,,,,,,,,
,,,,,,,,20,2021-06-06_13h45.30.524,premceCat2_ses-02_part-02_label-phase2,2020.2.10,MacIntel,60,,,,,left,3.678,3,2.349,left,3.367,0,0,0,0,1,,,,,,,,,,,,,,,,,
,,,,,,,,20,2021-06-06_13h45.30.524,premceCat2_ses-02_part-02_label-phase2,2020.2.10,MacIntel,60,,,,,,,,,,,,,,,,0,20,20,47,1,stimuli/objects/plate01b.jpg,right,new,191,,,,,,,,
,,,,,,,,20,2021-06-06_13h45.30.524,premceCat2_ses-02_part-02_label-phase2,2020.2.10,MacIntel,60,,,,,left,3.236,4,0.866,right,4.15,0,0,0,0,1,,,,,,,,,,,,,,,,,
,,,,,,,,20,2021-06-06_13h45.30.524,premceCat2_ses-02_part-02_label-phase2,2020.2.10,MacIntel,60,,,,,,,,,,,,,,,,0,21,21,129,1,stimuli/objects/jigsaw.jpg,left,old,273,,,,,,,,
,,,,,,,,20,2021-06-06_13h45.30.524,premceCat2_ses-02_part-02_label-phase2,2020.2.10,MacIntel,60,,,,,left,1.831,3,1.066,right,2.762,0,0,0,0,1,,,,,,,,,,,,,,,,,
,,,,,,,,20,2021-06-06_13h45.30.524,premceCat2_ses-02_part-02_label-phase2,2020.2.10,MacIntel,60,,,,,,,,,,,,,,,,0,22,22,106,1,stimuli/objects/usbcable01a.jpg,left,old,250,,,,,,,,
,,,,,,,,20,2021-06-06_13h45.30.524,premceCat2_ses-02_part-02_label-phase2,2020.2.10,MacIntel,60,,,,,right,4.841,2,1.114,,,,,,,,0,23,23,9,1,stimuli/objects/alarmsystem.jpg,right,new,153,,,,,,,,
,,,,,,,,20,2021-06-06_13h45.30.524,premceCat2_ses-02_part-02_label-phase2,2020.2.10,MacIntel,60,,,,,left,1.948,3,1.444,right,1.317,0,0,0,0,1,,,,,,,,,,,,,,,,,
,,,,,,,,20,2021-06-06_13h45.30.524,premceCat2_ses-02_part-02_label-phase2,2020.2.10,MacIntel,60,,,,,,,,,,,,,,,,0,24,24,85,1,stimuli/objects/fan.jpg,left,old,229,,,,,,,,
,,,,,,,,20,2021-06-06_13h45.30.524,premceCat2_ses-02_part-02_label-phase2,2020.2.10,MacIntel,60,,,,,right,1.751,4,2.33,,,,,,,,0,25,25,111,1,stimuli/objects/diaperbag.jpg,right,new,255,,,,,,,,
,,,,,,,,20,2021-06-06_13h45.30.524,premceCat2_ses-02_part-02_label-phase2,2020.2.10,MacIntel,60,,,,,left,3.473,4,1.028,left,4.246,0,0,0,0,1,,,,,,,,,,,,,,,,,
,,,,,,,,20,2021-06-06_13h45.30.524,premceCat2_ses-02_part-02_label-phase2,2020.2.10,MacIntel,60,,,,,,,,,,,,,,,,0,26,26,20,1,stimuli/objects/fishinghook03.jpg,left,old,164,,,,,,,,
,,,,,,,,20,2021-06-06_13h45.30.524,premceCat2_ses-02_part-02_label-phase2,2020.2.10,MacIntel,60,,,,,left,1.934,4,0.798,left,0.997,0,0,0,0,1,,,,,,,,,,,,,,,,,
,,,,,,,,20,2021-06-06_13h45.30.524,premceCat2_ses-02_part-02_label-phase2,2020.2.10,MacIntel,60,,,,,,,,,,,,,,,,0,27,27,79,1,stimuli/objects/snowboard.jpg,left,old,223,,,,,,,,
,,,,,,,,20,2021-06-06_13h45.30.524,premceCat2_ses-02_part-02_label-phase2,2020.2.10,MacIntel,60,,,,,left,1.658,4,0.999,left,4.943,0,0,0,0,1,,,,,,,,,,,,,,,,,
,,,,,,,,20,2021-06-06_13h45.30.524,premceCat2_ses-02_part-02_label-phase2,2020.2.10,MacIntel,60,,,,,,,,,,,,,,,,0,28,28,105,1,stimuli/objects/cork02.jpg,left,old,249,,,,,,,,
,,,,,,,,20,2021-06-06_13h45.30.524,premceCat2_ses-02_part-02_label-phase2,2020.2.10,MacIntel,60,,,,,right,2.437,3,2.611,,,,,,,,0,29,29,131,1,stimuli/objects/handblender.jpg,right,new,275,,,,,,,,
,,,,,,,,20,2021-06-06_13h45.30.524,premceCat2_ses-02_part-02_label-phase2,2020.2.10,MacIntel,60,,,,,left,1.599,4,1.262,left,4.127,0,0,0,0,1,,,,,,,,,,,,,,,,,
,,,,,,,,20,2021-06-06_13h45.30.524,premceCat2_ses-02_part-02_label-phase2,2020.2.10,MacIntel,60,,,,,,,,,,,,,,,,0,30,30,141,1,stimuli/objects/coffeepot03a.jpg,left,old,285,,,,,,,,
,,,,,,,,20,2021-06-06_13h45.30.524,premceCat2_ses-02_part-02_label-phase2,2020.2.10,MacIntel,60,,,,,right,1.613,4,1.094,,,,,,,,0,31,31,120,1,stimuli/objects/tent.jpg,right,new,264,,,,,,,,
,,,,,,,,20,2021-06-06_13h45.30.524,premceCat2_ses-02_part-02_label-phase2,2020.2.10,MacIntel,60,,,,,right,3.922,2,0.997,,,,,,,,0,32,32,0,1,stimuli/objects/smokedetector02.jpg,right,new,144,,,,,,,,
,,,,,,,,20,2021-06-06_13h45.30.524,premceCat2_ses-02_part-02_label-phase2,2020.2.10,MacIntel,60,,,,,right,2.686,3,0.844,,,,,,,,0,33,33,133,1,stimuli/objects/birdie.jpg,right,new,277,,,,,,,,
,,,,,,,,20,2021-06-06_13h45.30.524,premceCat2_ses-02_part-02_label-phase2,2020.2.10,MacIntel,60,,,,,left,1.403,4,0.701,left,6.31,0,0,0,0,1,,,,,,,,,,,,,,,,,
,,,,,,,,20,2021-06-06_13h45.30.524,premceCat2_ses-02_part-02_label-phase2,2020.2.10,MacIntel,60,,,,,,,,,,,,,,,,0,34,34,73,1,stimuli/objects/weight01.jpg,left,old,217,,,,,,,,
,,,,,,,,20,2021-06-06_13h45.30.524,premceCat2_ses-02_part-02_label-phase2,2020.2.10,MacIntel,60,,,,,left,1.402,4,0.763,left,1.666,0,0,0,0,1,,,,,,,,,,,,,,,,,
,,,,,,,,20,2021-06-06_13h45.30.524,premceCat2_ses-02_part-02_label-phase2,2020.2.10,MacIntel,60,,,,,,,,,,,,,,,,0,35,35,115,1,stimuli/objects/dishrack.jpg,left,old,259,,,,,,,,
,,,,,,,,20,2021-06-06_13h45.30.524,premceCat2_ses-02_part-02_label-phase2,2020.2.10,MacIntel,60,,,,,right,4.438,2,0.863,,,,,,,,0,36,36,103,1,stimuli/objects/swissarmyknife01a.jpg,right,new,247,,,,,,,,
,,,,,,,,20,2021-06-06_13h45.30.524,premceCat2_ses-02_part-02_label-phase2,2020.2.10,MacIntel,60,,,,,left,1.421,4,1.231,right,7.927,0,0,0,0,1,,,,,,,,,,,,,,,,,
,,,,,,,,20,2021-06-06_13h45.30.524,premceCat2_ses-02_part-02_label-phase2,2020.2.10,MacIntel,60,,,,,,,,,,,,,,,,0,37,37,63,1,stimuli/objects/watercooler.jpg,left,old,207,,,,,,,,
,,,,,,,,20,2021-06-06_13h45.30.524,premceCat2_ses-02_part-02_label-phase2,2020.2.10,MacIntel,60,,,,,left,2.416,2,6.533,left,1.675,0,0,0,0,1,,,,,,,,,,,,,,,,,
,,,,,,,,20,2021-06-06_13h45.30.524,premceCat2_ses-02_part-02_label-phase2,2020.2.10,MacIntel,60,,,,,,,,,,,,,,,,0,38,38,84,1,stimuli/objects/sportbag.jpg,left,old,228,,,,,,,,
,,,,,,,,20,2021-06-06_13h45.30.524,premceCat2_ses-02_part-02_label-phase2,2020.2.10,MacIntel,60,,,,,right,2.136,3,3.048,,,,,,,,0,39,39,137,1,stimuli/objects/nutcracker01.jpg,right,new,281,,,,,,,,
,,,,,,,,20,2021-06-06_13h45.30.524,premceCat2_ses-02_part-02_label-phase2,2020.2.10,MacIntel,60,,,,,left,1.385,4,0.883,right,5.245,0,0,0,0,1,,,,,,,,,,,,,,,,,
,,,,,,,,20,2021-06-06_13h45.30.524,premceCat2_ses-02_part-02_label-phase2,2020.2.10,MacIntel,60,,,,,,,,,,,,,,,,0,40,40,72,1,stimuli/objects/wheel01.jpg,left,old,216,,,,,,,,
,,,,,,,,20,2021-06-06_13h45.30.524,premceCat2_ses-02_part-02_label-phase2,2020.2.10,MacIntel,60,,,,,right,3.184,3,1.428,,,,,,,,0,41,41,130,1,stimuli/objects/scanner.jpg,left,old,274,,,,,,,,
,,,,,,,,20,2021-06-06_13h45.30.524,premceCat2_ses-02_part-02_label-phase2,2020.2.10,MacIntel,60,,,,,left,1.922,3,1.297,right,0.622,0,0,0,0,1,,,,,,,,,,,,,,,,,
,,,,,,,,20,2021-06-06_13h45.30.524,premceCat2_ses-02_part-02_label-phase2,2020.2.10,MacIntel,60,,,,,,,,,,,,,,,,0,42,42,8,1,stimuli/objects/sledgehammer.jpg,left,old,152,,,,,,,,
,,,,,,,,20,2021-06-06_13h45.30.524,premceCat2_ses-02_part-02_label-phase2,2020.2.10,MacIntel,60,,,,,right,2.485,3,1.258,,,,,,,,0,43,43,121,1,stimuli/objects/parachute.jpg,right,new,265,,,,,,,,
,,,,,,,,20,2021-06-06_13h45.30.524,premceCat2_ses-02_part-02_label-phase2,2020.2.10,MacIntel,60,,,,,right,2.026,3,1.347,,,,,,,,0,44,44,44,1,stimuli/objects/toaster01.jpg,right,new,188,,,,,,,,
,,,,,,,,20,2021-06-06_13h45.30.524,premceCat2_ses-02_part-02_label-phase2,2020.2.10,MacIntel,60,,,,,right,2.042,4,0.968,,,,,,,,0,45,45,59,1,stimuli/objects/speedball.jpg,right,new,203,,,,,,,,
,,,,,,,,20,2021-06-06_13h45.30.524,premceCat2_ses-02_part-02_label-phase2,2020.2.10,MacIntel,60,,,,,right,3.036,3,7.045,,,,,,,,0,46,46,40,1,stimuli/objects/tablesaw.jpg,right,new,184,,,,,,,,
,,,,,,,,20,2021-06-06_13h45.30.524,premceCat2_ses-02_part-02_label-phase2,2020.2.10,MacIntel,60,,,,,left,2.335,3,0.774,left,0.494,0,0,0,0,1,,,,,,,,,,,,,,,,,
,,,,,,,,20,2021-06-06_13h45.30.524,premceCat2_ses-02_part-02_label-phase2,2020.2.10,MacIntel,60,,,,,,,,,,,,,,,,0,47,47,7,1,stimuli/objects/handmixer01d.jpg,left,old,151,,,,,,,,
,,,,,,,,20,2021-06-06_13h45.30.524,premceCat2_ses-02_part-02_label-phase2,2020.2.10,MacIntel,60,,,,,left,4.405,4,1.082,right,0.865,0,0,0,0,1,,,,,,,,,,,,,,,,,
,,,,,,,,20,2021-06-06_13h45.30.524,premceCat2_ses-02_part-02_label-phase2,2020.2.10,MacIntel,60,,,,,,,,,,,,,,,,0,48,48,37,1,stimuli/objects/papershredder.jpg,left,old,181,,,,,,,,
,,,,,,,,20,2021-06-06_13h45.30.524,premceCat2_ses-02_part-02_label-phase2,2020.2.10,MacIntel,60,,,,,left,1.287,4,0.664,left,23.683,0,0,0,0,1,,,,,,,,,,,,,,,,,
,,,,,,,,20,2021-06-06_13h45.30.524,premceCat2_ses-02_part-02_label-phase2,2020.2.10,MacIntel,60,,,,,,,,,,,,,,,,0,49,49,117,1,stimuli/objects/iceskate.jpg,left,old,261,,,,,,,,
,,,,,,,,20,2021-06-06_13h45.30.524,premceCat2_ses-02_part-02_label-phase2,2020.2.10,MacIntel,60,,,,,left,5.552,2,1.226,left,2.047,0,0,0,0,1,,,,,,,,,,,,,,,,,
,,,,,,,,20,2021-06-06_13h45.30.524,premceCat2_ses-02_part-02_label-phase2,2020.2.10,MacIntel,60,,,,,,,,,,,,,,,,0,50,50,90,1,stimuli/objects/patioumbrella.jpg,left,old,234,,,,,,,,
,,,,,,,,20,2021-06-06_13h45.30.524,premceCat2_ses-02_part-02_label-phase2,2020.2.10,MacIntel,60,,,,,left,2.775,3,2.779,right,0.481,0,0,0,0,1,,,,,,,,,,,,,,,,,
,,,,,,,,20,2021-06-06_13h45.30.524,premceCat2_ses-02_part-02_label-phase2,2020.2.10,MacIntel,60,,,,,,,,,,,,,,,,0,51,51,91,1,stimuli/objects/cuttingpliers02.jpg,right,new,235,,,,,,,,
,,,,,,,,20,2021-06-06_13h45.30.524,premceCat2_ses-02_part-02_label-phase2,2020.2.10,MacIntel,60,,,,,left,1.474,4,0.896,right,0.962,0,0,0,0,1,,,,,,,,,,,,,,,,,
,,,,,,,,20,2021-06-06_13h45.30.524,premceCat2_ses-02_part-02_label-phase2,2020.2.10,MacIntel,60,,,,,,,,,,,,,,,,0,52,52,53,1,stimuli/objects/chainsaw.jpg,left,old,197,,,,,,,,
,,,,,,,,20,2021-06-06_13h45.30.524,premceCat2_ses-02_part-02_label-phase2,2020.2.10,MacIntel,60,,,,,left,2.555,4,1.745,left,10.46,0,0,0,0,1,,,,,,,,,,,,,,,,,
,,,,,,,,20,2021-06-06_13h45.30.524,premceCat2_ses-02_part-02_label-phase2,2020.2.10,MacIntel,60,,,,,,,,,,,,,,,,0,53,53,77,1,stimuli/objects/thermos.jpg,left,old,221,,,,,,,,
,,,,,,,,20,2021-06-06_13h45.30.524,premceCat2_ses-02_part-02_label-phase2,2020.2.10,MacIntel,60,,,,,left,1.339,4,0.813,right,0.934,0,0,0,0,1,,,,,,,,,,,,,,,,,
,,,,,,,,20,2021-06-06_13h45.30.524,premceCat2_ses-02_part-02_label-phase2,2020.2.10,MacIntel,60,,,,,,,,,,,,,,,,0,54,54,92,1,stimuli/objects/gluetube.jpg,left,old,236,,,,,,,,
,,,,,,,,20,2021-06-06_13h45.30.524,premceCat2_ses-02_part-02_label-phase2,2020.2.10,MacIntel,60,,,,,right,2.57,3,1.493,,,,,,,,0,55,55,34,1,stimuli/objects/kneepad01c.jpg,right,new,178,,,,,,,,
,,,,,,,,20,2021-06-06_13h45.30.524,premceCat2_ses-02_part-02_label-phase2,2020.2.10,MacIntel,60,,,,,right,2.764,2,0.669,,,,,,,,0,56,56,125,1,stimuli/objects/saw02b.jpg,left,old,269,,,,,,,,
,,,,,,,,20,2021-06-06_13h45.30.524,premceCat2_ses-02_part-02_label-phase2,2020.2.10,MacIntel,60,,,,,left,1.419,3,0.857,left,1.226,0,0,0,0,1,,,,,,,,,,,,,,,,,
,,,,,,,,20,2021-06-06_13h45.30.524,premceCat2_ses-02_part-02_label-phase2,2020.2.10,MacIntel,60,,,,,,,,,,,,,,,,0,57,57,74,1,stimuli/objects/poolnet.jpg,left,old,218,,,,,,,,
,,,,,,,,20,2021-06-06_13h45.30.524,premceCat2_ses-02_part-02_label-phase2,2020.2.10,MacIntel,60,,,,,left,1.369,4,0.397,left,3.439,0,0,0,0,1,,,,,,,,,,,,,,,,,
,,,,,,,,20,2021-06-06_13h45.30.524,premceCat2_ses-02_part-02_label-phase2,2020.2.10,MacIntel,60,,,,,,,,,,,,,,,,0,58,58,128,1,stimuli/objects/espressomachine.jpg,left,old,272,,,,,,,,
,,,,,,,,20,2021-06-06_13h45.30.524,premceCat2_ses-02_part-02_label-phase2,2020.2.10,MacIntel,60,,,,,right,2.135,2,3.546,,,,,,,,0,59,59,15,1,stimuli/objects/computermouse06.jpg,right,new,159,,,,,,,,
,,,,,,,,20,2021-06-06_13h45.30.524,premceCat2_ses-02_part-02_label-phase2,2020.2.10,MacIntel,60,,,,,left,2.1,2,0.647,right,1.209,0,0,0,0,1,,,,,,,,,,,,,,,,,
,,,,,,,,20,2021-06-06_13h45.30.524,premceCat2_ses-02_part-02_label-phase2,2020.2.10,MacIntel,60,,,,,,,,,,,,,,,,0,60,60,54,1,stimuli/objects/stubbywrench01a.jpg,left,old,198,,,,,,,,
,,,,,,,,20,2021-06-06_13h45.30.524,premceCat2_ses-02_part-02_label-phase2,2020.2.10,MacIntel,60,,,,,left,1.386,4,0.844,left,2.46,0,0,0,0,1,,,,,,,,,,,,,,,,,
,,,,,,,,20,2021-06-06_13h45.30.524,premceCat2_ses-02_part-02_label-phase2,2020.2.10,MacIntel,60,,,,,,,,,,,,,,,,0,61,61,110,1,stimuli/objects/bikewheel.jpg,left,old,254,,,,,,,,
,,,,,,,,20,2021-06-06_13h45.30.524,premceCat2_ses-02_part-02_label-phase2,2020.2.10,MacIntel,60,,,,,right,1.551,3,0.563,,,,,,,,0,62,62,60,1,stimuli/objects/kite.jpg,right,new,204,,,,,,,,
,,,,,,,,20,2021-06-06_13h45.30.524,premceCat2_ses-02_part-02_label-phase2,2020.2.10,MacIntel,60,,,,,right,2.074,4,0.736,,,,,,,,0,63,63,81,1,stimuli/objects/grill.jpg,right,new,225,,,,,,,,
,,,,,,,,20,2021-06-06_13h45.30.524,premceCat2_ses-02_part-02_label-phase2,2020.2.10,MacIntel,60,,,,,left,2.38,3,3.095,right,3.337,0,0,0,0,1,,,,,,,,,,,,,,,,,
,,,,,,,,20,2021-06-06_13h45.30.524,premceCat2_ses-02_part-02_label-phase2,2020.2.10,MacIntel,60,,,,,,,,,,,,,,,,0,64,64,43,1,stimuli/objects/bowrake.jpg,right,new,187,,,,,,,,
,,,,,,,,20,2021-06-06_13h45.30.524,premceCat2_ses-02_part-02_label-phase2,2020.2.10,MacIntel,60,,,,,right,1.548,4,1.561,,,,,,,,0,65,65,98,1,stimuli/objects/cameracase01a.jpg,right,new,242,,,,,,,,
,,,,,,,,20,2021-06-06_13h45.30.524,premceCat2_ses-02_part-02_label-phase2,2020.2.10,MacIntel,60,,,,,left,2.203,3,0.516,left,2.003,0,0,0,0,1,,,,,,,,,,,,,,,,,
,,,,,,,,20,2021-06-06_13h45.30.524,premceCat2_ses-02_part-02_label-phase2,2020.2.10,MacIntel,60,,,,,,,,,,,,,,,,0,66,66,109,1,stimuli/objects/peeler01.jpg,left,old,253,,,,,,,,
,,,,,,,,20,2021-06-06_13h45.30.524,premceCat2_ses-02_part-02_label-phase2,2020.2.10,MacIntel,60,,,,,right,1.55,3,2.127,,,,,,,,0,67,67,24,1,stimuli/objects/monitor.jpg,right,new,168,,,,,,,,
,,,,,,,,20,2021-06-06_13h45.30.524,premceCat2_ses-02_part-02_label-phase2,2020.2.10,MacIntel,60,,,,,left,1.122,4,0.597,right,3.093,0,0,0,0,1,,,,,,,,,,,,,,,,,
,,,,,,,,20,2021-06-06_13h45.30.524,premceCat2_ses-02_part-02_label-phase2,2020.2.10,MacIntel,60,,,,,,,,,,,,,,,,0,68,68,29,1,stimuli/objects/ipod.jpg,left,old,173,,,,,,,,
,,,,,,,,20,2021-06-06_13h45.30.524,premceCat2_ses-02_part-02_label-phase2,2020.2.10,MacIntel,60,,,,,right,1.266,3,1.378,,,,,,,,0,69,69,86,1,stimuli/objects/trampoline.jpg,right,new,230,,,,,,,,
,,,,,,,,20,2021-06-06_13h45.30.524,premceCat2_ses-02_part-02_label-phase2,2020.2.10,MacIntel,60,,,,,right,1.37,3,0.433,,,,,,,,0,70,70,101,1,stimuli/objects/lifejacket.jpg,right,new,245,,,,,,,,
,,,,,,,,20,2021-06-06_13h45.30.524,premceCat2_ses-02_part-02_label-phase2,2020.2.10,MacIntel,60,,,,,left,1.22,4,0.597,left,2.204,0,0,0,0,1,,,,,,,,,,,,,,,,,
,,,,,,,,20,2021-06-06_13h45.30.524,premceCat2_ses-02_part-02_label-phase2,2020.2.10,MacIntel,60,,,,,,,,,,,,,,,,0,71,71,50,1,stimuli/objects/magneticcompass.jpg,left,old,194,,,,,,,,
,,,,,,,,20,2021-06-06_13h45.30.524,premceCat2_ses-02_part-02_label-phase2,2020.2.10,MacIntel,60,,,,,right,2.12,2,1.082,,,,,,,,0,72,72,52,1,stimuli/objects/extensioncord.jpg,left,old,196,,,,,,,,
,,,,,,,,20,2021-06-06_13h45.30.524,premceCat2_ses-02_part-02_label-phase2,2020.2.10,MacIntel,60,,,,,left,1.381,4,1.051,left,3.264,0,0,0,0,1,,,,,,,,,,,,,,,,,
,,,,,,,,20,2021-06-06_13h45.30.524,premceCat2_ses-02_part-02_label-phase2,2020.2.10,MacIntel,60,,,,,,,,,,,,,,,,0,73,73,17,1,stimuli/objects/propanetank01.jpg,left,old,161,,,,,,,,
,,,,,,,,20,2021-06-06_13h45.30.524,premceCat2_ses-02_part-02_label-phase2,2020.2.10,MacIntel,60,,,,,right,3.318,3,1.912,,,,,,,,0,74,74,68,1,stimuli/objects/ladle02a.jpg,right,new,212,,,,,,,,
,,,,,,,,20,2021-06-06_13h45.30.524,premceCat2_ses-02_part-02_label-phase2,2020.2.10,MacIntel,60,,,,,left,1.452,4,1.948,right,3.493,0,0,0,0,1,,,,,,,,,,,,,,,,,
,,,,,,,,20,2021-06-06_13h45.30.524,premceCat2_ses-02_part-02_label-phase2,2020.2.10,MacIntel,60,,,,,,,,,,,,,,,,0,75,75,112,1,stimuli/objects/filmroll.jpg,left,old,256,,,,,,,,
,,,,,,,,20,2021-06-06_13h45.30.524,premceCat2_ses-02_part-02_label-phase2,2020.2.10,MacIntel,60,,,,,right,3.928,2,2.066,,,,,,,,0,76,76,36,1,stimuli/objects/loppingshears.jpg,right,new,180,,,,,,,,
,,,,,,,,20,2021-06-06_13h45.30.524,premceCat2_ses-02_part-02_label-phase2,2020.2.10,MacIntel,60,,,,,left,1.567,3,1.829,right,2.842,0,0,0,0,1,,,,,,,,,,,,,,,,,
,,,,,,,,20,2021-06-06_13h45.30.524,premceCat2_ses-02_part-02_label-phase2,2020.2.10,MacIntel,60,,,,,,,,,,,,,,,,0,77,77,11,1,stimuli/objects/antenna.jpg,left,old,155,,,,,,,,
,,,,,,,,20,2021-06-06_13h45.30.524,premceCat2_ses-02_part-02_label-phase2,2020.2.10,MacIntel,60,,,,,right,2.028,3,2.169,,,,,,,,0,78,78,78,1,stimuli/objects/lightswitch01.jpg,right,new,222,,,,,,,,
,,,,,,,,20,2021-06-06_13h45.30.524,premceCat2_ses-02_part-02_label-phase2,2020.2.10,MacIntel,60,,,,,left,2.309,2,0.863,right,4.859,0,0,0,0,1,,,,,,,,,,,,,,,,,
,,,,,,,,20,2021-06-06_13h45.30.524,premceCat2_ses-02_part-02_label-phase2,2020.2.10,MacIntel,60,,,,,,,,,,,,,,,,0,79,79,100,1,stimuli/objects/lawnmower.jpg,left,old,244,,,,,,,,
,,,,,,,,20,2021-06-06_13h45.30.524,premceCat2_ses-02_part-02_label-phase2,2020.2.10,MacIntel,60,,,,,right,2.532,2,0.832,,,,,,,,0,80,80,127,1,stimuli/objects/skigoggles01.jpg,right,new,271,,,,,,,,
,,,,,,,,20,2021-06-06_13h45.30.524,premceCat2_ses-02_part-02_label-phase2,2020.2.10,MacIntel,60,,,,,left,1.397,4,2.478,left,1.454,0,0,0,0,1,,,,,,,,,,,,,,,,,
,,,,,,,,20,2021-06-06_13h45.30.524,premceCat2_ses-02_part-02_label-phase2,2020.2.10,MacIntel,60,,,,,,,,,,,,,,,,0,81,81,23,1,stimuli/objects/baseballglove.jpg,left,old,167,,,,,,,,
,,,,,,,,20,2021-06-06_13h45.30.524,premceCat2_ses-02_part-02_label-phase2,2020.2.10,MacIntel,60,,,,,right,2.015,3,5.168,,,,,,,,0,82,82,35,1,stimuli/objects/stroller.jpg,right,new,179,,,,,,,,
,,,,,,,,20,2021-06-06_13h45.30.524,premceCat2_ses-02_part-02_label-phase2,2020.2.10,MacIntel,60,,,,,left,1.185,4,0.416,left,1.86,0,0,0,0,1,,,,,,,,,,,,,,,,,
,,,,,,,,20,2021-06-06_13h45.30.524,premceCat2_ses-02_part-02_label-phase2,2020.2.10,MacIntel,60,,,,,,,,,,,,,,,,0,83,83,32,1,stimuli/objects/potatomasher03b.jpg,left,old,176,,,,,,,,
,,,,,,,,20,2021-06-06_13h45.30.524,premceCat2_ses-02_part-02_label-phase2,2020.2.10,MacIntel,60,,,,,left,1.069,4,0.512,left,2.396,0,0,0,0,1,,,,,,,,,,,,,,,,,
,,,,,,,,20,2021-06-06_13h45.30.524,premceCat2_ses-02_part-02_label-phase2,2020.2.10,MacIntel,60,,,,,,,,,,,,,,,,0,84,84,56,1,stimuli/objects/hourglass.jpg,left,old,200,,,,,,,,
,,,,,,,,20,2021-06-06_13h45.30.524,premceCat2_ses-02_part-02_label-phase2,2020.2.10,MacIntel,60,,,,,right,1.531,2,1.38,,,,,,,,0,85,85,123,1,stimuli/objects/jackhammer.jpg,right,new,267,,,,,,,,
,,,,,,,,20,2021-06-06_13h45.30.524,premceCat2_ses-02_part-02_label-phase2,2020.2.10,MacIntel,60,,,,,right,1.765,4,1.231,,,,,,,,0,86,86,87,1,stimuli/objects/wiicontroller.jpg,right,new,231,,,,,,,,
,,,,,,,,20,2021-06-06_13h45.30.524,premceCat2_ses-02_part-02_label-phase2,2020.2.10,MacIntel,60,,,,,right,1.892,2,1.627,,,,,,,,0,87,87,94,1,stimuli/objects/file.jpg,right,new,238,,,,,,,,
,,,,,,,,20,2021-06-06_13h45.30.524,premceCat2_ses-02_part-02_label-phase2,2020.2.10,MacIntel,60,,,,,right,2.186,2,0.426,,,,,,,,0,88,88,126,1,stimuli/objects/shinpad.jpg,left,old,270,,,,,,,,
,,,,,,,,20,2021-06-06_13h45.30.524,premceCat2_ses-02_part-02_label-phase2,2020.2.10,MacIntel,60,,,,,left,3.005,2,1.294,right,4.708,0,0,0,0,1,,,,,,,,,,,,,,,,,
,,,,,,,,20,2021-06-06_13h45.30.524,premceCat2_ses-02_part-02_label-phase2,2020.2.10,MacIntel,60,,,,,,,,,,,,,,,,0,89,89,21,1,stimuli/objects/adjustablewrench01b.jpg,left,old,165,,,,,,,,
,,,,,,,,20,2021-06-06_13h45.30.524,premceCat2_ses-02_part-02_label-phase2,2020.2.10,MacIntel,60,,,,,right,1.486,1,1.446,,,,,,,,0,90,90,138,1,stimuli/objects/beermug01a.jpg,right,new,282,,,,,,,,
,,,,,,,,20,2021-06-06_13h45.30.524,premceCat2_ses-02_part-02_label-phase2,2020.2.10,MacIntel,60,,,,,left,1.27,4,1.413,left,0.547,0,0,0,0,1,,,,,,,,,,,,,,,,,
,,,,,,,,20,2021-06-06_13h45.30.524,premceCat2_ses-02_part-02_label-phase2,2020.2.10,MacIntel,60,,,,,,,,,,,,,,,,0,91,91,25,1,stimuli/objects/gravyboat.jpg,left,old,169,,,,,,,,
,,,,,,,,20,2021-06-06_13h45.30.524,premceCat2_ses-02_part-02_label-phase2,2020.2.10,MacIntel,60,,,,,right,1.166,3,1.478,,,,,,,,0,92,92,27,1,stimuli/objects/wateringcan.jpg,left,old,171,,,,,,,,
,,,,,,,,20,2021-06-06_13h45.30.524,premceCat2_ses-02_part-02_label-phase2,2020.2.10,MacIntel,60,,,,,right,2.048,2,0.964,,,,,,,,0,93,93,22,1,stimuli/objects/pipewrench.jpg,left,old,166,,,,,,,,
,,,,,,,,20,2021-06-06_13h45.30.524,premceCat2_ses-02_part-02_label-phase2,2020.2.10,MacIntel,60,,,,,right,1.235,3,1.13,,,,,,,,0,94,94,82,1,stimuli/objects/shopvac.jpg,right,new,226,,,,,,,,
,,,,,,,,20,2021-06-06_13h45.30.524,premceCat2_ses-02_part-02_label-phase2,2020.2.10,MacIntel,60,,,,,right,1.807,3,0.6,,,,,,,,0,95,95,95,1,stimuli/objects/tennisball01b.jpg,right,new,239,,,,,,,,
,,,,,,,,20,2021-06-06_13h45.30.524,premceCat2_ses-02_part-02_label-phase2,2020.2.10,MacIntel,60,,,,,left,1.636,3,1.631,right,1.193,0,0,0,0,1,,,,,,,,,,,,,,,,,
,,,,,,,,20,2021-06-06_13h45.30.524,premceCat2_ses-02_part-02_label-phase2,2020.2.10,MacIntel,60,,,,,,,,,,,,,,,,0,96,96,18,1,stimuli/objects/dvdplayer.jpg,left,old,162,,,,,,,,
,,,,,,,,20,2021-06-06_13h45.30.524,premceCat2_ses-02_part-02_label-phase2,2020.2.10,MacIntel,60,,,,,left,1.602,4,0.394,left,0.595,0,0,0,0,1,,,,,,,,,,,,,,,,,
,,,,,,,,20,2021-06-06_13h45.30.524,premceCat2_ses-02_part-02_label-phase2,2020.2.10,MacIntel,60,,,,,,,,,,,,,,,,0,97,97,58,1,stimuli/objects/ellipticalmachine.jpg,left,old,202,,,,,,,,
,,,,,,,,20,2021-06-06_13h45.30.524,premceCat2_ses-02_part-02_label-phase2,2020.2.10,MacIntel,60,,,,,right,1.338,3,0.662,,,,,,,,0,98,98,19,1,stimuli/objects/mug01.jpg,right,new,163,,,,,,,,
,,,,,,,,20,2021-06-06_13h45.30.524,premceCat2_ses-02_part-02_label-phase2,2020.2.10,MacIntel,60,,,,,right,1.136,3,0.362,,,,,,,,0,99,99,135,1,stimuli/objects/mortarandpestle.jpg,right,new,279,,,,,,,,
,,,,,,,,20,2021-06-06_13h45.30.524,premceCat2_ses-02_part-02_label-phase2,2020.2.10,MacIntel,60,,,,,right,1.619,3,0.328,,,,,,,,0,100,100,140,1,stimuli/objects/wineglass01.jpg,right,new,284,,,,,,,,
,,,,,,,,20,2021-06-06_13h45.30.524,premceCat2_ses-02_part-02_label-phase2,2020.2.10,MacIntel,60,,,,,left,1.074,4,0.512,left,4.115,0,0,0,0,1,,,,,,,,,,,,,,,,,
,,,,,,,,20,2021-06-06_13h45.30.524,premceCat2_ses-02_part-02_label-phase2,2020.2.10,MacIntel,60,,,,,,,,,,,,,,,,0,101,101,134,1,stimuli/objects/filmnegative.jpg,left,old,278,,,,,,,,
,,,,,,,,20,2021-06-06_13h45.30.524,premceCat2_ses-02_part-02_label-phase2,2020.2.10,MacIntel,60,,,,,left,3.483,3,0.528,right,0.599,0,0,0,0,1,,,,,,,,,,,,,,,,,
,,,,,,,,20,2021-06-06_13h45.30.524,premceCat2_ses-02_part-02_label-phase2,2020.2.10,MacIntel,60,,,,,,,,,,,,,,,,0,102,102,67,1,stimuli/objects/nintendods.jpg,left,old,211,,,,,,,,
,,,,,,,,20,2021-06-06_13h45.30.524,premceCat2_ses-02_part-02_label-phase2,2020.2.10,MacIntel,60,,,,,right,1.704,2,0.733,,,,,,,,0,103,103,55,1,stimuli/objects/fonduefork01.jpg,right,new,199,,,,,,,,
,,,,,,,,20,2021-06-06_13h45.30.524,premceCat2_ses-02_part-02_label-phase2,2020.2.10,MacIntel,60,,,,,right,2.887,2,0.396,,,,,,,,0,104,104,10,1,stimuli/objects/downhillski.jpg,left,old,154,,,,,,,,
,,,,,,,,20,2021-06-06_13h45.30.524,premceCat2_ses-02_part-02_label-phase2,2020.2.10,MacIntel,60,,,,,right,2.37,3,0.95,,,,,,,,0,105,105,66,1,stimuli/objects/heatpump.jpg,right,new,210,,,,,,,,
,,,,,,,,20,2021-06-06_13h45.30.524,premceCat2_ses-02_part-02_label-phase2,2020.2.10,MacIntel,60,,,,,right,1.189,3,0.564,,,,,,,,0,106,106,102,1,stimuli/objects/beachumbrella01.jpg,right,new,246,,,,,,,,
,,,,,,,,20,2021-06-06_13h45.30.524,premceCat2_ses-02_part-02_label-phase2,2020.2.10,MacIntel,60,,,,,left,4.052,3,0.827,left,3.527,0,0,0,0,1,,,,,,,,,,,,,,,,,
,,,,,,,,20,2021-06-06_13h45.30.524,premceCat2_ses-02_part-02_label-phase2,2020.2.10,MacIntel,60,,,,,,,,,,,,,,,,0,107,107,88,1,stimuli/objects/charcoalbarbecue.jpg,left,old,232,,,,,,,,
,,,,,,,,20,2021-06-06_13h45.30.524,premceCat2_ses-02_part-02_label-phase2,2020.2.10,MacIntel,60,,,,,right,1.117,3,0.309,,,,,,,,0,108,108,51,1,stimuli/objects/cheeseknife01.jpg,right,new,195,,,,,,,,
,,,,,,,,20,2021-06-06_13h45.30.524,premceCat2_ses-02_part-02_label-phase2,2020.2.10,MacIntel,60,,,,,left,1.134,4,0.346,right,0.934,0,0,0,0,1,,,,,,,,,,,,,,,,,
,,,,,,,,20,2021-06-06_13h45.30.524,premceCat2_ses-02_part-02_label-phase2,2020.2.10,MacIntel,60,,,,,,,,,,,,,,,,0,109,109,1,1,stimuli/objects/expansioncard.jpg,left,old,145,,,,,,,,
,,,,,,,,20,2021-06-06_13h45.30.524,premceCat2_ses-02_part-02_label-phase2,2020.2.10,MacIntel,60,,,,,right,1.021,3,0.63,,,,,,,,0,110,110,83,1,stimuli/objects/icecubetray01a.jpg,right,new,227,,,,,,,,
,,,,,,,,20,2021-06-06_13h45.30.524,premceCat2_ses-02_part-02_label-phase2,2020.2.10,MacIntel,60,,,,,right,1.588,2,1.748,,,,,,,,0,111,111,122,1,stimuli/objects/hockeystick.jpg,right,new,266,,,,,,,,
,,,,,,,,20,2021-06-06_13h45.30.524,premceCat2_ses-02_part-02_label-phase2,2020.2.10,MacIntel,60,,,,,right,2.521,3,0.328,,,,,,,,0,112,112,12,1,stimuli/objects/fanheater.jpg,right,new,156,,,,,,,,
,,,,,,,,20,2021-06-06_13h45.30.524,premceCat2_ses-02_part-02_label-phase2,2020.2.10,MacIntel,60,,,,,left,1.304,3,1.447,left,0.377,0,0,0,0,1,,,,,,,,,,,,,,,,,
,,,,,,,,20,2021-06-06_13h45.30.524,premceCat2_ses-02_part-02_label-phase2,2020.2.10,MacIntel,60,,,,,,,,,,,,,,,,0,113,113,97,1,stimuli/objects/shotglass.jpg,left,old,241,,,,,,,,
,,,,,,,,20,2021-06-06_13h45.30.524,premceCat2_ses-02_part-02_label-phase2,2020.2.10,MacIntel,60,,,,,right,4.469,2,1.559,,,,,,,,0,114,114,80,1,stimuli/objects/barbecue03.jpg,right,new,224,,,,,,,,
,,,,,,,,20,2021-06-06_13h45.30.524,premceCat2_ses-02_part-02_label-phase2,2020.2.10,MacIntel,60,,,,,right,3.089,2,0.45,,,,,,,,0,115,115,3,1,stimuli/objects/boxingglove01.jpg,right,new,147,,,,,,,,
,,,,,,,,20,2021-06-06_13h45.30.524,premceCat2_ses-02_part-02_label-phase2,2020.2.10,MacIntel,60,,,,,right,1.222,3,0.544,,,,,,,,0,116,116,39,1,stimuli/objects/wafflemaker.jpg,right,new,183,,,,,,,,
,,,,,,,,20,2021-06-06_13h45.30.524,premceCat2_ses-02_part-02_label-phase2,2020.2.10,MacIntel,60,,,,,right,3.999,2,0.414,,,,,,,,0,117,117,114,1,stimuli/objects/drinkshaker.jpg,right,new,258,,,,,,,,
,,,,,,,,20,2021-06-06_13h45.30.524,premceCat2_ses-02_part-02_label-phase2,2020.2.10,MacIntel,60,,,,,right,2.656,2,0.41,,,,,,,,0,118,118,49,1,stimuli/objects/cakeplatter.jpg,right,new,193,,,,,,,,
,,,,,,,,20,2021-06-06_13h45.30.524,premceCat2_ses-02_part-02_label-phase2,2020.2.10,MacIntel,60,,,,,right,2.556,4,0.249,,,,,,,,0,119,119,16,1,stimuli/objects/bottleopener01.jpg,right,new,160,,,,,,,,
,,,,,,,,20,2021-06-06_13h45.30.524,premceCat2_ses-02_part-02_label-phase2,2020.2.10,MacIntel,60,,,,,right,2.187,4,0.587,,,,,,,,0,120,120,26,1,stimuli/objects/flashlight02b.jpg,right,new,170,,,,,,,,
,,,,,,,,20,2021-06-06_13h45.30.524,premceCat2_ses-02_part-02_label-phase2,2020.2.10,MacIntel,60,,,,,right,2.339,2,0.431,,,,,,,,0,121,121,30,1,stimuli/objects/halogenlightbulb.jpg,right,new,174,,,,,,,,
,,,,,,,,20,2021-06-06_13h45.30.524,premceCat2_ses-02_part-02_label-phase2,2020.2.10,MacIntel,60,,,,,left,4.522,2,0.929,right,0.558,0,0,0,0,1,,,,,,,,,,,,,,,,,
,,,,,,,,20,2021-06-06_13h45.30.524,premceCat2_ses-02_part-02_label-phase2,2020.2.10,MacIntel,60,,,,,,,,,,,,,,,,0,122,122,96,1,stimuli/objects/knifesharpener.jpg,left,old,240,,,,,,,,
,,,,,,,,20,2021-06-06_13h45.30.524,premceCat2_ses-02_part-02_label-phase2,2020.2.10,MacIntel,60,,,,,left,1.57,3,1.161,right,0.681,0,0,0,0,1,,,,,,,,,,,,,,,,,
,,,,,,,,20,2021-06-06_13h45.30.524,premceCat2_ses-02_part-02_label-phase2,2020.2.10,MacIntel,60,,,,,,,,,,,,,,,,0,123,123,93,1,stimuli/objects/axe01.jpg,left,old,237,,,,,,,,
,,,,,,,,20,2021-06-06_13h45.30.524,premceCat2_ses-02_part-02_label-phase2,2020.2.10,MacIntel,60,,,,,right,1.3,3,1.929,,,,,,,,0,124,124,5,1,stimuli/objects/pickaxe02.jpg,right,new,149,,,,,,,,
,,,,,,,,20,2021-06-06_13h45.30.524,premceCat2_ses-02_part-02_label-phase2,2020.2.10,MacIntel,60,,,,,right,1.107,4,0.447,,,,,,,,0,125,125,2,1,stimuli/objects/wetfloorsign.jpg,right,new,146,,,,,,,,
,,,,,,,,20,2021-06-06_13h45.30.524,premceCat2_ses-02_part-02_label-phase2,2020.2.10,MacIntel,60,,,,,right,2.852,2,0.644,,,,,,,,0,126,126,132,1,stimuli/objects/wirestripper.jpg,right,new,276,,,,,,,,
,,,,,,,,20,2021-06-06_13h45.30.524,premceCat2_ses-02_part-02_label-phase2,2020.2.10,MacIntel,60,,,,,right,3.281,3,0.493,,,,,,,,0,127,127,48,1,stimuli/objects/eggslicer.jpg,right,new,192,,,,,,,,
,,,,,,,,20,2021-06-06_13h45.30.524,premceCat2_ses-02_part-02_label-phase2,2020.2.10,MacIntel,60,,,,,left,1.373,3,0.5,right,2.331,0,0,0,0,1,,,,,,,,,,,,,,,,,
,,,,,,,,20,2021-06-06_13h45.30.524,premceCat2_ses-02_part-02_label-phase2,2020.2.10,MacIntel,60,,,,,,,,,,,,,,,,0,128,128,13,1,stimuli/objects/leafrake.jpg,left,old,157,,,,,,,,
,,,,,,,,20,2021-06-06_13h45.30.524,premceCat2_ses-02_part-02_label-phase2,2020.2.10,MacIntel,60,,,,,right,1.485,3,2.816,,,,,,,,0,129,129,62,1,stimuli/objects/spoon01.jpg,left,old,206,,,,,,,,
,,,,,,,,20,2021-06-06_13h45.30.524,premceCat2_ses-02_part-02_label-phase2,2020.2.10,MacIntel,60,,,,,left,2.204,3,1.582,right,5.747,0,0,0,0,1,,,,,,,,,,,,,,,,,
,,,,,,,,20,2021-06-06_13h45.30.524,premceCat2_ses-02_part-02_label-phase2,2020.2.10,MacIntel,60,,,,,,,,,,,,,,,,0,130,130,118,1,stimuli/objects/pressurewasher.jpg,left,old,262,,,,,,,,
,,,,,,,,20,2021-06-06_13h45.30.524,premceCat2_ses-02_part-02_label-phase2,2020.2.10,MacIntel,60,,,,,left,2.195,2,0.845,left,0.712,0,0,0,0,1,,,,,,,,,,,,,,,,,
,,,,,,,,20,2021-06-06_13h45.30.524,premceCat2_ses-02_part-02_label-phase2,2020.2.10,MacIntel,60,,,,,,,,,,,,,,,,0,131,131,38,1,stimuli/objects/rollingpin01a.jpg,left,old,182,,,,,,,,
,,,,,,,,20,2021-06-06_13h45.30.524,premceCat2_ses-02_part-02_label-phase2,2020.2.10,MacIntel,60,,,,,right,1.267,3,1.785,,,,,,,,0,132,132,107,1,stimuli/objects/dolly01.jpg,right,new,251,,,,,,,,
,,,,,,,,20,2021-06-06_13h45.30.524,premceCat2_ses-02_part-02_label-phase2,2020.2.10,MacIntel,60,,,,,right,1.917,3,0.496,,,,,,,,0,133,133,69,1,stimuli/objects/straw.jpg,right,new,213,,,,,,,,
,,,,,,,,20,2021-06-06_13h45.30.524,premceCat2_ses-02_part-02_label-phase2,2020.2.10,MacIntel,60,,,,,left,1.439,4,0.745,left,1.179,0,0,0,0,1,,,,,,,,,,,,,,,,,
,,,,,,,,20,2021-06-06_13h45.30.524,premceCat2_ses-02_part-02_label-phase2,2020.2.10,MacIntel,60,,,,,,,,,,,,,,,,0,134,134,45,1,stimuli/objects/bikelock.jpg,left,old,189,,,,,,,,
,,,,,,,,20,2021-06-06_13h45.30.524,premceCat2_ses-02_part-02_label-phase2,2020.2.10,MacIntel,60,,,,,right,1.87,2,0.384,,,,,,,,0,135,135,104,1,stimuli/objects/lectern01.jpg,left,old,248,,,,,,,,
,,,,,,,,20,2021-06-06_13h45.30.524,premceCat2_ses-02_part-02_label-phase2,2020.2.10,MacIntel,60,,,,,left,1.138,4,0.745,left,1.692,0,0,0,0,1,,,,,,,,,,,,,,,,,
,,,,,,,,20,2021-06-06_13h45.30.524,premceCat2_ses-02_part-02_label-phase2,2020.2.10,MacIntel,60,,,,,,,,,,,,,,,,0,136,136,119,1,stimuli/objects/cookiecutter.jpg,left,old,263,,,,,,,,
,,,,,,,,20,2021-06-06_13h45.30.524,premceCat2_ses-02_part-02_label-phase2,2020.2.10,MacIntel,60,,,,,left,1.504,3,0.712,right,0.394,0,0,0,0,1,,,,,,,,,,,,,,,,,
,,,,,,,,20,2021-06-06_13h45.30.524,premceCat2_ses-02_part-02_label-phase2,2020.2.10,MacIntel,60,,,,,,,,,,,,,,,,0,137,137,33,1,stimuli/objects/ethernetcable02.jpg,left,old,177,,,,,,,,
,,,,,,,,20,2021-06-06_13h45.30.524,premceCat2_ses-02_part-02_label-phase2,2020.2.10,MacIntel,60,,,,,left,1.315,4,0.761,right,0.84,0,0,0,0,1,,,,,,,,,,,,,,,,,
,,,,,,,,20,2021-06-06_13h45.30.524,premceCat2_ses-02_part-02_label-phase2,2020.2.10,MacIntel,60,,,,,,,,,,,,,,,,0,138,138,61,1,stimuli/objects/setsquare.jpg,left,old,205,,,,,,,,
,,,,,,,,20,2021-06-06_13h45.30.524,premceCat2_ses-02_part-02_label-phase2,2020.2.10,MacIntel,60,,,,,left,1.606,3,0.978,left,0.409,0,0,0,0,1,,,,,,,,,,,,,,,,,
,,,,,,,,20,2021-06-06_13h45.30.524,premceCat2_ses-02_part-02_label-phase2,2020.2.10,MacIntel,60,,,,,,,,,,,,,,,,0,139,139,42,1,stimuli/objects/tennisracket.jpg,right,new,186,,,,,,,,
,,,,,,,,20,2021-06-06_13h45.30.524,premceCat2_ses-02_part-02_label-phase2,2020.2.10,MacIntel,60,,,,,left,1.127,4,1.078,left,0.545,0,0,0,0,1,,,,,,,,,,,,,,,,,
,,,,,,,,20,2021-06-06_13h45.30.524,premceCat2_ses-02_part-02_label-phase2,2020.2.10,MacIntel,60,,,,,,,,,,,,,,,,0,140,140,57,1,stimuli/objects/soccerball.jpg,left,old,201,,,,,,,,
,,,,,,,,20,2021-06-06_13h45.30.524,premceCat2_ses-02_part-02_label-phase2,2020.2.10,MacIntel,60,,,,,left,1.938,2,0.667,left,4.106,0,0,0,0,1,,,,,,,,,,,,,,,,,
,,,,,,,,20,2021-06-06_13h45.30.524,premceCat2_ses-02_part-02_label-phase2,2020.2.10,MacIntel,60,,,,,,,,,,,,,,,,0,141,141,14,1,stimuli/objects/canoepaddle02.jpg,left,old,158,,,,,,,,
,,,,,,,,20,2021-06-06_13h45.30.524,premceCat2_ses-02_part-02_label-phase2,2020.2.10,MacIntel,60,,,,,right,1.182,3,1.176,,,,,,,,0,142,142,41,1,stimuli/objects/flask.jpg,right,new,185,,,,,,,,
,,,,,,,,20,2021-06-06_13h45.30.524,premceCat2_ses-02_part-02_label-phase2,2020.2.10,MacIntel,60,,,,,,,,,,,,,,,,,,,,,,,,,space,35.718,0,0,0,1,1,condition_files/ImagesforRecog1_2.csv
,,,,,,,,20,2021-06-06_13h45.30.524,premceCat2_ses-02_part-02_label-phase2,2020.2.10,MacIntel,60,,,,,right,3.666,3,0.802,,,,,,,,0,0,0,141,1,stimuli/objects/generator.jpg,right,new,142,,,,,,,,
,,,,,,,,20,2021-06-06_13h45.30.524,premceCat2_ses-02_part-02_label-phase2,2020.2.10,MacIntel,60,,,,,left,1.636,4,1.283,right,1.266,0,0,0,0,1,,,,,,,,,,,,,,,,,
,,,,,,,,20,2021-06-06_13h45.30.524,premceCat2_ses-02_part-02_label-phase2,2020.2.10,MacIntel,60,,,,,,,,,,,,,,,,0,1,1,69,1,stimuli/objects/atm.jpg,left,old,70,,,,,,,,
,,,,,,,,20,2021-06-06_13h45.30.524,premceCat2_ses-02_part-02_label-phase2,2020.2.10,MacIntel,60,,,,,left,1.936,3,1.346,left,0.31,0,0,0,0,1,,,,,,,,,,,,,,,,,
,,,,,,,,20,2021-06-06_13h45.30.524,premceCat2_ses-02_part-02_label-phase2,2020.2.10,MacIntel,60,,,,,,,,,,,,,,,,0,2,2,70,1,stimuli/objects/oven.jpg,left,old,71,,,,,,,,
,,,,,,,,20,2021-06-06_13h45.30.524,premceCat2_ses-02_part-02_label-phase2,2020.2.10,MacIntel,60,,,,,left,1.704,3,0.512,left,0.311,0,0,0,0,1,,,,,,,,,,,,,,,,,
,,,,,,,,20,2021-06-06_13h45.30.524,premceCat2_ses-02_part-02_label-phase2,2020.2.10,MacIntel,60,,,,,,,,,,,,,,,,0,3,3,114,1,stimuli/objects/pitcher02b.jpg,left,old,115,,,,,,,,
,,,,,,,,20,2021-06-06_13h45.30.524,premceCat2_ses-02_part-02_label-phase2,2020.2.10,MacIntel,60,,,,,left,2.24,4,0.297,left,0.361,0,0,0,0,1,,,,,,,,,,,,,,,,,
,,,,,,,,20,2021-06-06_13h45.30.524,premceCat2_ses-02_part-02_label-phase2,2020.2.10,MacIntel,60,,,,,,,,,,,,,,,,0,4,4,98,1,stimuli/objects/toyhockeystick01.jpg,left,old,99,,,,,,,,
,,,,,,,,20,2021-06-06_13h45.30.524,premceCat2_ses-02_part-02_label-phase2,2020.2.10,MacIntel,60,,,,,left,2.15,4,1.148,left,4.081,0,0,0,0,1,,,,,,,,,,,,,,,,,
,,,,,,,,20,2021-06-06_13h45.30.524,premceCat2_ses-02_part-02_label-phase2,2020.2.10,MacIntel,60,,,,,,,,,,,,,,,,0,5,5,15,1,stimuli/objects/spicerack.jpg,left,old,16,,,,,,,,
,,,,,,,,20,2021-06-06_13h45.30.524,premceCat2_ses-02_part-02_label-phase2,2020.2.10,MacIntel,60,,,,,right,1.397,3,0.795,,,,,,,,0,6,6,18,1,stimuli/objects/cashregister01.jpg,right,new,19,,,,,,,,
,,,,,,,,20,2021-06-06_13h45.30.524,premceCat2_ses-02_part-02_label-phase2,2020.2.10,MacIntel,60,,,,,left,1.166,3,0.713,left,0.327,0,0,0,0,1,,,,,,,,,,,,,,,,,
,,,,,,,,20,2021-06-06_13h45.30.524,premceCat2_ses-02_part-02_label-phase2,2020.2.10,MacIntel,60,,,,,,,,,,,,,,,,0,7,7,124,1,stimuli/objects/baseball01a.jpg,left,old,125,,,,,,,,
,,,,,,,,20,2021-06-06_13h45.30.524,premceCat2_ses-02_part-02_label-phase2,2020.2.10,MacIntel,60,,,,,left,2.222,3,1.364,right,3.932,0,0,0,0,1,,,,,,,,,,,,,,,,,
,,,,,,,,20,2021-06-06_13h45.30.524,premceCat2_ses-02_part-02_label-phase2,2020.2.10,MacIntel,60,,,,,,,,,,,,,,,,0,8,8,95,1,stimuli/objects/telephone01b.jpg,left,old,96,,,,,,,,
,,,,,,,,20,2021-06-06_13h45.30.524,premceCat2_ses-02_part-02_label-phase2,2020.2.10,MacIntel,60,,,,,left,1.728,3,0.659,right,0.617,0,0,0,0,1,,,,,,,,,,,,,,,,,
,,,,,,,,20,2021-06-06_13h45.30.524,premceCat2_ses-02_part-02_label-phase2,2020.2.10,MacIntel,60,,,,,,,,,,,,,,,,0,9,9,79,1,stimuli/objects/gps.jpg,left,old,80,,,,,,,,
,,,,,,,,20,2021-06-06_13h45.30.524,premceCat2_ses-02_part-02_label-phase2,2020.2.10,MacIntel,60,,,,,left,0.939,4,0.649,left,0.479,0,0,0,0,1,,,,,,,,,,,,,,,,,
,,,,,,,,20,2021-06-06_13h45.30.524,premceCat2_ses-02_part-02_label-phase2,2020.2.10,MacIntel,60,,,,,,,,,,,,,,,,0,10,10,3,1,stimuli/objects/towel01.jpg,left,old,4,,,,,,,,
,,,,,,,,20,2021-06-06_13h45.30.524,premceCat2_ses-02_part-02_label-phase2,2020.2.10,MacIntel,60,,,,,left,2.406,3,0.346,left,0.331,0,0,0,0,1,,,,,,,,,,,,,,,,,
,,,,,,,,20,2021-06-06_13h45.30.524,premceCat2_ses-02_part-02_label-phase2,2020.2.10,MacIntel,60,,,,,,,,,,,,,,,,0,11,11,123,1,stimuli/objects/breadknife.jpg,left,old,124,,,,,,,,
,,,,,,,,20,2021-06-06_13h45.30.524,premceCat2_ses-02_part-02_label-phase2,2020.2.10,MacIntel,60,,,,,right,1.704,3,0.361,,,,,,,,0,12,12,51,1,stimuli/objects/webcam.jpg,right,new,52,,,,,,,,
,,,,,,,,20,2021-06-06_13h45.30.524,premceCat2_ses-02_part-02_label-phase2,2020.2.10,MacIntel,60,,,,,right,1.004,3,0.375,,,,,,,,0,13,13,4,1,stimuli/objects/microphone01.jpg,right,new,5,,,,,,,,
,,,,,,,,20,2021-06-06_13h45.30.524,premceCat2_ses-02_part-02_label-phase2,2020.2.10,MacIntel,60,,,,,right,1.654,3,0.377,,,,,,,,0,14,14,73,1,stimuli/objects/clock01a.jpg,right,new,74,,,,,,,,
,,,,,,,,20,2021-06-06_13h45.30.524,premceCat2_ses-02_part-02_label-phase2,2020.2.10,MacIntel,60,,,,,right,2.016,2,0.329,,,,,,,,0,15,15,16,1,stimuli/objects/wheelbarrow01.jpg,left,old,17,,,,,,,,
,,,,,,,,20,2021-06-06_13h45.30.524,premceCat2_ses-02_part-02_label-phase2,2020.2.10,MacIntel,60,,,,,right,1.602,3,0.428,,,,,,,,0,16,16,131,1,stimuli/objects/spotlight.jpg,right,new,132,,,,,,,,
,,,,,,,,20,2021-06-06_13h45.30.524,premceCat2_ses-02_part-02_label-phase2,2020.2.10,MacIntel,60,,,,,right,2.537,2,0.446,,,,,,,,0,17,17,32,1,stimuli/objects/mitresaw.jpg,right,new,33,,,,,,,,
,,,,,,,,20,2021-06-06_13h45.30.524,premceCat2_ses-02_part-02_label-phase2,2020.2.10,MacIntel,60,,,,,right,4.275,3,1.052,,,,,,,,0,18,18,60,1,stimuli/objects/glass02a.jpg,right,new,61,,,,,,,,
,,,,,,,,20,2021-06-06_13h45.30.524,premceCat2_ses-02_part-02_label-phase2,2020.2.10,MacIntel,60,,,,,left,1.635,2,0.661,right,0.433,0,0,0,0,1,,,,,,,,,,,,,,,,,
,,,,,,,,20,2021-06-06_13h45.30.524,premceCat2_ses-02_part-02_label-phase2,2020.2.10,MacIntel,60,,,,,,,,,,,,,,,,0,19,19,132,1,stimuli/objects/airconditioner.jpg,left,old,133,,,,,,,,
,,,,,,,,20,2021-06-06_13h45.30.524,premceCat2_ses-02_part-02_label-phase2,2020.2.10,MacIntel,60,,,,,left,1.432,4,0.447,right,0.396,0,0,0,0,1,,,,,,,,,,,,,,,,,
,,,,,,,,20,2021-06-06_13h45.30.524,premceCat2_ses-02_part-02_label-phase2,2020.2.10,MacIntel,60,,,,,,,,,,,,,,,,0,20,20,122,1,stimuli/objects/wire.jpg,left,old,123,,,,,,,,
,,,,,,,,20,2021-06-06_13h45.30.524,premceCat2_ses-02_part-02_label-phase2,2020.2.10,MacIntel,60,,,,,left,1.149,4,0.512,right,0.361,0,0,0,0,1,,,,,,,,,,,,,,,,,
,,,,,,,,20,2021-06-06_13h45.30.524,premceCat2_ses-02_part-02_label-phase2,2020.2.10,MacIntel,60,,,,,,,,,,,,,,,,0,21,21,104,1,stimuli/objects/securitycamera.jpg,left,old,105,,,,,,,,
,,,,,,,,20,2021-06-06_13h45.30.524,premceCat2_ses-02_part-02_label-phase2,2020.2.10,MacIntel,60,,,,,right,1.337,3,0.578,,,,,,,,0,22,22,41,1,stimuli/objects/pylon01.jpg,right,new,42,,,,,,,,
,,,,,,,,20,2021-06-06_13h45.30.524,premceCat2_ses-02_part-02_label-phase2,2020.2.10,MacIntel,60,,,,,right,1.12,3,0.295,,,,,,,,0,23,23,72,1,stimuli/objects/cclamp.jpg,right,new,73,,,,,,,,
,,,,,,,,20,2021-06-06_13h45.30.524,premceCat2_ses-02_part-02_label-phase2,2020.2.10,MacIntel,60,,,,,right,1.257,3,0.299,,,,,,,,0,24,24,57,1,stimuli/objects/audiocablesplitter.jpg,right,new,58,,,,,,,,
,,,,,,,,20,2021-06-06_13h45.30.524,premceCat2_ses-02_part-02_label-phase2,2020.2.10,MacIntel,60,,,,,left,1.589,3,1.213,right,0.292,0,0,0,0,1,,,,,,,,,,,,,,,,,
,,,,,,,,20,2021-06-06_13h45.30.524,premceCat2_ses-02_part-02_label-phase2,2020.2.10,MacIntel,60,,,,,,,,,,,,,,,,0,25,25,14,1,stimuli/objects/mallet01b.jpg,left,old,15,,,,,,,,
,,,,,,,,20,2021-06-06_13h45.30.524,premceCat2_ses-02_part-02_label-phase2,2020.2.10,MacIntel,60,,,,,right,1.521,2,0.43,,,,,,,,0,26,26,106,1,stimuli/objects/minifridge.jpg,right,new,107,,,,,,,,
,,,,,,,,20,2021-06-06_13h45.30.524,premceCat2_ses-02_part-02_label-phase2,2020.2.10,MacIntel,60,,,,,right,2.9,2,0.643,,,,,,,,0,27,27,113,1,stimuli/objects/powercable.jpg,right,new,114,,,,,,,,
,,,,,,,,20,2021-06-06_13h45.30.524,premceCat2_ses-02_part-02_label-phase2,2020.2.10,MacIntel,60,,,,,left,1.039,4,0.649,left,0.891,0,0,0,0,1,,,,,,,,,,,,,,,,,
,,,,,,,,20,2021-06-06_13h45.30.524,premceCat2_ses-02_part-02_label-phase2,2020.2.10,MacIntel,60,,,,,,,,,,,,,,,,0,28,28,52,1,stimuli/objects/bottlecap.jpg,left,old,53,,,,,,,,
,,,,,,,,20,2021-06-06_13h45.30.524,premceCat2_ses-02_part-02_label-phase2,2020.2.10,MacIntel,60,,,,,right,1.456,4,1.579,,,,,,,,0,29,29,42,1,stimuli/objects/snowshoe.jpg,right,new,43,,,,,,,,
,,,,,,,,20,2021-06-06_13h45.30.524,premceCat2_ses-02_part-02_label-phase2,2020.2.10,MacIntel,60,,,,,left,1.015,4,0.646,left,1.129,0,0,0,0,1,,,,,,,,,,,,,,,,,
,,,,,,,,20,2021-06-06_13h45.30.524,premceCat2_ses-02_part-02_label-phase2,2020.2.10,MacIntel,60,,,,,,,,,,,,,,,,0,30,30,102,1,stimuli/objects/skihelmet01.jpg,left,old,103,,,,,,,,
,,,,,,,,20,2021-06-06_13h45.30.524,premceCat2_ses-02_part-02_label-phase2,2020.2.10,MacIntel,60,,,,,left,1.973,3,0.431,left,0.76,0,0,0,0,1,,,,,,,,,,,,,,,,,
,,,,,,,,20,2021-06-06_13h45.30.524,premceCat2_ses-02_part-02_label-phase2,2020.2.10,MacIntel,60,,,,,,,,,,,,,,,,0,31,31,78,1,stimuli/objects/servingspoon01.jpg,left,old,79,,,,,,,,
,,,,,,,,20,2021-06-06_13h45.30.524,premceCat2_ses-02_part-02_label-phase2,2020.2.10,MacIntel,60,,,,,left,1.279,3,0.359,right,0.679,0,0,0,0,1,,,,,,,,,,,,,,,,,
,,,,,,,,20,2021-06-06_13h45.30.524,premceCat2_ses-02_part-02_label-phase2,2020.2.10,MacIntel,60,,,,,,,,,,,,,,,,0,32,32,10,1,stimuli/objects/vhstape.jpg,left,old,11,,,,,,,,
,,,,,,,,20,2021-06-06_13h45.30.524,premceCat2_ses-02_part-02_label-phase2,2020.2.10,MacIntel,60,,,,,left,1.137,3,0.962,right,0.378,0,0,0,0,1,,,,,,,,,,,,,,,,,
,,,,,,,,20,2021-06-06_13h45.30.524,premceCat2_ses-02_part-02_label-phase2,2020.2.10,MacIntel,60,,,,,,,,,,,,,,,,0,33,33,29,1,stimuli/objects/ipad02.jpg,left,old,30,,,,,,,,
,,,,,,,,20,2021-06-06_13h45.30.524,premceCat2_ses-02_part-02_label-phase2,2020.2.10,MacIntel,60,,,,,left,2.623,3,0.796,left,0.291,0,0,0,0,1,,,,,,,,,,,,,,,,,
,,,,,,,,20,2021-06-06_13h45.30.524,premceCat2_ses-02_part-02_label-phase2,2020.2.10,MacIntel,60,,,,,,,,,,,,,,,,0,34,34,49,1,stimuli/objects/badmintonracket.jpg,left,old,50,,,,,,,,
,,,,,,,,20,2021-06-06_13h45.30.524,premceCat2_ses-02_part-02_label-phase2,2020.2.10,MacIntel,60,,,,,left,1.788,4,1.38,right,2.283,0,0,0,0,1,,,,,,,,,,,,,,,,,
,,,,,,,,20,2021-06-06_13h45.30.524,premceCat2_ses-02_part-02_label-phase2,2020.2.10,MacIntel,60,,,,,,,,,,,,,,,,0,35,35,0,1,stimuli/objects/phonejack.jpg,left,old,1,,,,,,,,
,,,,,,,,20,2021-06-06_13h45.30.524,premceCat2_ses-02_part-02_label-phase2,2020.2.10,MacIntel,60,,,,,left,2.184,3,0.376,right,0.497,0,0,0,0,1,,,,,,,,,,,,,,,,,
,,,,,,,,20,2021-06-06_13h45.30.524,premceCat2_ses-02_part-02_label-phase2,2020.2.10,MacIntel,60,,,,,,,,,,,,,,,,0,36,36,87,1,stimuli/objects/coffeemachine.jpg,left,old,88,,,,,,,,
,,,,,,,,20,2021-06-06_13h45.30.524,premceCat2_ses-02_part-02_label-phase2,2020.2.10,MacIntel,60,,,,,left,2.002,4,0.357,left,0.395,0,0,0,0,1,,,,,,,,,,,,,,,,,
,,,,,,,,20,2021-06-06_13h45.30.524,premceCat2_ses-02_part-02_label-phase2,2020.2.10,MacIntel,60,,,,,,,,,,,,,,,,0,37,37,34,1,stimuli/objects/surfboard.jpg,left,old,35,,,,,,,,
,,,,,,,,20,2021-06-06_13h45.30.524,premceCat2_ses-02_part-02_label-phase2,2020.2.10,MacIntel,60,,,,,left,2.988,2,0.644,right,0.51,0,0,0,0,1,,,,,,,,,,,,,,,,,
,,,,,,,,20,2021-06-06_13h45.30.524,premceCat2_ses-02_part-02_label-phase2,2020.2.10,MacIntel,60,,,,,,,,,,,,,,,,0,38,38,135,1,stimuli/objects/drillbit03a.jpg,left,old,136,,,,,,,,
,,,,,,,,20,2021-06-06_13h45.30.524,premceCat2_ses-02_part-02_label-phase2,2020.2.10,MacIntel,60,,,,,right,2.033,3,1.166,,,,,,,,0,39,39,20,1,stimuli/objects/laptop01a.jpg,right,new,21,,,,,,,,
,,,,,,,,20,2021-06-06_13h45.30.524,premceCat2_ses-02_part-02_label-phase2,2020.2.10,MacIntel,60,,,,,right,1.005,3,0.781,,,,,,,,0,40,40,139,1,stimuli/objects/frisbee.jpg,right,new,140,,,,,,,,
,,,,,,,,20,2021-06-06_13h45.30.524,premceCat2_ses-02_part-02_label-phase2,2020.2.10,MacIntel,60,,,,,right,1.32,3,0.23,,,,,,,,0,41,41,81,1,stimuli/objects/avcable.jpg,right,new,82,,,,,,,,
,,,,,,,,20,2021-06-06_13h45.30.524,premceCat2_ses-02_part-02_label-phase2,2020.2.10,MacIntel,60,,,,,right,1.072,3,0.189,,,,,,,,0,42,42,110,1,stimuli/objects/lock03a.jpg,right,new,111,,,,,,,,
,,,,,,,,20,2021-06-06_13h45.30.524,premceCat2_ses-02_part-02_label-phase2,2020.2.10,MacIntel,60,,,,,right,1.021,3,0.376,,,,,,,,0,43,43,8,1,stimuli/objects/basketballhoop01.jpg,right,new,9,,,,,,,,
,,,,,,,,20,2021-06-06_13h45.30.524,premceCat2_ses-02_part-02_label-phase2,2020.2.10,MacIntel,60,,,,,right,2.086,2,0.695,,,,,,,,0,44,44,64,1,stimuli/objects/snowshovel.jpg,left,old,65,,,,,,,,
,,,,,,,,20,2021-06-06_13h45.30.524,premceCat2_ses-02_part-02_label-phase2,2020.2.10,MacIntel,60,,,,,right,0.967,3,0.543,,,,,,,,0,45,45,112,1,stimuli/objects/gymnasticring.jpg,right,new,113,,,,,,,,
,,,,,,,,20,2021-06-06_13h45.30.524,premceCat2_ses-02_part-02_label-phase2,2020.2.10,MacIntel,60,,,,,left,1.241,2,0.712,right,0.506,0,0,0,0,1,,,,,,,,,,,,,,,,,
,,,,,,,,20,2021-06-06_13h45.30.524,premceCat2_ses-02_part-02_label-phase2,2020.2.10,MacIntel,60,,,,,,,,,,,,,,,,0,46,46,7,1,stimuli/objects/hammer01.jpg,left,old,8,,,,,,,,
,,,,,,,,20,2021-06-06_13h45.30.524,premceCat2_ses-02_part-02_label-phase2,2020.2.10,MacIntel,60,,,,,left,1.388,4,0.462,left,0.312,0,0,0,0,1,,,,,,,,,,,,,,,,,
,,,,,,,,20,2021-06-06_13h45.30.524,premceCat2_ses-02_part-02_label-phase2,2020.2.10,MacIntel,60,,,,,,,,,,,,,,,,0,47,47,6,1,stimuli/objects/contactlens.jpg,left,old,7,,,,,,,,
,,,,,,,,20,2021-06-06_13h45.30.524,premceCat2_ses-02_part-02_label-phase2,2020.2.10,MacIntel,60,,,,,right,4.269,2,0.701,,,,,,,,0,48,48,76,1,stimuli/objects/megaphone.jpg,right,new,77,,,,,,,,
,,,,,,,,20,2021-06-06_13h45.30.524,premceCat2_ses-02_part-02_label-phase2,2020.2.10,MacIntel,60,,,,,left,1.839,2,0.711,right,0.48,0,0,0,0,1,,,,,,,,,,,,,,,,,
,,,,,,,,20,2021-06-06_13h45.30.524,premceCat2_ses-02_part-02_label-phase2,2020.2.10,MacIntel,60,,,,,,,,,,,,,,,,0,49,49,38,1,stimuli/objects/soundmixer.jpg,right,new,39,,,,,,,,
,,,,,,,,20,2021-06-06_13h45.30.524,premceCat2_ses-02_part-02_label-phase2,2020.2.10,MacIntel,60,,,,,right,2.102,2,1.016,,,,,,,,0,50,50,45,1,stimuli/objects/butterknife.jpg,left,old,46,,,,,,,,
,,,,,,,,20,2021-06-06_13h45.30.524,premceCat2_ses-02_part-02_label-phase2,2020.2.10,MacIntel,60,,,,,right,1.373,3,0.863,,,,,,,,0,51,51,46,1,stimuli/objects/walkman.jpg,right,new,47,,,,,,,,
,,,,,,,,20,2021-06-06_13h45.30.524,premceCat2_ses-02_part-02_label-phase2,2020.2.10,MacIntel,60,,,,,left,0.954,4,0.427,left,0.64,0,0,0,0,1,,,,,,,,,,,,,,,,,
,,,,,,,,20,2021-06-06_13h45.30.524,premceCat2_ses-02_part-02_label-phase2,2020.2.10,MacIntel,60,,,,,,,,,,,,,,,,0,52,52,99,1,stimuli/objects/sewingmachine01a.jpg,left,old,100,,,,,,,,
,,,,,,,,20,2021-06-06_13h45.30.524,premceCat2_ses-02_part-02_label-phase2,2020.2.10,MacIntel,60,,,,,left,3.015,4,0.496,left,0.947,0,0,0,0,1,,,,,,,,,,,,,,,,,
,,,,,,,,20,2021-06-06_13h45.30.524,premceCat2_ses-02_part-02_label-phase2,2020.2.10,MacIntel,60,,,,,,,,,,,,,,,,0,53,53,107,1,stimuli/objects/martiniglass01b.jpg,left,old,108,,,,,,,,
,,,,,,,,20,2021-06-06_13h45.30.524,premceCat2_ses-02_part-02_label-phase2,2020.2.10,MacIntel,60,,,,,right,1.134,3,0.53,,,,,,,,0,54,54,93,1,stimuli/objects/icepack.jpg,right,new,94,,,,,,,,
,,,,,,,,20,2021-06-06_13h45.30.524,premceCat2_ses-02_part-02_label-phase2,2020.2.10,MacIntel,60,,,,,left,1.654,4,0.897,right,0.646,0,0,0,0,1,,,,,,,,,,,,,,,,,
,,,,,,,,20,2021-06-06_13h45.30.524,premceCat2_ses-02_part-02_label-phase2,2020.2.10,MacIntel,60,,,,,,,,,,,,,,,,0,55,55,1,1,stimuli/objects/headphones02b.jpg,left,old,2,,,,,,,,
,,,,,,,,20,2021-06-06_13h45.30.524,premceCat2_ses-02_part-02_label-phase2,2020.2.10,MacIntel,60,,,,,right,1.801,2,1.113,,,,,,,,0,56,56,47,1,stimuli/objects/bucket02.jpg,left,old,48,,,,,,,,
,,,,,,,,20,2021-06-06_13h45.30.524,premceCat2_ses-02_part-02_label-phase2,2020.2.10,MacIntel,60,,,,,right,1.221,2,0.777,,,,,,,,0,57,57,108,1,stimuli/objects/metalscissors.jpg,right,new,109,,,,,,,,
,,,,,,,,20,2021-06-06_13h45.30.524,premceCat2_ses-02_part-02_label-phase2,2020.2.10,MacIntel,60,,,,,right,1.519,3,0.529,,,,,,,,0,58,58,63,1,stimuli/objects/butterdish.jpg,right,new,64,,,,,,,,
,,,,,,,,20,2021-06-06_13h45.30.524,premceCat2_ses-02_part-02_label-phase2,2020.2.10,MacIntel,60,,,,,right,2.85,2,1.162,,,,,,,,0,59,59,128,1,stimuli/objects/tripod01.jpg,right,new,129,,,,,,,,
,,,,,,,,20,2021-06-06_13h45.30.524,premceCat2_ses-02_part-02_label-phase2,2020.2.10,MacIntel,60,,,,,right,1.866,2,0.664,,,,,,,,0,60,60,30,1,stimuli/objects/printer02.jpg,right,new,31,,,,,,,,
,,,,,,,,20,2021-06-06_13h45.30.524,premceCat2_ses-02_part-02_label-phase2,2020.2.10,MacIntel,60,,,,,right,5.355,2,0.129,,,,,,,,0,61,61,59,1,stimuli/objects/studiolight.jpg,right,new,60,,,,,,,,
,,,,,,,,20,2021-06-06_13h45.30.524,premceCat2_ses-02_part-02_label-phase2,2020.2.10,MacIntel,60,,,,,right,1.354,3,0.972,,,,,,,,0,62,62,37,1,stimuli/objects/aircompressor.jpg,left,old,38,,,,,,,,
,,,,,,,,20,2021-06-06_13h45.30.524,premceCat2_ses-02_part-02_label-phase2,2020.2.10,MacIntel,60,,,,,left,1.536,2,0.617,left,0.825,0,0,0,0,1,,,,,,,,,,,,,,,,,
,,,,,,,,20,2021-06-06_13h45.30.524,premceCat2_ses-02_part-02_label-phase2,2020.2.10,MacIntel,60,,,,,,,,,,,,,,,,0,63,63,67,1,stimuli/objects/lifesaver.jpg,left,old,68,,,,,,,,
,,,,,,,,20,2021-06-06_13h45.30.524,premceCat2_ses-02_part-02_label-phase2,2020.2.10,MacIntel,60,,,,,left,1.24,2,0.6,left,0.957,0,0,0,0,1,,,,,,,,,,,,,,,,,
,,,,,,,,20,2021-06-06_13h45.30.524,premceCat2_ses-02_part-02_label-phase2,2020.2.10,MacIntel,60,,,,,,,,,,,,,,,,0,64,64,142,1,stimuli/objects/waterbottle03.jpg,left,old,143,,,,,,,,
,,,,,,,,20,2021-06-06_13h45.30.524,premceCat2_ses-02_part-02_label-phase2,2020.2.10,MacIntel,60,,,,,left,2.321,3,1.861,right,0.377,0,0,0,0,1,,,,,,,,,,,,,,,,,
,,,,,,,,20,2021-06-06_13h45.30.524,premceCat2_ses-02_part-02_label-phase2,2020.2.10,MacIntel,60,,,,,,,,,,,,,,,,0,65,65,82,1,stimuli/objects/snowbrush.jpg,right,new,83,,,,,,,,
,,,,,,,,20,2021-06-06_13h45.30.524,premceCat2_ses-02_part-02_label-phase2,2020.2.10,MacIntel,60,,,,,right,1.948,3,2.545,,,,,,,,0,66,66,92,1,stimuli/objects/carjack.jpg,right,new,93,,,,,,,,
,,,,,,,,20,2021-06-06_13h45.30.524,premceCat2_ses-02_part-02_label-phase2,2020.2.10,MacIntel,60,,,,,right,1.723,2,0.431,,,,,,,,0,67,67,54,1,stimuli/objects/pda.jpg,right,new,55,,,,,,,,
,,,,,,,,20,2021-06-06_13h45.30.524,premceCat2_ses-02_part-02_label-phase2,2020.2.10,MacIntel,60,,,,,right,1.138,3,0.731,,,,,,,,0,68,68,109,1,stimuli/objects/winerack.jpg,right,new,110,,,,,,,,
,,,,,,,,20,2021-06-06_13h45.30.524,premceCat2_ses-02_part-02_label-phase2,2020.2.10,MacIntel,60,,,,,right,3.17,2,0.64,,,,,,,,0,69,69,58,1,stimuli/objects/bungeecord02.jpg,left,old,59,,,,,,,,
,,,,,,,,20,2021-06-06_13h45.30.524,premceCat2_ses-02_part-02_label-phase2,2020.2.10,MacIntel,60,,,,,left,1.82,2,0.443,right,0.645,0,0,0,0,1,,,,,,,,,,,,,,,,,
,,,,,,,,20,2021-06-06_13h45.30.524,premceCat2_ses-02_part-02_label-phase2,2020.2.10,MacIntel,60,,,,,,,,,,,,,,,,0,70,70,61,1,stimuli/objects/painttray.jpg,left,old,62,,,,,,,,
,,,,,,,,20,2021-06-06_13h45.30.524,premceCat2_ses-02_part-02_label-phase2,2020.2.10,MacIntel,60,,,,,right,2.566,2,0.345,,,,,,,,0,71,71,71,1,stimuli/objects/faxmachine.jpg,right,new,72,,,,,,,,
,,,,,,,,20,2021-06-06_13h45.30.524,premceCat2_ses-02_part-02_label-phase2,2020.2.10,MacIntel,60,,,,,left,3.789,2,0.369,left,0.409,0,0,0,0,1,,,,,,,,,,,,,,,,,
,,,,,,,,20,2021-06-06_13h45.30.524,premceCat2_ses-02_part-02_label-phase2,2020.2.10,MacIntel,60,,,,,,,,,,,,,,,,0,72,72,27,1,stimuli/objects/catchermask.jpg,left,old,28,,,,,,,,
,,,,,,,,20,2021-06-06_13h45.30.524,premceCat2_ses-02_part-02_label-phase2,2020.2.10,MacIntel,60,,,,,left,1.652,4,1.228,right,0.347,0,0,0,0,1,,,,,,,,,,,,,,,,,
,,,,,,,,20,2021-06-06_13h45.30.524,premceCat2_ses-02_part-02_label-phase2,2020.2.10,MacIntel,60,,,,,,,,,,,,,,,,0,73,73,105,1,stimuli/objects/cellphone.jpg,left,old,106,,,,,,,,
,,,,,,,,20,2021-06-06_13h45.30.524,premceCat2_ses-02_part-02_label-phase2,2020.2.10,MacIntel,60,,,,,right,1.491,2,0.544,,,,,,,,0,74,74,119,1,stimuli/objects/tongs01b.jpg,right,new,120,,,,,,,,
,,,,,,,,20,2021-06-06_13h45.30.524,premceCat2_ses-02_part-02_label-phase2,2020.2.10,MacIntel,60,,,,,right,1.518,2,0.464,,,,,,,,0,75,75,53,1,stimuli/objects/binoculars01b.jpg,right,new,54,,,,,,,,
,,,,,,,,20,2021-06-06_13h45.30.524,premceCat2_ses-02_part-02_label-phase2,2020.2.10,MacIntel,60,,,,,left,1.034,4,0.462,left,0.403,0,0,0,0,1,,,,,,,,,,,,,,,,,
,,,,,,,,20,2021-06-06_13h45.30.524,premceCat2_ses-02_part-02_label-phase2,2020.2.10,MacIntel,60,,,,,,,,,,,,,,,,0,76,76,62,1,stimuli/objects/tray.jpg,left,old,63,,,,,,,,
,,,,,,,,20,2021-06-06_13h45.30.524,premceCat2_ses-02_part-02_label-phase2,2020.2.10,MacIntel,60,,,,,left,1.119,4,0.379,left,0.482,0,0,0,0,1,,,,,,,,,,,,,,,,,
,,,,,,,,20,2021-06-06_13h45.30.524,premceCat2_ses-02_part-02_label-phase2,2020.2.10,MacIntel,60,,,,,,,,,,,,,,,,0,77,77,48,1,stimuli/objects/gasburner.jpg,left,old,49,,,,,,,,
,,,,,,,,20,2021-06-06_13h45.30.524,premceCat2_ses-02_part-02_label-phase2,2020.2.10,MacIntel,60,,,,,right,1.116,3,0.765,,,,,,,,0,78,78,83,1,stimuli/objects/kitchenscale01a.jpg,right,new,84,,,,,,,,
,,,,,,,,20,2021-06-06_13h45.30.524,premceCat2_ses-02_part-02_label-phase2,2020.2.10,MacIntel,60,,,,,left,1.942,3,0.348,right,0.644,0,0,0,0,1,,,,,,,,,,,,,,,,,
,,,,,,,,20,2021-06-06_13h45.30.524,premceCat2_ses-02_part-02_label-phase2,2020.2.10,MacIntel,60,,,,,,,,,,,,,,,,0,79,79,40,1,stimuli/objects/staplegun.jpg,left,old,41,,,,,,,,
,,,,,,,,20,2021-06-06_13h45.30.524,premceCat2_ses-02_part-02_label-phase2,2020.2.10,MacIntel,60,,,,,right,1.407,3,0.497,,,,,,,,0,80,80,90,1,stimuli/objects/carlighter02.jpg,right,new,91,,,,,,,,
,,,,,,,,20,2021-06-06_13h45.30.524,premceCat2_ses-02_part-02_label-phase2,2020.2.10,MacIntel,60,,,,,left,1.169,4,1.211,left,0.346,0,0,0,0,1,,,,,,,,,,,,,,,,,
,,,,,,,,20,2021-06-06_13h45.30.524,premceCat2_ses-02_part-02_label-phase2,2020.2.10,MacIntel,60,,,,,,,,,,,,,,,,0,81,81,28,1,stimuli/objects/backpack01a.jpg,left,old,29,,,,,,,,
,,,,,,,,20,2021-06-06_13h45.30.524,premceCat2_ses-02_part-02_label-phase2,2020.2.10,MacIntel,60,,,,,right,1.413,3,0.328,,,,,,,,0,82,82,68,1,stimuli/objects/leafblower01.jpg,right,new,69,,,,,,,,
,,,,,,,,20,2021-06-06_13h45.30.524,premceCat2_ses-02_part-02_label-phase2,2020.2.10,MacIntel,60,,,,,right,1.318,3,0.349,,,,,,,,0,83,83,12,1,stimuli/objects/garlicpress02a.jpg,right,new,13,,,,,,,,
,,,,,,,,20,2021-06-06_13h45.30.524,premceCat2_ses-02_part-02_label-phase2,2020.2.10,MacIntel,60,,,,,left,1.136,4,0.395,left,0.507,0,0,0,0,1,,,,,,,,,,,,,,,,,
,,,,,,,,20,2021-06-06_13h45.30.524,premceCat2_ses-02_part-02_label-phase2,2020.2.10,MacIntel,60,,,,,,,,,,,,,,,,0,84,84,130,1,stimuli/objects/hockeypuck.jpg,left,old,131,,,,,,,,
,,,,,,,,20,2021-06-06_13h45.30.524,premceCat2_ses-02_part-02_label-phase2,2020.2.10,MacIntel,60,,,,,right,1.383,4,0.376,,,,,,,,0,85,85,125,1,stimuli/objects/shoulderpad.jpg,right,new,126,,,,,,,,
,,,,,,,,20,2021-06-06_13h45.30.524,premceCat2_ses-02_part-02_label-phase2,2020.2.10,MacIntel,60,,,,,left,2.542,3,0.6,right,0.418,0,0,0,0,1,,,,,,,,,,,,,,,,,
,,,,,,,,20,2021-06-06_13h45.30.524,premceCat2_ses-02_part-02_label-phase2,2020.2.10,MacIntel,60,,,,,,,,,,,,,,,,0,86,86,35,1,stimuli/objects/chandelier.jpg,left,old,36,,,,,,,,
,,,,,,,,20,2021-06-06_13h45.30.524,premceCat2_ses-02_part-02_label-phase2,2020.2.10,MacIntel,60,,,,,right,1.189,3,0.35,,,,,,,,0,87,87,111,1,stimuli/objects/speaker04.jpg,right,new,112,,,,,,,,
,,,,,,,,20,2021-06-06_13h45.30.524,premceCat2_ses-02_part-02_label-phase2,2020.2.10,MacIntel,60,,,,,left,1.431,4,0.352,right,0.358,0,0,0,0,1,,,,,,,,,,,,,,,,,
,,,,,,,,20,2021-06-06_13h45.30.524,premceCat2_ses-02_part-02_label-phase2,2020.2.10,MacIntel,60,,,,,,,,,,,,,,,,0,88,88,36,1,stimuli/objects/outletadapter.jpg,left,old,37,,,,,,,,
,,,,,,,,20,2021-06-06_13h45.30.524,premceCat2_ses-02_part-02_label-phase2,2020.2.10,MacIntel,60,,,,,right,1.037,3,0.402,,,,,,,,0,89,89,19,1,stimuli/objects/peppermill02b.jpg,right,new,20,,,,,,,,
,,,,,,,,20,2021-06-06_13h45.30.524,premceCat2_ses-02_part-02_label-phase2,2020.2.10,MacIntel,60,,,,,right,1.086,3,0.299,,,,,,,,0,90,90,75,1,stimuli/objects/stepladder.jpg,right,new,76,,,,,,,,
,,,,,,,,20,2021-06-06_13h45.30.524,premceCat2_ses-02_part-02_label-phase2,2020.2.10,MacIntel,60,,,,,right,1.849,2,0.361,,,,,,,,0,91,91,21,1,stimuli/objects/paintbrush01.jpg,right,new,22,,,,,,,,
,,,,,,,,20,2021-06-06_13h45.30.524,premceCat2_ses-02_part-02_label-phase2,2020.2.10,MacIntel,60,,,,,right,1.885,2,0.362,,,,,,,,0,92,92,103,1,stimuli/objects/bowl02a.jpg,left,old,104,,,,,,,,
,,,,,,,,20,2021-06-06_13h45.30.524,premceCat2_ses-02_part-02_label-phase2,2020.2.10,MacIntel,60,,,,,right,6.453,2,0.412,,,,,,,,0,93,93,88,1,stimuli/objects/cowbell.jpg,left,old,89,,,,,,,,
,,,,,,,,20,2021-06-06_13h45.30.524,premceCat2_ses-02_part-02_label-phase2,2020.2.10,MacIntel,60,,,,,right,1.849,2,0.298,,,,,,,,0,94,94,2,1,stimuli/objects/crocodileclips.jpg,left,old,3,,,,,,,,
,,,,,,,,20,2021-06-06_13h45.30.524,premceCat2_ses-02_part-02_label-phase2,2020.2.10,MacIntel,60,,,,,right,1.618,3,0.447,,,,,,,,0,95,95,86,1,stimuli/objects/toasteroven.jpg,right,new,87,,,,,,,,
,,,,,,,,20,2021-06-06_13h45.30.524,premceCat2_ses-02_part-02_label-phase2,2020.2.10,MacIntel,60,,,,,right,2.099,3,0.194,,,,,,,,0,96,96,115,1,stimuli/objects/flooringstapler.jpg,left,old,116,,,,,,,,
,,,,,,,,20,2021-06-06_13h45.30.524,premceCat2_ses-02_part-02_label-phase2,2020.2.10,MacIntel,60,,,,,right,2.273,1,0.951,,,,,,,,0,97,97,134,1,stimuli/objects/screwdriver04b.jpg,right,new,135,,,,,,,,
,,,,,,,,20,2021-06-06_13h45.30.524,premceCat2_ses-02_part-02_label-phase2,2020.2.10,MacIntel,60,,,,,right,1.875,2,0.797,,,,,,,,0,98,98,116,1,stimuli/objects/radio01.jpg,right,new,117,,,,,,,,
,,,,,,,,20,2021-06-06_13h45.30.524,premceCat2_ses-02_part-02_label-phase2,2020.2.10,MacIntel,60,,,,,right,1.656,3,0.594,,,,,,,,0,99,99,22,1,stimuli/objects/umbrella04.jpg,right,new,23,,,,,,,,
,,,,,,,,20,2021-06-06_13h45.30.524,premceCat2_ses-02_part-02_label-phase2,2020.2.10,MacIntel,60,,,,,right,2.229,3,0.231,,,,,,,,0,100,100,17,1,stimuli/objects/exercisebench.jpg,right,new,18,,,,,,,,
,,,,,,,,20,2021-06-06_13h45.30.524,premceCat2_ses-02_part-02_label-phase2,2020.2.10,MacIntel,60,,,,,right,1.738,2,1.24,,,,,,,,0,101,101,96,1,stimuli/objects/golfbag.jpg,right,new,97,,,,,,,,
,,,,,,,,20,2021-06-06_13h45.30.524,premceCat2_ses-02_part-02_label-phase2,2020.2.10,MacIntel,60,,,,,left,1.303,3,1.332,left,0.343,0,0,0,0,1,,,,,,,,,,,,,,,,,
,,,,,,,,20,2021-06-06_13h45.30.524,premceCat2_ses-02_part-02_label-phase2,2020.2.10,MacIntel,60,,,,,,,,,,,,,,,,0,102,102,74,1,stimuli/objects/treadmill.jpg,left,old,75,,,,,,,,
,,,,,,,,20,2021-06-06_13h45.30.524,premceCat2_ses-02_part-02_label-phase2,2020.2.10,MacIntel,60,,,,,right,1.71,1,0.766,,,,,,,,0,103,103,94,1,stimuli/objects/electricmixer.jpg,right,new,95,,,,,,,,
,,,,,,,,20,2021-06-06_13h45.30.524,premceCat2_ses-02_part-02_label-phase2,2020.2.10,MacIntel,60,,,,,right,1.246,2,1.178,,,,,,,,0,104,104,127,1,stimuli/objects/cooler01.jpg,left,old,128,,,,,,,,
,,,,,,,,20,2021-06-06_13h45.30.524,premceCat2_ses-02_part-02_label-phase2,2020.2.10,MacIntel,60,,,,,right,3.68,2,1.061,,,,,,,,0,105,105,133,1,stimuli/objects/icebucket.jpg,right,new,134,,,,,,,,
,,,,,,,,20,2021-06-06_13h45.30.524,premceCat2_ses-02_part-02_label-phase2,2020.2.10,MacIntel,60,,,,,left,1.006,4,0.73,left,0.437,0,0,0,0,1,,,,,,,,,,,,,,,,,
,,,,,,,,20,2021-06-06_13h45.30.524,premceCat2_ses-02_part-02_label-phase2,2020.2.10,MacIntel,60,,,,,,,,,,,,,,,,0,106,106,84,1,stimuli/objects/swimgoggles.jpg,left,old,85,,,,,,,,
,,,,,,,,20,2021-06-06_13h45.30.524,premceCat2_ses-02_part-02_label-phase2,2020.2.10,MacIntel,60,,,,,right,1.408,2,1.029,,,,,,,,0,107,107,126,1,stimuli/objects/tableknife02.jpg,right,new,127,,,,,,,,
,,,,,,,,20,2021-06-06_13h45.30.524,premceCat2_ses-02_part-02_label-phase2,2020.2.10,MacIntel,60,,,,,left,0.949,4,0.8,right,4.906,0,0,0,0,1,,,,,,,,,,,,,,,,,
,,,,,,,,20,2021-06-06_13h45.30.524,premceCat2_ses-02_part-02_label-phase2,2020.2.10,MacIntel,60,,,,,,,,,,,,,,,,0,108,108,89,1,stimuli/objects/ducttape.jpg,right,new,90,,,,,,,,
,,,,,,,,20,2021-06-06_13h45.30.524,premceCat2_ses-02_part-02_label-phase2,2020.2.10,MacIntel,60,,,,,right,1.5,3,2.328,,,,,,,,0,109,109,117,1,stimuli/objects/videotape01b.jpg,right,new,118,,,,,,,,
,,,,,,,,20,2021-06-06_13h45.30.524,premceCat2_ses-02_part-02_label-phase2,2020.2.10,MacIntel,60,,,,,left,1.019,4,0.394,left,0.298,0,0,0,0,1,,,,,,,,,,,,,,,,,
,,,,,,,,20,2021-06-06_13h45.30.524,premceCat2_ses-02_part-02_label-phase2,2020.2.10,MacIntel,60,,,,,,,,,,,,,,,,0,110,110,120,1,stimuli/objects/muffintray01.jpg,left,old,121,,,,,,,,
,,,,,,,,20,2021-06-06_13h45.30.524,premceCat2_ses-02_part-02_label-phase2,2020.2.10,MacIntel,60,,,,,right,1.152,2,0.931,,,,,,,,0,111,111,55,1,stimuli/objects/toolbox02.jpg,right,new,56,,,,,,,,
,,,,,,,,20,2021-06-06_13h45.30.524,premceCat2_ses-02_part-02_label-phase2,2020.2.10,MacIntel,60,,,,,right,1.503,2,0.593,,,,,,,,0,112,112,26,1,stimuli/objects/boogieboard.jpg,right,new,27,,,,,,,,
,,,,,,,,20,2021-06-06_13h45.30.524,premceCat2_ses-02_part-02_label-phase2,2020.2.10,MacIntel,60,,,,,left,0.907,4,0.632,right,2.076,0,0,0,0,1,,,,,,,,,,,,,,,,,
,,,,,,,,20,2021-06-06_13h45.30.524,premceCat2_ses-02_part-02_label-phase2,2020.2.10,MacIntel,60,,,,,,,,,,,,,,,,0,113,113,77,1,stimuli/objects/lightbulb01.jpg,left,old,78,,,,,,,,
,,,,,,,,20,2021-06-06_13h45.30.524,premceCat2_ses-02_part-02_label-phase2,2020.2.10,MacIntel,60,,,,,right,1.787,2,0.808,,,,,,,,0,114,114,56,1,stimuli/objects/jar02.jpg,left,old,57,,,,,,,,
,,,,,,,,20,2021-06-06_13h45.30.524,premceCat2_ses-02_part-02_label-phase2,2020.2.10,MacIntel,60,,,,,left,1.323,4,1.279,right,0.324,0,0,0,0,1,,,,,,,,,,,,,,,,,
,,,,,,,,20,2021-06-06_13h45.30.524,premceCat2_ses-02_part-02_label-phase2,2020.2.10,MacIntel,60,,,,,,,,,,,,,,,,0,115,115,11,1,stimuli/objects/videocamera01a.jpg,left,old,12,,,,,,,,
,,,,,,,,20,2021-06-06_13h45.30.524,premceCat2_ses-02_part-02_label-phase2,2020.2.10,MacIntel,60,,,,,right,0.947,3,2.231,,,,,,,,0,116,116,121,1,stimuli/objects/ceilingspeaker.jpg,right,new,122,,,,,,,,
,,,,,,,,20,2021-06-06_13h45.30.524,premceCat2_ses-02_part-02_label-phase2,2020.2.10,MacIntel,60,,,,,right,2.789,1,2.097,,,,,,,,0,117,117,136,1,stimuli/objects/battery02b.jpg,right,new,137,,,,,,,,
,,,,,,,,20,2021-06-06_13h45.30.524,premceCat2_ses-02_part-02_label-phase2,2020.2.10,MacIntel,60,,,,,right,1.067,3,1.415,,,,,,,,0,118,118,13,1,stimuli/objects/bastingbrush.jpg,right,new,14,,,,,,,,
,,,,,,,,20,2021-06-06_13h45.30.524,premceCat2_ses-02_part-02_label-phase2,2020.2.10,MacIntel,60,,,,,right,0.873,3,0.359,,,,,,,,0,119,119,23,1,stimuli/objects/football.jpg,right,new,24,,,,,,,,
,,,,,,,,20,2021-06-06_13h45.30.524,premceCat2_ses-02_part-02_label-phase2,2020.2.10,MacIntel,60,,,,,right,1.381,2,0.679,,,,,,,,0,120,120,91,1,stimuli/objects/puttyknife.jpg,left,old,92,,,,,,,,
,,,,,,,,20,2021-06-06_13h45.30.524,premceCat2_ses-02_part-02_label-phase2,2020.2.10,MacIntel,60,,,,,right,1.202,3,0.544,,,,,,,,0,121,121,85,1,stimuli/objects/golfball.jpg,right,new,86,,,,,,,,
,,,,,,,,20,2021-06-06_13h45.30.524,premceCat2_ses-02_part-02_label-phase2,2020.2.10,MacIntel,60,,,,,right,0.954,4,0.633,,,,,,,,0,122,122,80,1,stimuli/objects/snowman.jpg,right,new,81,,,,,,,,
,,,,,,,,20,2021-06-06_13h45.30.524,premceCat2_ses-02_part-02_label-phase2,2020.2.10,MacIntel,60,,,,,right,2.136,1,0.879,,,,,,,,0,123,123,100,1,stimuli/objects/remotecontrol04.jpg,right,new,101,,,,,,,,
,,,,,,,,20,2021-06-06_13h45.30.524,premceCat2_ses-02_part-02_label-phase2,2020.2.10,MacIntel,60,,,,,left,1.489,3,2.583,right,0.307,0,0,0,0,1,,,,,,,,,,,,,,,,,
,,,,,,,,20,2021-06-06_13h45.30.524,premceCat2_ses-02_part-02_label-phase2,2020.2.10,MacIntel,60,,,,,,,,,,,,,,,,0,124,124,50,1,stimuli/objects/chisel02b.jpg,right,new,51,,,,,,,,
,,,,,,,,20,2021-06-06_13h45.30.524,premceCat2_ses-02_part-02_label-phase2,2020.2.10,MacIntel,60,,,,,right,1.233,3,0.628,,,,,,,,0,125,125,25,1,stimuli/objects/bowlingball.jpg,right,new,26,,,,,,,,
,,,,,,,,20,2021-06-06_13h45.30.524,premceCat2_ses-02_part-02_label-phase2,2020.2.10,MacIntel,60,,,,,left,1.78,2,0.825,right,0.942,0,0,0,0,1,,,,,,,,,,,,,,,,,
,,,,,,,,20,2021-06-06_13h45.30.524,premceCat2_ses-02_part-02_label-phase2,2020.2.10,MacIntel,60,,,,,,,,,,,,,,,,0,126,126,33,1,stimuli/objects/microwave.jpg,right,new,34,,,,,,,,
,,,,,,,,20,2021-06-06_13h45.30.524,premceCat2_ses-02_part-02_label-phase2,2020.2.10,MacIntel,60,,,,,left,2.638,2,1.412,left,0.328,0,0,0,0,1,,,,,,,,,,,,,,,,,
,,,,,,,,20,2021-06-06_13h45.30.524,premceCat2_ses-02_part-02_label-phase2,2020.2.10,MacIntel,60,,,,,,,,,,,,,,,,0,127,127,129,1,stimuli/objects/corkscrew03a.jpg,left,old,130,,,,,,,,
,,,,,,,,20,2021-06-06_13h45.30.524,premceCat2_ses-02_part-02_label-phase2,2020.2.10,MacIntel,60,,,,,left,1.554,3,0.995,right,0.993,0,0,0,0,1,,,,,,,,,,,,,,,,,
,,,,,,,,20,2021-06-06_13h45.30.524,premceCat2_ses-02_part-02_label-phase2,2020.2.10,MacIntel,60,,,,,,,,,,,,,,,,0,128,128,65,1,stimuli/objects/tape02a.jpg,left,old,66,,,,,,,,
,,,,,,,,20,2021-06-06_13h45.30.524,premceCat2_ses-02_part-02_label-phase2,2020.2.10,MacIntel,60,,,,,left,1.135,4,0.507,left,3.533,0,0,0,0,1,,,,,,,,,,,,,,,,,
,,,,,,,,20,2021-06-06_13h45.30.524,premceCat2_ses-02_part-02_label-phase2,2020.2.10,MacIntel,60,,,,,,,,,,,,,,,,0,129,129,137,1,stimuli/objects/podium.jpg,left,old,138,,,,,,,,
,,,,,,,,20,2021-06-06_13h45.30.524,premceCat2_ses-02_part-02_label-phase2,2020.2.10,MacIntel,60,,,,,right,2.169,3,1.746,,,,,,,,0,130,130,101,1,stimuli/objects/fuse.jpg,left,old,102,,,,,,,,
,,,,,,,,20,2021-06-06_13h45.30.524,premceCat2_ses-02_part-02_label-phase2,2020.2.10,MacIntel,60,,,,,right,1.275,2,0.627,,,,,,,,0,131,131,97,1,stimuli/objects/djmixer02.jpg,left,old,98,,,,,,,,
,,,,,,,,20,2021-06-06_13h45.30.524,premceCat2_ses-02_part-02_label-phase2,2020.2.10,MacIntel,60,,,,,right,1.105,3,0.564,,,,,,,,0,132,132,24,1,stimuli/objects/skateboard.jpg,right,new,25,,,,,,,,
,,,,,,,,20,2021-06-06_13h45.30.524,premceCat2_ses-02_part-02_label-phase2,2020.2.10,MacIntel,60,,,,,right,1.137,3,0.242,,,,,,,,0,133,133,39,1,stimuli/objects/sippycup.jpg,right,new,40,,,,,,,,
,,,,,,,,20,2021-06-06_13h45.30.524,premceCat2_ses-02_part-02_label-phase2,2020.2.10,MacIntel,60,,,,,right,3.034,3,0.346,,,,,,,,0,134,134,66,1,stimuli/objects/nailgun.jpg,right,new,67,,,,,,,,
,,,,,,,,20,2021-06-06_13h45.30.524,premceCat2_ses-02_part-02_label-phase2,2020.2.10,MacIntel,60,,,,,right,1.303,3,0.408,,,,,,,,0,135,135,138,1,stimuli/objects/taperecorder.jpg,right,new,139,,,,,,,,
,,,,,,,,20,2021-06-06_13h45.30.524,premceCat2_ses-02_part-02_label-phase2,2020.2.10,MacIntel,60,,,,,left,1.306,3,1.053,right,2.959,0,0,0,0,1,,,,,,,,,,,,,,,,,
,,,,,,,,20,2021-06-06_13h45.30.524,premceCat2_ses-02_part-02_label-phase2,2020.2.10,MacIntel,60,,,,,,,,,,,,,,,,0,136,136,118,1,stimuli/objects/rope03.jpg,left,old,119,,,,,,,,
,,,,,,,,20,2021-06-06_13h45.30.524,premceCat2_ses-02_part-02_label-phase2,2020.2.10,MacIntel,60,,,,,left,1.035,4,0.342,left,0.628,0,0,0,0,1,,,,,,,,,,,,,,,,,
,,,,,,,,20,2021-06-06_13h45.30.524,premceCat2_ses-02_part-02_label-phase2,2020.2.10,MacIntel,60,,,,,,,,,,,,,,,,0,137,137,140,1,stimuli/objects/volleyball.jpg,left,old,141,,,,,,,,
,,,,,,,,20,2021-06-06_13h45.30.524,premceCat2_ses-02_part-02_label-phase2,2020.2.10,MacIntel,60,,,,,right,1.272,2,0.979,,,,,,,,0,138,138,43,1,stimuli/objects/punchingball.jpg,right,new,44,,,,,,,,
,,,,,,,,20,2021-06-06_13h45.30.524,premceCat2_ses-02_part-02_label-phase2,2020.2.10,MacIntel,60,,,,,right,1.153,3,0.331,,,,,,,,0,139,139,9,1,stimuli/objects/measuringtape01.jpg,right,new,10,,,,,,,,
,,,,,,,,20,2021-06-06_13h45.30.524,premceCat2_ses-02_part-02_label-phase2,2020.2.10,MacIntel,60,,,,,left,2.166,1,1.016,right,0.359,0,0,0,0,1,,,,,,,,,,,,,,,,,
,,,,,,,,20,2021-06-06_13h45.30.524,premceCat2_ses-02_part-02_label-phase2,2020.2.10,MacIntel,60,,,,,,,,,,,,,,,,0,140,140,5,1,stimuli/objects/electricoutlet.jpg,left,old,6,,,,,,,,
,,,,,,,,20,2021-06-06_13h45.30.524,premceCat2_ses-02_part-02_label-phase2,2020.2.10,MacIntel,60,,,,,right,2.797,3,1.278,,,,,,,,0,141,141,31,1,stimuli/objects/metalbrush.jpg,left,old,32,,,,,,,,
,,,,,,,,20,2021-06-06_13h45.30.524,premceCat2_ses-02_part-02_label-phase2,2020.2.10,MacIntel,60,,,,,left,3.786,2,0.974,right,0.474,0,0,0,0,1,,,,,,,,,,,,,,,,,
,,,,,,,,20,2021-06-06_13h45.30.524,premceCat2_ses-02_part-02_label-phase2,2020.2.10,MacIntel,60,,,,,,,,,,,,,,,,0,142,142,44,1,stimuli/objects/toyhardhat.jpg,left,old,45,,,,,,,,
,,,,,,,,20,2021-06-06_13h45.30.524,premceCat2_ses-02_part-02_label-phase2,2020.2.10,MacIntel,60,,,,,,,,,,,,,,,,,,,,,,,,,space,7.054,0,1,1,0,1,condition_files/ImagesforRecog1_1.csv
