myownaccuracy,respcorrs,minNrPractice,considerNrTrials,Instr_resp.keys,Instr_resp.rt,key_resp_2.keys,key_resp_2.rt,Instruction_loop.thisRepN,Instruction_loop.thisTrialN,Instruction_loop.thisN,Instruction_loop.thisIndex,Instruction_loop.ran,slides,participant,date,expName,psychopyVersion,OS,frameRate,key_resp_3.keys,key_resp_3.rt,taskGoresp.keys,taskGoresp.rt,pract_resp.keys,pract_resp.corr,myownaccuracyCORR,pract_loop.thisRepN,pract_loop.thisTrialN,pract_loop.thisN,pract_loop.thisIndex,pract_loop.ran,first_character,second_character,Cue,left_categ,centleft_categ,centright_categ,right_categ,corr_ans,trial_cond,switch_cond,cuedCharacter,corrCat,image,pract_resp.rt,rep_resp.keys,rep_resp.rt,repeat_pract.thisRepN,repeat_pract.thisTrialN,repeat_pract.thisN,repeat_pract.thisIndex,repeat_pract.ran,task_resp.keys,task_resp.corr,task_resp.rt,task_loop.thisRepN,task_loop.thisTrialN,task_loop.thisN,task_loop.thisIndex,task_loop.ran,obj_category,rep_resp_2.keys,rep_resp_2.rt,repeat_task2.thisRepN,repeat_task2.thisTrialN,repeat_task2.thisN,repeat_task2.thisIndex,repeat_task2.ran
[],[],10,10,space,29.8932,space,16.4559,0,0,0,0,1,stimuli/slide1.png,21,2021-11-10_12h33.03.364,premceCat2_ses-01_part-01_label-phase1,2020.2.9,Win32,60,,,,,,,,,,,,,,,,,,,,,,,,,,,,,,,,,,,,,,,,,,,,,,,,,
,,,,,,space,37.0731,0,1,1,1,1,stimuli/slide2.png,21,2021-11-10_12h33.03.364,premceCat2_ses-01_part-01_label-phase1,2020.2.9,Win32,60,,,,,,,,,,,,,,,,,,,,,,,,,,,,,,,,,,,,,,,,,,,,,,,,,
,,,,,,space,20.158,0,2,2,2,1,stimuli/slide3.png,21,2021-11-10_12h33.03.364,premceCat2_ses-01_part-01_label-phase1,2020.2.9,Win32,60,,,,,,,,,,,,,,,,,,,,,,,,,,,,,,,,,,,,,,,,,,,,,,,,,
,,,,,,space,15.5272,0,3,3,3,1,stimuli/slide4.png,21,2021-11-10_12h33.03.364,premceCat2_ses-01_part-01_label-phase1,2020.2.9,Win32,60,,,,,,,,,,,,,,,,,,,,,,,,,,,,,,,,,,,,,,,,,,,,,,,,,
,,,,,,space,10.2607,0,4,4,4,1,stimuli/slide5.png,21,2021-11-10_12h33.03.364,premceCat2_ses-01_part-01_label-phase1,2020.2.9,Win32,60,,,,,,,,,,,,,,,,,,,,,,,,,,,,,,,,,,,,,,,,,,,,,,,,,
,,,,,,space,4.6796,0,5,5,5,1,stimuli/slide6.png,21,2021-11-10_12h33.03.364,premceCat2_ses-01_part-01_label-phase1,2020.2.9,Win32,60,,,,,,,,,,,,,,,,,,,,,,,,,,,,,,,,,,,,,,,,,,,,,,,,,
0,[],,,,,,,,,,,,,21,2021-11-10_12h33.03.364,premceCat2_ses-01_part-01_label-phase1,2020.2.9,Win32,60,space,49.8329,space,26.0039,,0,0,0,0,0,0,1,stimuli/m1.jpg,stimuli/m4.jpg,2,stimuli/Stationary & school supply.png,stimuli/Vehicle.png,stimuli/Gamestoy & entertainment.png,stimuli/Clothing.png,4,1,0,stimuli/m4.jpg,Clothing,stimuli/objects/sneaker03b.jpg,,,,,,,,,,,,,,,,,,,,,,,,
0,[0],,,,,,,,,,,,,21,2021-11-10_12h33.03.364,premceCat2_ses-01_part-01_label-phase1,2020.2.9,Win32,60,,,,,2,0,0,0,1,1,1,1,stimuli/m1.jpg,stimuli/m4.jpg,2,stimuli/Stationary & school supply.png,stimuli/Clothing.png,stimuli/Vehicle.png,stimuli/Gamestoy & entertainment.png,1,0,0,stimuli/m4.jpg,Stationary & school supply,stimuli/objects/paperclip01b.jpg,2.1255,,,,,,,,,,,,,,,,,,,,,,,
1,[0],,,,,,,,,,,,,21,2021-11-10_12h33.03.364,premceCat2_ses-01_part-01_label-phase1,2020.2.9,Win32,60,,,,,2,1,1,0,2,2,2,1,stimuli/m1.jpg,stimuli/m4.jpg,1,stimuli/Vehicle.png,stimuli/Stationary & school supply.png,stimuli/Clothing.png,stimuli/Gamestoy & entertainment.png,2,1,0,stimuli/m1.jpg,Stationary & school supply,stimuli/objects/protractor.jpg,3.7476,,,,,,,,,,,,,,,,,,,,,,,
1,"[0,1]",,,,,,,,,,,,,21,2021-11-10_12h33.03.364,premceCat2_ses-01_part-01_label-phase1,2020.2.9,Win32,60,,,,,4,1,1,0,3,3,3,1,stimuli/m4.jpg,stimuli/m1.jpg,1,stimuli/Stationary & school supply.png,stimuli/Vehicle.png,stimuli/Gamestoy & entertainment.png,stimuli/Clothing.png,4,1,0,stimuli/m4.jpg,Clothing,stimuli/objects/hikingshoe01.jpg,2.3773,,,,,,,,,,,,,,,,,,,,,,,
1,"[0,1,1]",,,,,,,,,,,,,21,2021-11-10_12h33.03.364,premceCat2_ses-01_part-01_label-phase1,2020.2.9,Win32,60,,,,,2,1,1,0,4,4,4,1,stimuli/m1.jpg,stimuli/m4.jpg,1,stimuli/Clothing.png,stimuli/Stationary & school supply.png,stimuli/Vehicle.png,stimuli/Gamestoy & entertainment.png,2,1,0,stimuli/m1.jpg,Stationary & school supply,stimuli/objects/book01b.jpg,2.2446,,,,,,,,,,,,,,,,,,,,,,,
1,"[0,1,1,1]",,,,,,,,,,,,,21,2021-11-10_12h33.03.364,premceCat2_ses-01_part-01_label-phase1,2020.2.9,Win32,60,,,,,4,1,1,0,5,5,5,1,stimuli/m4.jpg,stimuli/m1.jpg,1,stimuli/Stationary & school supply.png,stimuli/Gamestoy & entertainment.png,stimuli/Vehicle.png,stimuli/Clothing.png,4,1,0,stimuli/m4.jpg,Clothing,stimuli/objects/shoelace.jpg,2.3727,,,,,,,,,,,,,,,,,,,,,,,
1,"[0,1,1,1,1]",,,,,,,,,,,,,21,2021-11-10_12h33.03.364,premceCat2_ses-01_part-01_label-phase1,2020.2.9,Win32,60,,,,,1,1,1,0,6,6,6,1,stimuli/m1.jpg,stimuli/m4.jpg,2,stimuli/Clothing.png,stimuli/Stationary & school supply.png,stimuli/Vehicle.png,stimuli/Gamestoy & entertainment.png,1,1,0,stimuli/m4.jpg,Clothing,stimuli/objects/moccasin.jpg,2.9585,,,,,,,,,,,,,,,,,,,,,,,
1,"[0,1,1,1,1,1]",,,,,,,,,,,,,21,2021-11-10_12h33.03.364,premceCat2_ses-01_part-01_label-phase1,2020.2.9,Win32,60,,,,,2,1,1,0,7,7,7,1,stimuli/m1.jpg,stimuli/m4.jpg,2,stimuli/Gamestoy & entertainment.png,stimuli/Clothing.png,stimuli/Stationary & school supply.png,stimuli/Vehicle.png,2,1,0,stimuli/m4.jpg,Clothing,stimuli/objects/waders.jpg,1.033,,,,,,,,,,,,,,,,,,,,,,,
1,"[0,1,1,1,1,1,1]",,,,,,,,,,,,,21,2021-11-10_12h33.03.364,premceCat2_ses-01_part-01_label-phase1,2020.2.9,Win32,60,,,,,3,1,1,0,8,8,8,1,stimuli/m4.jpg,stimuli/m1.jpg,2,stimuli/Vehicle.png,stimuli/Gamestoy & entertainment.png,stimuli/Stationary & school supply.png,stimuli/Clothing.png,3,1,0,stimuli/m1.jpg,Stationary & school supply,stimuli/objects/eraser.jpg,1.197,,,,,,,,,,,,,,,,,,,,,,,
1,"[0,1,1,1,1,1,1,1]",,,,,,,,,,,,,21,2021-11-10_12h33.03.364,premceCat2_ses-01_part-01_label-phase1,2020.2.9,Win32,60,,,,,1,1,1,0,9,9,9,1,stimuli/m4.jpg,stimuli/m1.jpg,2,stimuli/Stationary & school supply.png,stimuli/Vehicle.png,stimuli/Clothing.png,stimuli/Gamestoy & entertainment.png,1,1,0,stimuli/m1.jpg,Stationary & school supply,stimuli/objects/fountainpen.jpg,1.1491,,,,,,,,,,,,,,,,,,,,,,,
1,"[0,1,1,1,1,1,1,1,1]",,,,,,,,,,,,,21,2021-11-10_12h33.03.364,premceCat2_ses-01_part-01_label-phase1,2020.2.9,Win32,60,,,,,2,1,1,0,10,10,10,1,stimuli/m4.jpg,stimuli/m1.jpg,1,stimuli/Vehicle.png,stimuli/Clothing.png,stimuli/Stationary & school supply.png,stimuli/Gamestoy & entertainment.png,2,1,0,stimuli/m4.jpg,Clothing,stimuli/objects/visor.jpg,1.5443,,,,,,,,,,,,,,,,,,,,,,,
,,,,,,,,,,,,,,21,2021-11-10_12h33.03.364,premceCat2_ses-01_part-01_label-phase1,2020.2.9,Win32,60,,,,,,,,,,,,,,,,,,,,,,,,,,,n,53.7992,0,0,0,0,1,,,,,,,,,,,,,,,,
0,"[0,1,1,1,1,1,1,1,1,1]",,,,,,,,,,,,,21,2021-11-10_12h33.03.364,premceCat2_ses-01_part-01_label-phase1,2020.2.9,Win32,60,,,,,,,0,,,,,,stimuli/m2.jpg,stimuli/m5.jpg,2,stimuli/Outdoor activity & sport item.png,stimuli/Hand labour tool & accessory.png,stimuli/Electronic device & accessory.png,stimuli/Kitchen & utensil.png,2,1,1,stimuli/m5.jpg,,stimuli/objects/jumpingjack.jpg,,,,,,,,,3,0,2.3825,0,0,0,0,1,Hand labour tool & accessory,,,,,,,
0,"[0,1,1,1,1,1,1,1,1,1,0]",,,,,,,,,,,,,21,2021-11-10_12h33.03.364,premceCat2_ses-01_part-01_label-phase1,2020.2.9,Win32,60,,,,,,,0,,,,,,stimuli/m2.jpg,stimuli/m5.jpg,2,stimuli/Hand labour tool & accessory.png,stimuli/Outdoor activity & sport item.png,stimuli/Electronic device & accessory.png,stimuli/Kitchen & utensil.png,1,1,1,stimuli/m5.jpg,,stimuli/objects/boxcutter03a.jpg,,,,,,,,,4,0,2.3863,0,1,1,1,1,Hand labour tool & accessory,,,,,,,
1,"[0,1,1,1,1,1,1,1,1,1,0,0]",,,,,,,,,,,,,21,2021-11-10_12h33.03.364,premceCat2_ses-01_part-01_label-phase1,2020.2.9,Win32,60,,,,,,,0,,,,,,stimuli/m2.jpg,stimuli/m5.jpg,1,stimuli/Hand labour tool & accessory.png,stimuli/Kitchen & utensil.png,stimuli/Electronic device & accessory.png,stimuli/Outdoor activity & sport item.png,2,0,1,stimuli/m2.jpg,,stimuli/objects/huntingknife.jpg,,,,,,,,,2,1,2.9097,0,2,2,2,1,Kitchen & utensil,,,,,,,
0,"[0,1,1,1,1,1,1,1,1,1,0,0]",,,,,,,,,,,,,21,2021-11-10_12h33.03.364,premceCat2_ses-01_part-01_label-phase1,2020.2.9,Win32,60,,,,,,,0,,,,,,stimuli/m5.jpg,stimuli/m2.jpg,2,stimuli/Kitchen & utensil.png,stimuli/Electronic device & accessory.png,stimuli/Hand labour tool & accessory.png,stimuli/Outdoor activity & sport item.png,4,1,1,stimuli/m2.jpg,,stimuli/objects/footballhelmet.jpg,,,,,,,,,1,0,1.3147,0,3,3,3,1,Outdoor activity & sport item,,,,,,,
1,"[0,1,1,1,1,1,1,1,1,1,0,0,0]",,,,,,,,,,,,,21,2021-11-10_12h33.03.364,premceCat2_ses-01_part-01_label-phase1,2020.2.9,Win32,60,,,,,,,1,,,,,,stimuli/m5.jpg,stimuli/m2.jpg,1,stimuli/Outdoor activity & sport item.png,stimuli/Hand labour tool & accessory.png,stimuli/Kitchen & utensil.png,stimuli/Electronic device & accessory.png,2,1,1,stimuli/m5.jpg,,stimuli/objects/handrake01a.jpg,,,,,,,,,2,1,1.8351,0,4,4,4,1,Hand labour tool & accessory,,,,,,,
1,"[0,1,1,1,1,1,1,1,1,1,0,0,0,1]",,,,,,,,,,,,,21,2021-11-10_12h33.03.364,premceCat2_ses-01_part-01_label-phase1,2020.2.9,Win32,60,,,,,,,1,,,,,,stimuli/m2.jpg,stimuli/m5.jpg,1,stimuli/Outdoor activity & sport item.png,stimuli/Electronic device & accessory.png,stimuli/Hand labour tool & accessory.png,stimuli/Kitchen & utensil.png,1,1,1,stimuli/m2.jpg,,stimuli/objects/crosscountryski.jpg,,,,,,,,,1,1,3.2334,0,5,5,5,1,Outdoor activity & sport item,,,,,,,
0,"[0,1,1,1,1,1,1,1,1,1,0,0,0,1,1]",,,,,,,,,,,,,21,2021-11-10_12h33.03.364,premceCat2_ses-01_part-01_label-phase1,2020.2.9,Win32,60,,,,,,,1,,,,,,stimuli/m5.jpg,stimuli/m2.jpg,2,stimuli/Hand labour tool & accessory.png,stimuli/Electronic device & accessory.png,stimuli/Outdoor activity & sport item.png,stimuli/Kitchen & utensil.png,2,0,1,stimuli/m2.jpg,,stimuli/objects/television.jpg,,,,,,,,,3,0,2.1167,0,6,6,6,1,Electronic device & accessory,,,,,,,
0,"[0,1,1,1,1,1,1,1,1,1,0,0,0,1,1]",,,,,,,,,,,,,21,2021-11-10_12h33.03.364,premceCat2_ses-01_part-01_label-phase1,2020.2.9,Win32,60,,,,,,,0,,,,,,stimuli/m5.jpg,stimuli/m2.jpg,2,stimuli/Kitchen & utensil.png,stimuli/Outdoor activity & sport item.png,stimuli/Hand labour tool & accessory.png,stimuli/Electronic device & accessory.png,2,1,1,stimuli/m2.jpg,,stimuli/objects/hose.jpg,,,,,,,,,4,0,1.6967,0,7,7,7,1,Outdoor activity & sport item,,,,,,,
1,"[0,1,1,1,1,1,1,1,1,1,0,0,0,1,1,0]",,,,,,,,,,,,,21,2021-11-10_12h33.03.364,premceCat2_ses-01_part-01_label-phase1,2020.2.9,Win32,60,,,,,,,1,,,,,,stimuli/m2.jpg,stimuli/m5.jpg,2,stimuli/Hand labour tool & accessory.png,stimuli/Electronic device & accessory.png,stimuli/Kitchen & utensil.png,stimuli/Outdoor activity & sport item.png,1,1,1,stimuli/m5.jpg,,stimuli/objects/solderingiron.jpg,,,,,,,,,1,1,2.3101,0,8,8,8,1,Hand labour tool & accessory,,,,,,,
0,"[0,1,1,1,1,1,1,1,1,1,0,0,0,1,1,0,1]",,,,,,,,,,,,,21,2021-11-10_12h33.03.364,premceCat2_ses-01_part-01_label-phase1,2020.2.9,Win32,60,,,,,,,0,,,,,,stimuli/m2.jpg,stimuli/m5.jpg,2,stimuli/Electronic device & accessory.png,stimuli/Kitchen & utensil.png,stimuli/Hand labour tool & accessory.png,stimuli/Outdoor activity & sport item.png,3,1,1,stimuli/m5.jpg,,stimuli/objects/gavel.jpg,,,,,,,,,1,0,1.1163,0,9,9,9,1,Hand labour tool & accessory,,,,,,,
1,"[0,1,1,1,1,1,1,1,1,1,0,0,0,1,1,0,1,0]",,,,,,,,,,,,,21,2021-11-10_12h33.03.364,premceCat2_ses-01_part-01_label-phase1,2020.2.9,Win32,60,,,,,,,1,,,,,,stimuli/m5.jpg,stimuli/m2.jpg,1,stimuli/Kitchen & utensil.png,stimuli/Electronic device & accessory.png,stimuli/Outdoor activity & sport item.png,stimuli/Hand labour tool & accessory.png,4,1,1,stimuli/m5.jpg,,stimuli/objects/boxcutter03a.jpg,,,,,,,,,4,1,2.5983,0,10,10,10,1,Hand labour tool & accessory,,,,,,,
0,"[0,1,1,1,1,1,1,1,1,1,0,0,0,1,1,0,1,0,1]",,,,,,,,,,,,,21,2021-11-10_12h33.03.364,premceCat2_ses-01_part-01_label-phase1,2020.2.9,Win32,60,,,,,,,1,,,,,,stimuli/m2.jpg,stimuli/m5.jpg,2,stimuli/Electronic device & accessory.png,stimuli/Hand labour tool & accessory.png,stimuli/Outdoor activity & sport item.png,stimuli/Kitchen & utensil.png,1,0,1,stimuli/m5.jpg,,stimuli/objects/walkietalkie.jpg,,,,,,,,,2,0,1.588,0,11,11,11,1,Electronic device & accessory,,,,,,,
0,"[0,1,1,1,1,1,1,1,1,1,0,0,0,1,1,0,1,0,1]",,,,,,,,,,,,,21,2021-11-10_12h33.03.364,premceCat2_ses-01_part-01_label-phase1,2020.2.9,Win32,60,,,,,,,1,,,,,,stimuli/m2.jpg,stimuli/m5.jpg,1,stimuli/Kitchen & utensil.png,stimuli/Electronic device & accessory.png,stimuli/Hand labour tool & accessory.png,stimuli/Outdoor activity & sport item.png,1,0,1,stimuli/m2.jpg,,stimuli/objects/coffeemaker.jpg,,,,,,,,,4,0,2.4014,0,12,12,12,1,Kitchen & utensil,,,,,,,
0,"[0,1,1,1,1,1,1,1,1,1,0,0,0,1,1,0,1,0,1]",,,,,,,,,,,,,21,2021-11-10_12h33.03.364,premceCat2_ses-01_part-01_label-phase1,2020.2.9,Win32,60,,,,,,,0,,,,,,stimuli/m5.jpg,stimuli/m2.jpg,2,stimuli/Outdoor activity & sport item.png,stimuli/Electronic device & accessory.png,stimuli/Kitchen & utensil.png,stimuli/Hand labour tool & accessory.png,1,1,1,stimuli/m2.jpg,,stimuli/objects/bicycle.jpg,,,,,,,,,3,0,1.3302,0,13,13,13,1,Outdoor activity & sport item,,,,,,,
1,"[0,1,1,1,1,1,1,1,1,1,0,0,0,1,1,0,1,0,1,0]",,,,,,,,,,,,,21,2021-11-10_12h33.03.364,premceCat2_ses-01_part-01_label-phase1,2020.2.9,Win32,60,,,,,,,1,,,,,,stimuli/m2.jpg,stimuli/m5.jpg,1,stimuli/Kitchen & utensil.png,stimuli/Outdoor activity & sport item.png,stimuli/Electronic device & accessory.png,stimuli/Hand labour tool & accessory.png,2,1,1,stimuli/m2.jpg,,stimuli/objects/punchingbag.jpg,,,,,,,,,2,1,1.8471,0,14,14,14,1,Outdoor activity & sport item,,,,,,,
0,"[0,1,1,1,1,1,1,1,1,1,0,0,0,1,1,0,1,0,1,0,1]",,,,,,,,,,,,,21,2021-11-10_12h33.03.364,premceCat2_ses-01_part-01_label-phase1,2020.2.9,Win32,60,,,,,,,1,,,,,,stimuli/m5.jpg,stimuli/m2.jpg,1,stimuli/Electronic device & accessory.png,stimuli/Outdoor activity & sport item.png,stimuli/Hand labour tool & accessory.png,stimuli/Kitchen & utensil.png,2,0,1,stimuli/m5.jpg,,stimuli/objects/footballhelmet.jpg,,,,,,,,,1,0,2.133,0,15,15,15,1,Outdoor activity & sport item,,,,,,,
0,"[0,1,1,1,1,1,1,1,1,1,0,0,0,1,1,0,1,0,1,0,1]",,,,,,,,,,,,,21,2021-11-10_12h33.03.364,premceCat2_ses-01_part-01_label-phase1,2020.2.9,Win32,60,,,,,,,1,,,,,,stimuli/m5.jpg,stimuli/m2.jpg,1,stimuli/Kitchen & utensil.png,stimuli/Hand labour tool & accessory.png,stimuli/Electronic device & accessory.png,stimuli/Outdoor activity & sport item.png,4,0,1,stimuli/m5.jpg,,stimuli/objects/swing.jpg,,,,,,,,,3,0,3.5163,0,16,16,16,1,Outdoor activity & sport item,,,,,,,
0,"[0,1,1,1,1,1,1,1,1,1,0,0,0,1,1,0,1,0,1,0,1]",,,,,,,,,,,,,21,2021-11-10_12h33.03.364,premceCat2_ses-01_part-01_label-phase1,2020.2.9,Win32,60,,,,,,,0,,,,,,stimuli/m2.jpg,stimuli/m5.jpg,2,stimuli/Hand labour tool & accessory.png,stimuli/Electronic device & accessory.png,stimuli/Outdoor activity & sport item.png,stimuli/Kitchen & utensil.png,1,1,1,stimuli/m5.jpg,,stimuli/objects/pitchfork.jpg,,,,,,,,,3,0,1.6351,0,17,17,17,1,Hand labour tool & accessory,,,,,,,
0,"[0,1,1,1,1,1,1,1,1,1,0,0,0,1,1,0,1,0,1,0,1,0]",,,,,,,,,,,,,21,2021-11-10_12h33.03.364,premceCat2_ses-01_part-01_label-phase1,2020.2.9,Win32,60,,,,,,,0,,,,,,stimuli/m5.jpg,stimuli/m2.jpg,2,stimuli/Hand labour tool & accessory.png,stimuli/Outdoor activity & sport item.png,stimuli/Electronic device & accessory.png,stimuli/Kitchen & utensil.png,2,1,1,stimuli/m2.jpg,,stimuli/objects/bicycle.jpg,,,,,,,,,4,0,2.3817,0,18,18,18,1,Outdoor activity & sport item,,,,,,,
0,"[0,1,1,1,1,1,1,1,1,1,0,0,0,1,1,0,1,0,1,0,1,0,0]",,,,,,,,,,,,,21,2021-11-10_12h33.03.364,premceCat2_ses-01_part-01_label-phase1,2020.2.9,Win32,60,,,,,,,0,,,,,,stimuli/m5.jpg,stimuli/m2.jpg,1,stimuli/Hand labour tool & accessory.png,stimuli/Outdoor activity & sport item.png,stimuli/Kitchen & utensil.png,stimuli/Electronic device & accessory.png,3,0,1,stimuli/m5.jpg,,stimuli/objects/freezer02.jpg,,,,,,,,,2,0,2.4296,0,19,19,19,1,Kitchen & utensil,,,,,,,
0,"[0,1,1,1,1,1,1,1,1,1,0,0,0,1,1,0,1,0,1,0,1,0,0]",,,,,,,,,,,,,21,2021-11-10_12h33.03.364,premceCat2_ses-01_part-01_label-phase1,2020.2.9,Win32,60,,,,,,,0,,,,,,stimuli/m2.jpg,stimuli/m5.jpg,1,stimuli/Kitchen & utensil.png,stimuli/Hand labour tool & accessory.png,stimuli/Electronic device & accessory.png,stimuli/Outdoor activity & sport item.png,2,0,1,stimuli/m2.jpg,,stimuli/objects/handrake01a.jpg,,,,,,,,,1,0,1.5605,0,20,20,20,1,Hand labour tool & accessory,,,,,,,
1,"[0,1,1,1,1,1,1,1,1,1,0,0,0,1,1,0,1,0,1,0,1,0,0]",,,,,,,,,,,,,21,2021-11-10_12h33.03.364,premceCat2_ses-01_part-01_label-phase1,2020.2.9,Win32,60,,,,,,,1,,,,,,stimuli/m5.jpg,stimuli/m2.jpg,1,stimuli/Outdoor activity & sport item.png,stimuli/Electronic device & accessory.png,stimuli/Hand labour tool & accessory.png,stimuli/Kitchen & utensil.png,3,1,1,stimuli/m5.jpg,,stimuli/objects/jumpingjack.jpg,,,,,,,,,3,1,2.0983,0,21,21,21,1,Hand labour tool & accessory,,,,,,,
0,"[0,1,1,1,1,1,1,1,1,1,0,0,0,1,1,0,1,0,1,0,1,0,0,1]",,,,,,,,,,,,,21,2021-11-10_12h33.03.364,premceCat2_ses-01_part-01_label-phase1,2020.2.9,Win32,60,,,,,,,0,,,,,,stimuli/m5.jpg,stimuli/m2.jpg,2,stimuli/Electronic device & accessory.png,stimuli/Kitchen & utensil.png,stimuli/Hand labour tool & accessory.png,stimuli/Outdoor activity & sport item.png,4,1,1,stimuli/m2.jpg,,stimuli/objects/bicycle.jpg,,,,,,,,,2,0,1.4698,0,22,22,22,1,Outdoor activity & sport item,,,,,,,
0,"[0,1,1,1,1,1,1,1,1,1,0,0,0,1,1,0,1,0,1,0,1,0,0,1,0]",,,,,,,,,,,,,21,2021-11-10_12h33.03.364,premceCat2_ses-01_part-01_label-phase1,2020.2.9,Win32,60,,,,,,,0,,,,,,stimuli/m5.jpg,stimuli/m2.jpg,1,stimuli/Hand labour tool & accessory.png,stimuli/Outdoor activity & sport item.png,stimuli/Electronic device & accessory.png,stimuli/Kitchen & utensil.png,1,1,1,stimuli/m5.jpg,,stimuli/objects/jumpingjack.jpg,,,,,,,,,3,0,2.0549,0,23,23,23,1,Hand labour tool & accessory,,,,,,,
0,"[0,1,1,1,1,1,1,1,1,1,0,0,0,1,1,0,1,0,1,0,1,0,0,1,0,0]",,,,,,,,,,,,,21,2021-11-10_12h33.03.364,premceCat2_ses-01_part-01_label-phase1,2020.2.9,Win32,60,,,,,,,0,,,,,,stimuli/m2.jpg,stimuli/m5.jpg,2,stimuli/Outdoor activity & sport item.png,stimuli/Electronic device & accessory.png,stimuli/Hand labour tool & accessory.png,stimuli/Kitchen & utensil.png,4,0,1,stimuli/m5.jpg,,stimuli/objects/jug.jpg,,,,,,,,,2,0,1.7225,0,24,24,24,1,Kitchen & utensil,,,,,,,
1,"[0,1,1,1,1,1,1,1,1,1,0,0,0,1,1,0,1,0,1,0,1,0,0,1,0,0]",,,,,,,,,,,,,21,2021-11-10_12h33.03.364,premceCat2_ses-01_part-01_label-phase1,2020.2.9,Win32,60,,,,,,,1,,,,,,stimuli/m2.jpg,stimuli/m5.jpg,1,stimuli/Electronic device & accessory.png,stimuli/Hand labour tool & accessory.png,stimuli/Kitchen & utensil.png,stimuli/Outdoor activity & sport item.png,4,1,1,stimuli/m2.jpg,,stimuli/objects/racquetballracket.jpg,,,,,,,,,4,1,2.5535,0,25,25,25,1,Outdoor activity & sport item,,,,,,,
0,"[0,1,1,1,1,1,1,1,1,1,0,0,0,1,1,0,1,0,1,0,1,0,0,1,0,0,1]",,,,,,,,,,,,,21,2021-11-10_12h33.03.364,premceCat2_ses-01_part-01_label-phase1,2020.2.9,Win32,60,,,,,,,0,,,,,,stimuli/m2.jpg,stimuli/m5.jpg,2,stimuli/Kitchen & utensil.png,stimuli/Outdoor activity & sport item.png,stimuli/Electronic device & accessory.png,stimuli/Hand labour tool & accessory.png,4,1,1,stimuli/m5.jpg,,stimuli/objects/jumpingjack.jpg,,,,,,,,,3,0,1.3004,0,26,26,26,1,Hand labour tool & accessory,,,,,,,
0,"[0,1,1,1,1,1,1,1,1,1,0,0,0,1,1,0,1,0,1,0,1,0,0,1,0,0,1,0]",,,,,,,,,,,,,21,2021-11-10_12h33.03.364,premceCat2_ses-01_part-01_label-phase1,2020.2.9,Win32,60,,,,,,,0,,,,,,stimuli/m2.jpg,stimuli/m5.jpg,2,stimuli/Hand labour tool & accessory.png,stimuli/Kitchen & utensil.png,stimuli/Electronic device & accessory.png,stimuli/Outdoor activity & sport item.png,1,1,1,stimuli/m5.jpg,,stimuli/objects/hedgetrimmer.jpg,,,,,,,,,2,0,0.979,0,27,27,27,1,Hand labour tool & accessory,,,,,,,
0,"[0,1,1,1,1,1,1,1,1,1,0,0,0,1,1,0,1,0,1,0,1,0,0,1,0,0,1,0,0]",,,,,,,,,,,,,21,2021-11-10_12h33.03.364,premceCat2_ses-01_part-01_label-phase1,2020.2.9,Win32,60,,,,,,,0,,,,,,stimuli/m5.jpg,stimuli/m2.jpg,1,stimuli/Kitchen & utensil.png,stimuli/Outdoor activity & sport item.png,stimuli/Electronic device & accessory.png,stimuli/Hand labour tool & accessory.png,4,1,1,stimuli/m5.jpg,,stimuli/objects/gavel.jpg,,,,,,,,,2,0,3.4407,0,28,28,28,1,Hand labour tool & accessory,,,,,,,
0,"[0,1,1,1,1,1,1,1,1,1,0,0,0,1,1,0,1,0,1,0,1,0,0,1,0,0,1,0,0,0]",,,,,,,,,,,,,21,2021-11-10_12h33.03.364,premceCat2_ses-01_part-01_label-phase1,2020.2.9,Win32,60,,,,,,,0,,,,,,stimuli/m2.jpg,stimuli/m5.jpg,2,stimuli/Electronic device & accessory.png,stimuli/Hand labour tool & accessory.png,stimuli/Kitchen & utensil.png,stimuli/Outdoor activity & sport item.png,2,1,1,stimuli/m5.jpg,,stimuli/objects/gavel.jpg,,,,,,,,,1,0,2.9475,0,29,29,29,1,Hand labour tool & accessory,,,,,,,
0,"[0,1,1,1,1,1,1,1,1,1,0,0,0,1,1,0,1,0,1,0,1,0,0,1,0,0,1,0,0,0,0]",,,,,,,,,,,,,21,2021-11-10_12h33.03.364,premceCat2_ses-01_part-01_label-phase1,2020.2.9,Win32,60,,,,,,,0,,,,,,stimuli/m2.jpg,stimuli/m5.jpg,1,stimuli/Kitchen & utensil.png,stimuli/Hand labour tool & accessory.png,stimuli/Outdoor activity & sport item.png,stimuli/Electronic device & accessory.png,3,1,1,stimuli/m2.jpg,,stimuli/objects/racquetballracket.jpg,,,,,,,,,1,0,1.9141,0,30,30,30,1,Outdoor activity & sport item,,,,,,,
0,"[0,1,1,1,1,1,1,1,1,1,0,0,0,1,1,0,1,0,1,0,1,0,0,1,0,0,1,0,0,0,0,0]",,,,,,,,,,,,,21,2021-11-10_12h33.03.364,premceCat2_ses-01_part-01_label-phase1,2020.2.9,Win32,60,,,,,,,0,,,,,,stimuli/m5.jpg,stimuli/m2.jpg,2,stimuli/Kitchen & utensil.png,stimuli/Electronic device & accessory.png,stimuli/Outdoor activity & sport item.png,stimuli/Hand labour tool & accessory.png,3,1,1,stimuli/m2.jpg,,stimuli/objects/punchingbag.jpg,,,,,,,,,2,0,2.2026,0,31,31,31,1,Outdoor activity & sport item,,,,,,,
1,"[0,1,1,1,1,1,1,1,1,1,0,0,0,1,1,0,1,0,1,0,1,0,0,1,0,0,1,0,0,0,0,0,0]",,,,,,,,,,,,,21,2021-11-10_12h33.03.364,premceCat2_ses-01_part-01_label-phase1,2020.2.9,Win32,60,,,,,,,0,,,,,,stimuli/m2.jpg,stimuli/m5.jpg,2,stimuli/Outdoor activity & sport item.png,stimuli/Hand labour tool & accessory.png,stimuli/Kitchen & utensil.png,stimuli/Electronic device & accessory.png,4,0,1,stimuli/m5.jpg,,stimuli/objects/camera01a.jpg,,,,,,,,,4,1,2.2151,0,32,32,32,1,Electronic device & accessory,,,,,,,
0,"[0,1,1,1,1,1,1,1,1,1,0,0,0,1,1,0,1,0,1,0,1,0,0,1,0,0,1,0,0,0,0,0,0]",,,,,,,,,,,,,21,2021-11-10_12h33.03.364,premceCat2_ses-01_part-01_label-phase1,2020.2.9,Win32,60,,,,,,,0,,,,,,stimuli/m2.jpg,stimuli/m5.jpg,2,stimuli/Outdoor activity & sport item.png,stimuli/Electronic device & accessory.png,stimuli/Kitchen & utensil.png,stimuli/Hand labour tool & accessory.png,4,1,1,stimuli/m5.jpg,,stimuli/objects/jumpingjack.jpg,,,,,,,,,2,0,3.3275,0,33,33,33,1,Hand labour tool & accessory,,,,,,,
1,"[0,1,1,1,1,1,1,1,1,1,0,0,0,1,1,0,1,0,1,0,1,0,0,1,0,0,1,0,0,0,0,0,0,0]",,,,,,,,,,,,,21,2021-11-10_12h33.03.364,premceCat2_ses-01_part-01_label-phase1,2020.2.9,Win32,60,,,,,,,1,,,,,,stimuli/m2.jpg,stimuli/m5.jpg,1,stimuli/Electronic device & accessory.png,stimuli/Kitchen & utensil.png,stimuli/Outdoor activity & sport item.png,stimuli/Hand labour tool & accessory.png,3,1,1,stimuli/m2.jpg,,stimuli/objects/swing.jpg,,,,,,,,,3,1,1.1362,0,34,34,34,1,Outdoor activity & sport item,,,,,,,
0,"[0,1,1,1,1,1,1,1,1,1,0,0,0,1,1,0,1,0,1,0,1,0,0,1,0,0,1,0,0,0,0,0,0,0,1]",,,,,,,,,,,,,21,2021-11-10_12h33.03.364,premceCat2_ses-01_part-01_label-phase1,2020.2.9,Win32,60,,,,,,,0,,,,,,stimuli/m5.jpg,stimuli/m2.jpg,1,stimuli/Hand labour tool & accessory.png,stimuli/Kitchen & utensil.png,stimuli/Outdoor activity & sport item.png,stimuli/Electronic device & accessory.png,1,1,1,stimuli/m5.jpg,,stimuli/objects/pitchfork.jpg,,,,,,,,,4,0,1.7763,0,35,35,35,1,Hand labour tool & accessory,,,,,,,
0,"[0,1,1,1,1,1,1,1,1,1,0,0,0,1,1,0,1,0,1,0,1,0,0,1,0,0,1,0,0,0,0,0,0,0,1,0]",,,,,,,,,,,,,21,2021-11-10_12h33.03.364,premceCat2_ses-01_part-01_label-phase1,2020.2.9,Win32,60,,,,,,,0,,,,,,stimuli/m2.jpg,stimuli/m5.jpg,1,stimuli/Electronic device & accessory.png,stimuli/Outdoor activity & sport item.png,stimuli/Hand labour tool & accessory.png,stimuli/Kitchen & utensil.png,2,1,1,stimuli/m2.jpg,,stimuli/objects/racquetballracket.jpg,,,,,,,,,4,0,2.2952,0,36,36,36,1,Outdoor activity & sport item,,,,,,,
0,"[0,1,1,1,1,1,1,1,1,1,0,0,0,1,1,0,1,0,1,0,1,0,0,1,0,0,1,0,0,0,0,0,0,0,1,0,0]",,,,,,,,,,,,,21,2021-11-10_12h33.03.364,premceCat2_ses-01_part-01_label-phase1,2020.2.9,Win32,60,,,,,,,0,,,,,,stimuli/m2.jpg,stimuli/m5.jpg,1,stimuli/Outdoor activity & sport item.png,stimuli/Hand labour tool & accessory.png,stimuli/Electronic device & accessory.png,stimuli/Kitchen & utensil.png,1,1,1,stimuli/m2.jpg,,stimuli/objects/telescope.jpg,,,,,,,,,4,0,1.6652,0,37,37,37,1,Outdoor activity & sport item,,,,,,,
0,"[0,1,1,1,1,1,1,1,1,1,0,0,0,1,1,0,1,0,1,0,1,0,0,1,0,0,1,0,0,0,0,0,0,0,1,0,0,0]",,,,,,,,,,,,,21,2021-11-10_12h33.03.364,premceCat2_ses-01_part-01_label-phase1,2020.2.9,Win32,60,,,,,,,0,,,,,,stimuli/m5.jpg,stimuli/m2.jpg,2,stimuli/Hand labour tool & accessory.png,stimuli/Kitchen & utensil.png,stimuli/Electronic device & accessory.png,stimuli/Outdoor activity & sport item.png,4,1,1,stimuli/m2.jpg,,stimuli/objects/footballhelmet.jpg,,,,,,,,,2,0,2.145,0,38,38,38,1,Outdoor activity & sport item,,,,,,,
1,"[0,1,1,1,1,1,1,1,1,1,0,0,0,1,1,0,1,0,1,0,1,0,0,1,0,0,1,0,0,0,0,0,0,0,1,0,0,0,0]",,,,,,,,,,,,,21,2021-11-10_12h33.03.364,premceCat2_ses-01_part-01_label-phase1,2020.2.9,Win32,60,,,,,,,1,,,,,,stimuli/m5.jpg,stimuli/m2.jpg,2,stimuli/Kitchen & utensil.png,stimuli/Hand labour tool & accessory.png,stimuli/Outdoor activity & sport item.png,stimuli/Electronic device & accessory.png,3,1,1,stimuli/m2.jpg,,stimuli/objects/swing.jpg,,,,,,,,,3,1,1.4112,0,39,39,39,1,Outdoor activity & sport item,,,,,,,
0,"[0,1,1,1,1,1,1,1,1,1,0,0,0,1,1,0,1,0,1,0,1,0,0,1,0,0,1,0,0,0,0,0,0,0,1,0,0,0,0,1]",,,,,,,,,,,,,21,2021-11-10_12h33.03.364,premceCat2_ses-01_part-01_label-phase1,2020.2.9,Win32,60,,,,,,,0,,,,,,stimuli/m5.jpg,stimuli/m2.jpg,1,stimuli/Outdoor activity & sport item.png,stimuli/Hand labour tool & accessory.png,stimuli/Electronic device & accessory.png,stimuli/Kitchen & utensil.png,2,1,1,stimuli/m5.jpg,,stimuli/objects/pitchfork.jpg,,,,,,,,,3,0,2.6957,0,40,40,40,1,Hand labour tool & accessory,,,,,,,
0,"[0,1,1,1,1,1,1,1,1,1,0,0,0,1,1,0,1,0,1,0,1,0,0,1,0,0,1,0,0,0,0,0,0,0,1,0,0,0,0,1,0]",,,,,,,,,,,,,21,2021-11-10_12h33.03.364,premceCat2_ses-01_part-01_label-phase1,2020.2.9,Win32,60,,,,,,,0,,,,,,stimuli/m2.jpg,stimuli/m5.jpg,1,stimuli/Hand labour tool & accessory.png,stimuli/Outdoor activity & sport item.png,stimuli/Electronic device & accessory.png,stimuli/Kitchen & utensil.png,2,1,1,stimuli/m2.jpg,,stimuli/objects/footballhelmet.jpg,,,,,,,,,4,0,2.8857,0,41,41,41,1,Outdoor activity & sport item,,,,,,,
1,"[0,1,1,1,1,1,1,1,1,1,0,0,0,1,1,0,1,0,1,0,1,0,0,1,0,0,1,0,0,0,0,0,0,0,1,0,0,0,0,1,0,0]",,,,,,,,,,,,,21,2021-11-10_12h33.03.364,premceCat2_ses-01_part-01_label-phase1,2020.2.9,Win32,60,,,,,,,1,,,,,,stimuli/m5.jpg,stimuli/m2.jpg,2,stimuli/Hand labour tool & accessory.png,stimuli/Outdoor activity & sport item.png,stimuli/Kitchen & utensil.png,stimuli/Electronic device & accessory.png,2,1,1,stimuli/m2.jpg,,stimuli/objects/rollerblade.jpg,,,,,,,,,2,1,2.3441,0,42,42,42,1,Outdoor activity & sport item,,,,,,,
1,"[0,1,1,1,1,1,1,1,1,1,0,0,0,1,1,0,1,0,1,0,1,0,0,1,0,0,1,0,0,0,0,0,0,0,1,0,0,0,0,1,0,0,1]",,,,,,,,,,,,,21,2021-11-10_12h33.03.364,premceCat2_ses-01_part-01_label-phase1,2020.2.9,Win32,60,,,,,,,1,,,,,,stimuli/m2.jpg,stimuli/m5.jpg,1,stimuli/Outdoor activity & sport item.png,stimuli/Kitchen & utensil.png,stimuli/Hand labour tool & accessory.png,stimuli/Electronic device & accessory.png,1,1,1,stimuli/m2.jpg,,stimuli/objects/crosscountryski.jpg,,,,,,,,,1,1,1.1168,0,43,43,43,1,Outdoor activity & sport item,,,,,,,
0,"[0,1,1,1,1,1,1,1,1,1,0,0,0,1,1,0,1,0,1,0,1,0,0,1,0,0,1,0,0,0,0,0,0,0,1,0,0,0,0,1,0,0,1,1]",,,,,,,,,,,,,21,2021-11-10_12h33.03.364,premceCat2_ses-01_part-01_label-phase1,2020.2.9,Win32,60,,,,,,,0,,,,,,stimuli/m5.jpg,stimuli/m2.jpg,1,stimuli/Kitchen & utensil.png,stimuli/Outdoor activity & sport item.png,stimuli/Hand labour tool & accessory.png,stimuli/Electronic device & accessory.png,3,1,1,stimuli/m5.jpg,,stimuli/objects/solderingiron.jpg,,,,,,,,,1,0,1.9325,0,44,44,44,1,Hand labour tool & accessory,,,,,,,
0,"[0,1,1,1,1,1,1,1,1,1,0,0,0,1,1,0,1,0,1,0,1,0,0,1,0,0,1,0,0,0,0,0,0,0,1,0,0,0,0,1,0,0,1,1,0]",,,,,,,,,,,,,21,2021-11-10_12h33.03.364,premceCat2_ses-01_part-01_label-phase1,2020.2.9,Win32,60,,,,,,,0,,,,,,stimuli/m5.jpg,stimuli/m2.jpg,2,stimuli/Kitchen & utensil.png,stimuli/Hand labour tool & accessory.png,stimuli/Electronic device & accessory.png,stimuli/Outdoor activity & sport item.png,2,0,1,stimuli/m2.jpg,,stimuli/objects/boxcutter03a.jpg,,,,,,,,,4,0,2.0976,0,45,45,45,1,Hand labour tool & accessory,,,,,,,
0,"[0,1,1,1,1,1,1,1,1,1,0,0,0,1,1,0,1,0,1,0,1,0,0,1,0,0,1,0,0,0,0,0,0,0,1,0,0,0,0,1,0,0,1,1,0]",,,,,,,,,,,,,21,2021-11-10_12h33.03.364,premceCat2_ses-01_part-01_label-phase1,2020.2.9,Win32,60,,,,,,,0,,,,,,stimuli/m2.jpg,stimuli/m5.jpg,2,stimuli/Kitchen & utensil.png,stimuli/Electronic device & accessory.png,stimuli/Hand labour tool & accessory.png,stimuli/Outdoor activity & sport item.png,3,1,1,stimuli/m5.jpg,,stimuli/objects/gavel.jpg,,,,,,,,,4,0,2.6329,0,46,46,46,1,Hand labour tool & accessory,,,,,,,
0,"[0,1,1,1,1,1,1,1,1,1,0,0,0,1,1,0,1,0,1,0,1,0,0,1,0,0,1,0,0,0,0,0,0,0,1,0,0,0,0,1,0,0,1,1,0,0]",,,,,,,,,,,,,21,2021-11-10_12h33.03.364,premceCat2_ses-01_part-01_label-phase1,2020.2.9,Win32,60,,,,,,,0,,,,,,stimuli/m5.jpg,stimuli/m2.jpg,2,stimuli/Outdoor activity & sport item.png,stimuli/Hand labour tool & accessory.png,stimuli/Kitchen & utensil.png,stimuli/Electronic device & accessory.png,4,0,1,stimuli/m2.jpg,,stimuli/objects/jack.jpg,,,,,,,,,1,0,1.9021,0,47,47,47,1,Electronic device & accessory,,,,,,,
,,,,,,,,,,,,,,21,2021-11-10_12h33.03.364,premceCat2_ses-01_part-01_label-phase1,2020.2.9,Win32,60,,,,,,,,,,,,,,,,,,,,,,,,,,,,,,,,,,,,,,,,,,,j,49.5257,0,0,0,0,1
0,[],,,,,,,,,,,,,21,2021-11-10_12h33.03.364,premceCat2_ses-01_part-01_label-phase1,2020.2.9,Win32,60,,,,,,,0,,,,,,stimuli/m2.jpg,stimuli/m5.jpg,2,stimuli/Outdoor activity & sport item.png,stimuli/Hand labour tool & accessory.png,stimuli/Electronic device & accessory.png,stimuli/Kitchen & utensil.png,2,1,1,stimuli/m5.jpg,,stimuli/objects/jumpingjack.jpg,,,,,,,,,3,0,2.2933,0,0,0,0,1,Hand labour tool & accessory,,,,,,,
0,[0],,,,,,,,,,,,,21,2021-11-10_12h33.03.364,premceCat2_ses-01_part-01_label-phase1,2020.2.9,Win32,60,,,,,,,0,,,,,,stimuli/m2.jpg,stimuli/m5.jpg,2,stimuli/Hand labour tool & accessory.png,stimuli/Outdoor activity & sport item.png,stimuli/Electronic device & accessory.png,stimuli/Kitchen & utensil.png,1,1,1,stimuli/m5.jpg,,stimuli/objects/boxcutter03a.jpg,,,,,,,,,3,0,1.1477,0,1,1,1,1,Hand labour tool & accessory,,,,,,,
1,"[0,0]",,,,,,,,,,,,,21,2021-11-10_12h33.03.364,premceCat2_ses-01_part-01_label-phase1,2020.2.9,Win32,60,,,,,,,0,,,,,,stimuli/m2.jpg,stimuli/m5.jpg,1,stimuli/Hand labour tool & accessory.png,stimuli/Kitchen & utensil.png,stimuli/Electronic device & accessory.png,stimuli/Outdoor activity & sport item.png,2,0,1,stimuli/m2.jpg,,stimuli/objects/huntingknife.jpg,,,,,,,,,2,1,1.8295,0,2,2,2,1,Kitchen & utensil,,,,,,,
0,"[0,0]",,,,,,,,,,,,,21,2021-11-10_12h33.03.364,premceCat2_ses-01_part-01_label-phase1,2020.2.9,Win32,60,,,,,,,0,,,,,,stimuli/m5.jpg,stimuli/m2.jpg,2,stimuli/Kitchen & utensil.png,stimuli/Electronic device & accessory.png,stimuli/Hand labour tool & accessory.png,stimuli/Outdoor activity & sport item.png,4,1,1,stimuli/m2.jpg,,stimuli/objects/footballhelmet.jpg,,,,,,,,,1,0,1.8782,0,3,3,3,1,Outdoor activity & sport item,,,,,,,
0,"[0,0,0]",,,,,,,,,,,,,21,2021-11-10_12h33.03.364,premceCat2_ses-01_part-01_label-phase1,2020.2.9,Win32,60,,,,,,,0,,,,,,stimuli/m5.jpg,stimuli/m2.jpg,1,stimuli/Outdoor activity & sport item.png,stimuli/Hand labour tool & accessory.png,stimuli/Kitchen & utensil.png,stimuli/Electronic device & accessory.png,2,1,1,stimuli/m5.jpg,,stimuli/objects/handrake01a.jpg,,,,,,,,,3,0,2.166,0,4,4,4,1,Hand labour tool & accessory,,,,,,,
1,"[0,0,0,0]",,,,,,,,,,,,,21,2021-11-10_12h33.03.364,premceCat2_ses-01_part-01_label-phase1,2020.2.9,Win32,60,,,,,,,1,,,,,,stimuli/m2.jpg,stimuli/m5.jpg,1,stimuli/Outdoor activity & sport item.png,stimuli/Electronic device & accessory.png,stimuli/Hand labour tool & accessory.png,stimuli/Kitchen & utensil.png,1,1,1,stimuli/m2.jpg,,stimuli/objects/crosscountryski.jpg,,,,,,,,,1,1,1.5979,0,5,5,5,1,Outdoor activity & sport item,,,,,,,
0,"[0,0,0,0,1]",,,,,,,,,,,,,21,2021-11-10_12h33.03.364,premceCat2_ses-01_part-01_label-phase1,2020.2.9,Win32,60,,,,,,,1,,,,,,stimuli/m5.jpg,stimuli/m2.jpg,2,stimuli/Hand labour tool & accessory.png,stimuli/Electronic device & accessory.png,stimuli/Outdoor activity & sport item.png,stimuli/Kitchen & utensil.png,2,0,1,stimuli/m2.jpg,,stimuli/objects/television.jpg,,,,,,,,,4,0,3.0358,0,6,6,6,1,Electronic device & accessory,,,,,,,
0,"[0,0,0,0,1]",,,,,,,,,,,,,21,2021-11-10_12h33.03.364,premceCat2_ses-01_part-01_label-phase1,2020.2.9,Win32,60,,,,,,,0,,,,,,stimuli/m5.jpg,stimuli/m2.jpg,2,stimuli/Kitchen & utensil.png,stimuli/Outdoor activity & sport item.png,stimuli/Hand labour tool & accessory.png,stimuli/Electronic device & accessory.png,2,1,1,stimuli/m2.jpg,,stimuli/objects/hose.jpg,,,,,,,,,4,0,2.1764,0,7,7,7,1,Outdoor activity & sport item,,,,,,,
0,"[0,0,0,0,1,0]",,,,,,,,,,,,,21,2021-11-10_12h33.03.364,premceCat2_ses-01_part-01_label-phase1,2020.2.9,Win32,60,,,,,,,0,,,,,,stimuli/m2.jpg,stimuli/m5.jpg,2,stimuli/Hand labour tool & accessory.png,stimuli/Electronic device & accessory.png,stimuli/Kitchen & utensil.png,stimuli/Outdoor activity & sport item.png,1,1,1,stimuli/m5.jpg,,stimuli/objects/solderingiron.jpg,,,,,,,,,3,0,2.4642,0,8,8,8,1,Hand labour tool & accessory,,,,,,,
0,"[0,0,0,0,1,0,0]",,,,,,,,,,,,,21,2021-11-10_12h33.03.364,premceCat2_ses-01_part-01_label-phase1,2020.2.9,Win32,60,,,,,,,0,,,,,,stimuli/m2.jpg,stimuli/m5.jpg,2,stimuli/Electronic device & accessory.png,stimuli/Kitchen & utensil.png,stimuli/Hand labour tool & accessory.png,stimuli/Outdoor activity & sport item.png,3,1,1,stimuli/m5.jpg,,stimuli/objects/gavel.jpg,,,,,,,,,2,0,1.831,0,9,9,9,1,Hand labour tool & accessory,,,,,,,
1,"[0,0,0,0,1,0,0,0]",,,,,,,,,,,,,21,2021-11-10_12h33.03.364,premceCat2_ses-01_part-01_label-phase1,2020.2.9,Win32,60,,,,,,,1,,,,,,stimuli/m5.jpg,stimuli/m2.jpg,1,stimuli/Kitchen & utensil.png,stimuli/Electronic device & accessory.png,stimuli/Outdoor activity & sport item.png,stimuli/Hand labour tool & accessory.png,4,1,1,stimuli/m5.jpg,,stimuli/objects/boxcutter03a.jpg,,,,,,,,,4,1,2.3427,0,10,10,10,1,Hand labour tool & accessory,,,,,,,
0,"[0,0,0,0,1,0,0,0,1]",,,,,,,,,,,,,21,2021-11-10_12h33.03.364,premceCat2_ses-01_part-01_label-phase1,2020.2.9,Win32,60,,,,,,,1,,,,,,stimuli/m2.jpg,stimuli/m5.jpg,2,stimuli/Electronic device & accessory.png,stimuli/Hand labour tool & accessory.png,stimuli/Outdoor activity & sport item.png,stimuli/Kitchen & utensil.png,1,0,1,stimuli/m5.jpg,,stimuli/objects/walkietalkie.jpg,,,,,,,,,2,0,1.4146,0,11,11,11,1,Electronic device & accessory,,,,,,,
0,"[0,0,0,0,1,0,0,0,1]",,,,,,,,,,,,,21,2021-11-10_12h33.03.364,premceCat2_ses-01_part-01_label-phase1,2020.2.9,Win32,60,,,,,,,1,,,,,,stimuli/m2.jpg,stimuli/m5.jpg,1,stimuli/Kitchen & utensil.png,stimuli/Electronic device & accessory.png,stimuli/Hand labour tool & accessory.png,stimuli/Outdoor activity & sport item.png,1,0,1,stimuli/m2.jpg,,stimuli/objects/coffeemaker.jpg,,,,,,,,,2,0,1.1643,0,12,12,12,1,Kitchen & utensil,,,,,,,
0,"[0,0,0,0,1,0,0,0,1]",,,,,,,,,,,,,21,2021-11-10_12h33.03.364,premceCat2_ses-01_part-01_label-phase1,2020.2.9,Win32,60,,,,,,,0,,,,,,stimuli/m5.jpg,stimuli/m2.jpg,2,stimuli/Outdoor activity & sport item.png,stimuli/Electronic device & accessory.png,stimuli/Kitchen & utensil.png,stimuli/Hand labour tool & accessory.png,1,1,1,stimuli/m2.jpg,,stimuli/objects/bicycle.jpg,,,,,,,,,3,0,3.5791,0,13,13,13,1,Outdoor activity & sport item,,,,,,,
0,"[0,0,0,0,1,0,0,0,1,0]",,,,,,,,,,,,,21,2021-11-10_12h33.03.364,premceCat2_ses-01_part-01_label-phase1,2020.2.9,Win32,60,,,,,,,0,,,,,,stimuli/m2.jpg,stimuli/m5.jpg,1,stimuli/Kitchen & utensil.png,stimuli/Outdoor activity & sport item.png,stimuli/Electronic device & accessory.png,stimuli/Hand labour tool & accessory.png,2,1,1,stimuli/m2.jpg,,stimuli/objects/punchingbag.jpg,,,,,,,,,1,0,3.1858,0,14,14,14,1,Outdoor activity & sport item,,,,,,,
0,"[0,0,0,0,1,0,0,0,1,0,0]",,,,,,,,,,,,,21,2021-11-10_12h33.03.364,premceCat2_ses-01_part-01_label-phase1,2020.2.9,Win32,60,,,,,,,0,,,,,,stimuli/m5.jpg,stimuli/m2.jpg,1,stimuli/Electronic device & accessory.png,stimuli/Outdoor activity & sport item.png,stimuli/Hand labour tool & accessory.png,stimuli/Kitchen & utensil.png,2,0,1,stimuli/m5.jpg,,stimuli/objects/footballhelmet.jpg,,,,,,,,,,0,,0,15,15,15,1,Outdoor activity & sport item,,,,,,,
0,"[0,0,0,0,1,0,0,0,1,0,0]",,,,,,,,,,,,,21,2021-11-10_12h33.03.364,premceCat2_ses-01_part-01_label-phase1,2020.2.9,Win32,60,,,,,,,0,,,,,,stimuli/m5.jpg,stimuli/m2.jpg,1,stimuli/Kitchen & utensil.png,stimuli/Hand labour tool & accessory.png,stimuli/Electronic device & accessory.png,stimuli/Outdoor activity & sport item.png,4,0,1,stimuli/m5.jpg,,stimuli/objects/swing.jpg,,,,,,,,,1,0,3.3966,0,16,16,16,1,Outdoor activity & sport item,,,,,,,
0,"[0,0,0,0,1,0,0,0,1,0,0]",,,,,,,,,,,,,21,2021-11-10_12h33.03.364,premceCat2_ses-01_part-01_label-phase1,2020.2.9,Win32,60,,,,,,,0,,,,,,stimuli/m2.jpg,stimuli/m5.jpg,2,stimuli/Hand labour tool & accessory.png,stimuli/Electronic device & accessory.png,stimuli/Outdoor activity & sport item.png,stimuli/Kitchen & utensil.png,1,1,1,stimuli/m5.jpg,,stimuli/objects/pitchfork.jpg,,,,,,,,,2,0,1.7289,0,17,17,17,1,Hand labour tool & accessory,,,,,,,
0,"[0,0,0,0,1,0,0,0,1,0,0,0]",,,,,,,,,,,,,21,2021-11-10_12h33.03.364,premceCat2_ses-01_part-01_label-phase1,2020.2.9,Win32,60,,,,,,,0,,,,,,stimuli/m5.jpg,stimuli/m2.jpg,2,stimuli/Hand labour tool & accessory.png,stimuli/Outdoor activity & sport item.png,stimuli/Electronic device & accessory.png,stimuli/Kitchen & utensil.png,2,1,1,stimuli/m2.jpg,,stimuli/objects/bicycle.jpg,,,,,,,,,1,0,2.1695,0,18,18,18,1,Outdoor activity & sport item,,,,,,,
0,"[0,0,0,0,1,0,0,0,1,0,0,0,0]",,,,,,,,,,,,,21,2021-11-10_12h33.03.364,premceCat2_ses-01_part-01_label-phase1,2020.2.9,Win32,60,,,,,,,0,,,,,,stimuli/m5.jpg,stimuli/m2.jpg,1,stimuli/Hand labour tool & accessory.png,stimuli/Outdoor activity & sport item.png,stimuli/Kitchen & utensil.png,stimuli/Electronic device & accessory.png,3,0,1,stimuli/m5.jpg,,stimuli/objects/freezer02.jpg,,,,,,,,,2,0,3.7137,0,19,19,19,1,Kitchen & utensil,,,,,,,
0,"[0,0,0,0,1,0,0,0,1,0,0,0,0]",,,,,,,,,,,,,21,2021-11-10_12h33.03.364,premceCat2_ses-01_part-01_label-phase1,2020.2.9,Win32,60,,,,,,,0,,,,,,stimuli/m2.jpg,stimuli/m5.jpg,1,stimuli/Kitchen & utensil.png,stimuli/Hand labour tool & accessory.png,stimuli/Electronic device & accessory.png,stimuli/Outdoor activity & sport item.png,2,0,1,stimuli/m2.jpg,,stimuli/objects/handrake01a.jpg,,,,,,,,,3,0,1.8001,0,20,20,20,1,Hand labour tool & accessory,,,,,,,
0,"[0,0,0,0,1,0,0,0,1,0,0,0,0]",,,,,,,,,,,,,21,2021-11-10_12h33.03.364,premceCat2_ses-01_part-01_label-phase1,2020.2.9,Win32,60,,,,,,,0,,,,,,stimuli/m5.jpg,stimuli/m2.jpg,1,stimuli/Outdoor activity & sport item.png,stimuli/Electronic device & accessory.png,stimuli/Hand labour tool & accessory.png,stimuli/Kitchen & utensil.png,3,1,1,stimuli/m5.jpg,,stimuli/objects/jumpingjack.jpg,,,,,,,,,4,0,1.5663,0,21,21,21,1,Hand labour tool & accessory,,,,,,,
0,"[0,0,0,0,1,0,0,0,1,0,0,0,0,0]",,,,,,,,,,,,,21,2021-11-10_12h33.03.364,premceCat2_ses-01_part-01_label-phase1,2020.2.9,Win32,60,,,,,,,0,,,,,,stimuli/m5.jpg,stimuli/m2.jpg,2,stimuli/Electronic device & accessory.png,stimuli/Kitchen & utensil.png,stimuli/Hand labour tool & accessory.png,stimuli/Outdoor activity & sport item.png,4,1,1,stimuli/m2.jpg,,stimuli/objects/bicycle.jpg,,,,,,,,,2,0,1.7619,0,22,22,22,1,Outdoor activity & sport item,,,,,,,
0,"[0,0,0,0,1,0,0,0,1,0,0,0,0,0,0]",,,,,,,,,,,,,21,2021-11-10_12h33.03.364,premceCat2_ses-01_part-01_label-phase1,2020.2.9,Win32,60,,,,,,,0,,,,,,stimuli/m5.jpg,stimuli/m2.jpg,1,stimuli/Hand labour tool & accessory.png,stimuli/Outdoor activity & sport item.png,stimuli/Electronic device & accessory.png,stimuli/Kitchen & utensil.png,1,1,1,stimuli/m5.jpg,,stimuli/objects/jumpingjack.jpg,,,,,,,,,2,0,1.4813,0,23,23,23,1,Hand labour tool & accessory,,,,,,,
0,"[0,0,0,0,1,0,0,0,1,0,0,0,0,0,0,0]",,,,,,,,,,,,,21,2021-11-10_12h33.03.364,premceCat2_ses-01_part-01_label-phase1,2020.2.9,Win32,60,,,,,,,0,,,,,,stimuli/m2.jpg,stimuli/m5.jpg,2,stimuli/Outdoor activity & sport item.png,stimuli/Electronic device & accessory.png,stimuli/Hand labour tool & accessory.png,stimuli/Kitchen & utensil.png,4,0,1,stimuli/m5.jpg,,stimuli/objects/jug.jpg,,,,,,,,,2,0,1.2949,0,24,24,24,1,Kitchen & utensil,,,,,,,
0,"[0,0,0,0,1,0,0,0,1,0,0,0,0,0,0,0]",,,,,,,,,,,,,21,2021-11-10_12h33.03.364,premceCat2_ses-01_part-01_label-phase1,2020.2.9,Win32,60,,,,,,,0,,,,,,stimuli/m2.jpg,stimuli/m5.jpg,1,stimuli/Electronic device & accessory.png,stimuli/Hand labour tool & accessory.png,stimuli/Kitchen & utensil.png,stimuli/Outdoor activity & sport item.png,4,1,1,stimuli/m2.jpg,,stimuli/objects/racquetballracket.jpg,,,,,,,,,3,0,3.3194,0,25,25,25,1,Outdoor activity & sport item,,,,,,,
0,"[0,0,0,0,1,0,0,0,1,0,0,0,0,0,0,0,0]",,,,,,,,,,,,,21,2021-11-10_12h33.03.364,premceCat2_ses-01_part-01_label-phase1,2020.2.9,Win32,60,,,,,,,0,,,,,,stimuli/m2.jpg,stimuli/m5.jpg,2,stimuli/Kitchen & utensil.png,stimuli/Outdoor activity & sport item.png,stimuli/Electronic device & accessory.png,stimuli/Hand labour tool & accessory.png,4,1,1,stimuli/m5.jpg,,stimuli/objects/jumpingjack.jpg,,,,,,,,,3,0,0.8161,0,26,26,26,1,Hand labour tool & accessory,,,,,,,
0,"[0,0,0,0,1,0,0,0,1,0,0,0,0,0,0,0,0,0]",,,,,,,,,,,,,21,2021-11-10_12h33.03.364,premceCat2_ses-01_part-01_label-phase1,2020.2.9,Win32,60,,,,,,,0,,,,,,stimuli/m2.jpg,stimuli/m5.jpg,2,stimuli/Hand labour tool & accessory.png,stimuli/Kitchen & utensil.png,stimuli/Electronic device & accessory.png,stimuli/Outdoor activity & sport item.png,1,1,1,stimuli/m5.jpg,,stimuli/objects/hedgetrimmer.jpg,,,,,,,,,3,0,0.5994,0,27,27,27,1,Hand labour tool & accessory,,,,,,,
0,"[0,0,0,0,1,0,0,0,1,0,0,0,0,0,0,0,0,0,0]",,,,,,,,,,,,,21,2021-11-10_12h33.03.364,premceCat2_ses-01_part-01_label-phase1,2020.2.9,Win32,60,,,,,,,0,,,,,,stimuli/m5.jpg,stimuli/m2.jpg,1,stimuli/Kitchen & utensil.png,stimuli/Outdoor activity & sport item.png,stimuli/Electronic device & accessory.png,stimuli/Hand labour tool & accessory.png,4,1,1,stimuli/m5.jpg,,stimuli/objects/gavel.jpg,,,,,,,,,2,0,1.9773,0,28,28,28,1,Hand labour tool & accessory,,,,,,,
1,"[0,0,0,0,1,0,0,0,1,0,0,0,0,0,0,0,0,0,0,0]",,,,,,,,,,,,,21,2021-11-10_12h33.03.364,premceCat2_ses-01_part-01_label-phase1,2020.2.9,Win32,60,,,,,,,1,,,,,,stimuli/m2.jpg,stimuli/m5.jpg,2,stimuli/Electronic device & accessory.png,stimuli/Hand labour tool & accessory.png,stimuli/Kitchen & utensil.png,stimuli/Outdoor activity & sport item.png,2,1,1,stimuli/m5.jpg,,stimuli/objects/gavel.jpg,,,,,,,,,2,1,1.486,0,29,29,29,1,Hand labour tool & accessory,,,,,,,
0,"[0,0,0,0,1,0,0,0,1,0,0,0,0,0,0,0,0,0,0,0,1]",,,,,,,,,,,,,21,2021-11-10_12h33.03.364,premceCat2_ses-01_part-01_label-phase1,2020.2.9,Win32,60,,,,,,,0,,,,,,stimuli/m2.jpg,stimuli/m5.jpg,1,stimuli/Kitchen & utensil.png,stimuli/Hand labour tool & accessory.png,stimuli/Outdoor activity & sport item.png,stimuli/Electronic device & accessory.png,3,1,1,stimuli/m2.jpg,,stimuli/objects/racquetballracket.jpg,,,,,,,,,1,0,0.9679,0,30,30,30,1,Outdoor activity & sport item,,,,,,,
1,"[0,0,0,0,1,0,0,0,1,0,0,0,0,0,0,0,0,0,0,0,1,0]",,,,,,,,,,,,,21,2021-11-10_12h33.03.364,premceCat2_ses-01_part-01_label-phase1,2020.2.9,Win32,60,,,,,,,1,,,,,,stimuli/m5.jpg,stimuli/m2.jpg,2,stimuli/Kitchen & utensil.png,stimuli/Electronic device & accessory.png,stimuli/Outdoor activity & sport item.png,stimuli/Hand labour tool & accessory.png,3,1,1,stimuli/m2.jpg,,stimuli/objects/punchingbag.jpg,,,,,,,,,3,1,1.7351,0,31,31,31,1,Outdoor activity & sport item,,,,,,,
1,"[0,0,0,0,1,0,0,0,1,0,0,0,0,0,0,0,0,0,0,0,1,0,1]",,,,,,,,,,,,,21,2021-11-10_12h33.03.364,premceCat2_ses-01_part-01_label-phase1,2020.2.9,Win32,60,,,,,,,1,,,,,,stimuli/m2.jpg,stimuli/m5.jpg,2,stimuli/Outdoor activity & sport item.png,stimuli/Hand labour tool & accessory.png,stimuli/Kitchen & utensil.png,stimuli/Electronic device & accessory.png,4,0,1,stimuli/m5.jpg,,stimuli/objects/camera01a.jpg,,,,,,,,,4,1,1.6608,0,32,32,32,1,Electronic device & accessory,,,,,,,
1,"[0,0,0,0,1,0,0,0,1,0,0,0,0,0,0,0,0,0,0,0,1,0,1]",,,,,,,,,,,,,21,2021-11-10_12h33.03.364,premceCat2_ses-01_part-01_label-phase1,2020.2.9,Win32,60,,,,,,,1,,,,,,stimuli/m2.jpg,stimuli/m5.jpg,2,stimuli/Outdoor activity & sport item.png,stimuli/Electronic device & accessory.png,stimuli/Kitchen & utensil.png,stimuli/Hand labour tool & accessory.png,4,1,1,stimuli/m5.jpg,,stimuli/objects/jumpingjack.jpg,,,,,,,,,4,1,0.3936,0,33,33,33,1,Hand labour tool & accessory,,,,,,,
0,"[0,0,0,0,1,0,0,0,1,0,0,0,0,0,0,0,0,0,0,0,1,0,1,1]",,,,,,,,,,,,,21,2021-11-10_12h33.03.364,premceCat2_ses-01_part-01_label-phase1,2020.2.9,Win32,60,,,,,,,0,,,,,,stimuli/m2.jpg,stimuli/m5.jpg,1,stimuli/Electronic device & accessory.png,stimuli/Kitchen & utensil.png,stimuli/Outdoor activity & sport item.png,stimuli/Hand labour tool & accessory.png,3,1,1,stimuli/m2.jpg,,stimuli/objects/swing.jpg,,,,,,,,,2,0,3.0971,0,34,34,34,1,Outdoor activity & sport item,,,,,,,
0,"[0,0,0,0,1,0,0,0,1,0,0,0,0,0,0,0,0,0,0,0,1,0,1,1,0]",,,,,,,,,,,,,21,2021-11-10_12h33.03.364,premceCat2_ses-01_part-01_label-phase1,2020.2.9,Win32,60,,,,,,,0,,,,,,stimuli/m5.jpg,stimuli/m2.jpg,1,stimuli/Hand labour tool & accessory.png,stimuli/Kitchen & utensil.png,stimuli/Outdoor activity & sport item.png,stimuli/Electronic device & accessory.png,1,1,1,stimuli/m5.jpg,,stimuli/objects/pitchfork.jpg,,,,,,,,,4,0,0.7943,0,35,35,35,1,Hand labour tool & accessory,,,,,,,
1,"[0,0,0,0,1,0,0,0,1,0,0,0,0,0,0,0,0,0,0,0,1,0,1,1,0,0]",,,,,,,,,,,,,21,2021-11-10_12h33.03.364,premceCat2_ses-01_part-01_label-phase1,2020.2.9,Win32,60,,,,,,,1,,,,,,stimuli/m2.jpg,stimuli/m5.jpg,1,stimuli/Electronic device & accessory.png,stimuli/Outdoor activity & sport item.png,stimuli/Hand labour tool & accessory.png,stimuli/Kitchen & utensil.png,2,1,1,stimuli/m2.jpg,,stimuli/objects/racquetballracket.jpg,,,,,,,,,2,1,2.1446,0,36,36,36,1,Outdoor activity & sport item,,,,,,,
0,"[0,0,0,0,1,0,0,0,1,0,0,0,0,0,0,0,0,0,0,0,1,0,1,1,0,0,1]",,,,,,,,,,,,,21,2021-11-10_12h33.03.364,premceCat2_ses-01_part-01_label-phase1,2020.2.9,Win32,60,,,,,,,0,,,,,,stimuli/m2.jpg,stimuli/m5.jpg,1,stimuli/Outdoor activity & sport item.png,stimuli/Hand labour tool & accessory.png,stimuli/Electronic device & accessory.png,stimuli/Kitchen & utensil.png,1,1,1,stimuli/m2.jpg,,stimuli/objects/telescope.jpg,,,,,,,,,4,0,2.7932,0,37,37,37,1,Outdoor activity & sport item,,,,,,,
0,"[0,0,0,0,1,0,0,0,1,0,0,0,0,0,0,0,0,0,0,0,1,0,1,1,0,0,1,0]",,,,,,,,,,,,,21,2021-11-10_12h33.03.364,premceCat2_ses-01_part-01_label-phase1,2020.2.9,Win32,60,,,,,,,0,,,,,,stimuli/m5.jpg,stimuli/m2.jpg,2,stimuli/Hand labour tool & accessory.png,stimuli/Kitchen & utensil.png,stimuli/Electronic device & accessory.png,stimuli/Outdoor activity & sport item.png,4,1,1,stimuli/m2.jpg,,stimuli/objects/footballhelmet.jpg,,,,,,,,,2,0,2.592,0,38,38,38,1,Outdoor activity & sport item,,,,,,,
1,"[0,0,0,0,1,0,0,0,1,0,0,0,0,0,0,0,0,0,0,0,1,0,1,1,0,0,1,0,0]",,,,,,,,,,,,,21,2021-11-10_12h33.03.364,premceCat2_ses-01_part-01_label-phase1,2020.2.9,Win32,60,,,,,,,1,,,,,,stimuli/m5.jpg,stimuli/m2.jpg,2,stimuli/Kitchen & utensil.png,stimuli/Hand labour tool & accessory.png,stimuli/Outdoor activity & sport item.png,stimuli/Electronic device & accessory.png,3,1,1,stimuli/m2.jpg,,stimuli/objects/swing.jpg,,,,,,,,,3,1,1.4895,0,39,39,39,1,Outdoor activity & sport item,,,,,,,
0,"[0,0,0,0,1,0,0,0,1,0,0,0,0,0,0,0,0,0,0,0,1,0,1,1,0,0,1,0,0,1]",,,,,,,,,,,,,21,2021-11-10_12h33.03.364,premceCat2_ses-01_part-01_label-phase1,2020.2.9,Win32,60,,,,,,,0,,,,,,stimuli/m5.jpg,stimuli/m2.jpg,1,stimuli/Outdoor activity & sport item.png,stimuli/Hand labour tool & accessory.png,stimuli/Electronic device & accessory.png,stimuli/Kitchen & utensil.png,2,1,1,stimuli/m5.jpg,,stimuli/objects/pitchfork.jpg,,,,,,,,,3,0,2.1524,0,40,40,40,1,Hand labour tool & accessory,,,,,,,
1,"[0,0,0,0,1,0,0,0,1,0,0,0,0,0,0,0,0,0,0,0,1,0,1,1,0,0,1,0,0,1,0]",,,,,,,,,,,,,21,2021-11-10_12h33.03.364,premceCat2_ses-01_part-01_label-phase1,2020.2.9,Win32,60,,,,,,,1,,,,,,stimuli/m2.jpg,stimuli/m5.jpg,1,stimuli/Hand labour tool & accessory.png,stimuli/Outdoor activity & sport item.png,stimuli/Electronic device & accessory.png,stimuli/Kitchen & utensil.png,2,1,1,stimuli/m2.jpg,,stimuli/objects/footballhelmet.jpg,,,,,,,,,2,1,0.8326,0,41,41,41,1,Outdoor activity & sport item,,,,,,,
1,"[0,0,0,0,1,0,0,0,1,0,0,0,0,0,0,0,0,0,0,0,1,0,1,1,0,0,1,0,0,1,0,1]",,,,,,,,,,,,,21,2021-11-10_12h33.03.364,premceCat2_ses-01_part-01_label-phase1,2020.2.9,Win32,60,,,,,,,1,,,,,,stimuli/m5.jpg,stimuli/m2.jpg,2,stimuli/Hand labour tool & accessory.png,stimuli/Outdoor activity & sport item.png,stimuli/Kitchen & utensil.png,stimuli/Electronic device & accessory.png,2,1,1,stimuli/m2.jpg,,stimuli/objects/rollerblade.jpg,,,,,,,,,2,1,0.5867,0,42,42,42,1,Outdoor activity & sport item,,,,,,,
1,"[0,0,0,0,1,0,0,0,1,0,0,0,0,0,0,0,0,0,0,0,1,0,1,1,0,0,1,0,0,1,0,1,1]",,,,,,,,,,,,,21,2021-11-10_12h33.03.364,premceCat2_ses-01_part-01_label-phase1,2020.2.9,Win32,60,,,,,,,1,,,,,,stimuli/m2.jpg,stimuli/m5.jpg,1,stimuli/Outdoor activity & sport item.png,stimuli/Kitchen & utensil.png,stimuli/Hand labour tool & accessory.png,stimuli/Electronic device & accessory.png,1,1,1,stimuli/m2.jpg,,stimuli/objects/crosscountryski.jpg,,,,,,,,,1,1,2.0741,0,43,43,43,1,Outdoor activity & sport item,,,,,,,
0,"[0,0,0,0,1,0,0,0,1,0,0,0,0,0,0,0,0,0,0,0,1,0,1,1,0,0,1,0,0,1,0,1,1,1]",,,,,,,,,,,,,21,2021-11-10_12h33.03.364,premceCat2_ses-01_part-01_label-phase1,2020.2.9,Win32,60,,,,,,,0,,,,,,stimuli/m5.jpg,stimuli/m2.jpg,1,stimuli/Kitchen & utensil.png,stimuli/Outdoor activity & sport item.png,stimuli/Hand labour tool & accessory.png,stimuli/Electronic device & accessory.png,3,1,1,stimuli/m5.jpg,,stimuli/objects/solderingiron.jpg,,,,,,,,,4,0,1.4643,0,44,44,44,1,Hand labour tool & accessory,,,,,,,
0,"[0,0,0,0,1,0,0,0,1,0,0,0,0,0,0,0,0,0,0,0,1,0,1,1,0,0,1,0,0,1,0,1,1,1,0]",,,,,,,,,,,,,21,2021-11-10_12h33.03.364,premceCat2_ses-01_part-01_label-phase1,2020.2.9,Win32,60,,,,,,,0,,,,,,stimuli/m5.jpg,stimuli/m2.jpg,2,stimuli/Kitchen & utensil.png,stimuli/Hand labour tool & accessory.png,stimuli/Electronic device & accessory.png,stimuli/Outdoor activity & sport item.png,2,0,1,stimuli/m2.jpg,,stimuli/objects/boxcutter03a.jpg,,,,,,,,,4,0,2.2677,0,45,45,45,1,Hand labour tool & accessory,,,,,,,
0,"[0,0,0,0,1,0,0,0,1,0,0,0,0,0,0,0,0,0,0,0,1,0,1,1,0,0,1,0,0,1,0,1,1,1,0]",,,,,,,,,,,,,21,2021-11-10_12h33.03.364,premceCat2_ses-01_part-01_label-phase1,2020.2.9,Win32,60,,,,,,,0,,,,,,stimuli/m2.jpg,stimuli/m5.jpg,2,stimuli/Kitchen & utensil.png,stimuli/Electronic device & accessory.png,stimuli/Hand labour tool & accessory.png,stimuli/Outdoor activity & sport item.png,3,1,1,stimuli/m5.jpg,,stimuli/objects/gavel.jpg,,,,,,,,,2,0,3.0845,0,46,46,46,1,Hand labour tool & accessory,,,,,,,
0,"[0,0,0,0,1,0,0,0,1,0,0,0,0,0,0,0,0,0,0,0,1,0,1,1,0,0,1,0,0,1,0,1,1,1,0,0]",,,,,,,,,,,,,21,2021-11-10_12h33.03.364,premceCat2_ses-01_part-01_label-phase1,2020.2.9,Win32,60,,,,,,,0,,,,,,stimuli/m5.jpg,stimuli/m2.jpg,2,stimuli/Outdoor activity & sport item.png,stimuli/Hand labour tool & accessory.png,stimuli/Kitchen & utensil.png,stimuli/Electronic device & accessory.png,4,0,1,stimuli/m2.jpg,,stimuli/objects/jack.jpg,,,,,,,,,3,0,1.0684,0,47,47,47,1,Electronic device & accessory,,,,,,,
,,,,,,,,,,,,,,21,2021-11-10_12h33.03.364,premceCat2_ses-01_part-01_label-phase1,2020.2.9,Win32,60,,,,,,,,,,,,,,,,,,,,,,,,,,,,,,,,,,,,,,,,,,,j,41.6348,1,0,1,0,1
0,[],,,,,,,,,,,,,21,2021-11-10_12h33.03.364,premceCat2_ses-01_part-01_label-phase1,2020.2.9,Win32,60,,,,,,,0,,,,,,stimuli/m2.jpg,stimuli/m5.jpg,2,stimuli/Outdoor activity & sport item.png,stimuli/Hand labour tool & accessory.png,stimuli/Electronic device & accessory.png,stimuli/Kitchen & utensil.png,2,1,1,stimuli/m5.jpg,,stimuli/objects/jumpingjack.jpg,,,,,,,,,3,0,1.479,0,0,0,0,1,Hand labour tool & accessory,,,,,,,
0,[0],,,,,,,,,,,,,21,2021-11-10_12h33.03.364,premceCat2_ses-01_part-01_label-phase1,2020.2.9,Win32,60,,,,,,,0,,,,,,stimuli/m2.jpg,stimuli/m5.jpg,2,stimuli/Hand labour tool & accessory.png,stimuli/Outdoor activity & sport item.png,stimuli/Electronic device & accessory.png,stimuli/Kitchen & utensil.png,1,1,1,stimuli/m5.jpg,,stimuli/objects/boxcutter03a.jpg,,,,,,,,,3,0,0.5616,0,1,1,1,1,Hand labour tool & accessory,,,,,,,
0,"[0,0]",,,,,,,,,,,,,21,2021-11-10_12h33.03.364,premceCat2_ses-01_part-01_label-phase1,2020.2.9,Win32,60,,,,,,,0,,,,,,stimuli/m2.jpg,stimuli/m5.jpg,1,stimuli/Hand labour tool & accessory.png,stimuli/Kitchen & utensil.png,stimuli/Electronic device & accessory.png,stimuli/Outdoor activity & sport item.png,2,0,1,stimuli/m2.jpg,,stimuli/objects/huntingknife.jpg,,,,,,,,,4,0,1.3098,0,2,2,2,1,Kitchen & utensil,,,,,,,
0,"[0,0]",,,,,,,,,,,,,21,2021-11-10_12h33.03.364,premceCat2_ses-01_part-01_label-phase1,2020.2.9,Win32,60,,,,,,,0,,,,,,stimuli/m5.jpg,stimuli/m2.jpg,2,stimuli/Kitchen & utensil.png,stimuli/Electronic device & accessory.png,stimuli/Hand labour tool & accessory.png,stimuli/Outdoor activity & sport item.png,4,1,1,stimuli/m2.jpg,,stimuli/objects/footballhelmet.jpg,,,,,,,,,1,0,0.9997,0,3,3,3,1,Outdoor activity & sport item,,,,,,,
0,"[0,0,0]",,,,,,,,,,,,,21,2021-11-10_12h33.03.364,premceCat2_ses-01_part-01_label-phase1,2020.2.9,Win32,60,,,,,,,0,,,,,,stimuli/m5.jpg,stimuli/m2.jpg,1,stimuli/Outdoor activity & sport item.png,stimuli/Hand labour tool & accessory.png,stimuli/Kitchen & utensil.png,stimuli/Electronic device & accessory.png,2,1,1,stimuli/m5.jpg,,stimuli/objects/handrake01a.jpg,,,,,,,,,4,0,2.4773,0,4,4,4,1,Hand labour tool & accessory,,,,,,,
0,"[0,0,0,0]",,,,,,,,,,,,,21,2021-11-10_12h33.03.364,premceCat2_ses-01_part-01_label-phase1,2020.2.9,Win32,60,,,,,,,0,,,,,,stimuli/m2.jpg,stimuli/m5.jpg,1,stimuli/Outdoor activity & sport item.png,stimuli/Electronic device & accessory.png,stimuli/Hand labour tool & accessory.png,stimuli/Kitchen & utensil.png,1,1,1,stimuli/m2.jpg,,stimuli/objects/crosscountryski.jpg,,,,,,,,,3,0,2.6615,0,5,5,5,1,Outdoor activity & sport item,,,,,,,
0,"[0,0,0,0,0]",,,,,,,,,,,,,21,2021-11-10_12h33.03.364,premceCat2_ses-01_part-01_label-phase1,2020.2.9,Win32,60,,,,,,,0,,,,,,stimuli/m5.jpg,stimuli/m2.jpg,2,stimuli/Hand labour tool & accessory.png,stimuli/Electronic device & accessory.png,stimuli/Outdoor activity & sport item.png,stimuli/Kitchen & utensil.png,2,0,1,stimuli/m2.jpg,,stimuli/objects/television.jpg,,,,,,,,,3,0,0.9657,0,6,6,6,1,Electronic device & accessory,,,,,,,
0,"[0,0,0,0,0]",,,,,,,,,,,,,21,2021-11-10_12h33.03.364,premceCat2_ses-01_part-01_label-phase1,2020.2.9,Win32,60,,,,,,,0,,,,,,stimuli/m5.jpg,stimuli/m2.jpg,2,stimuli/Kitchen & utensil.png,stimuli/Outdoor activity & sport item.png,stimuli/Hand labour tool & accessory.png,stimuli/Electronic device & accessory.png,2,1,1,stimuli/m2.jpg,,stimuli/objects/hose.jpg,,,,,,,,,4,0,0.8294,0,7,7,7,1,Outdoor activity & sport item,,,,,,,
0,"[0,0,0,0,0,0]",,,,,,,,,,,,,21,2021-11-10_12h33.03.364,premceCat2_ses-01_part-01_label-phase1,2020.2.9,Win32,60,,,,,,,0,,,,,,stimuli/m2.jpg,stimuli/m5.jpg,2,stimuli/Hand labour tool & accessory.png,stimuli/Electronic device & accessory.png,stimuli/Kitchen & utensil.png,stimuli/Outdoor activity & sport item.png,1,1,1,stimuli/m5.jpg,,stimuli/objects/solderingiron.jpg,,,,,,,,,4,0,2.5438,0,8,8,8,1,Hand labour tool & accessory,,,,,,,
0,"[0,0,0,0,0,0,0]",,,,,,,,,,,,,21,2021-11-10_12h33.03.364,premceCat2_ses-01_part-01_label-phase1,2020.2.9,Win32,60,,,,,,,0,,,,,,stimuli/m2.jpg,stimuli/m5.jpg,2,stimuli/Electronic device & accessory.png,stimuli/Kitchen & utensil.png,stimuli/Hand labour tool & accessory.png,stimuli/Outdoor activity & sport item.png,3,1,1,stimuli/m5.jpg,,stimuli/objects/gavel.jpg,,,,,,,,,1,0,1.649,0,9,9,9,1,Hand labour tool & accessory,,,,,,,
1,"[0,0,0,0,0,0,0,0]",,,,,,,,,,,,,21,2021-11-10_12h33.03.364,premceCat2_ses-01_part-01_label-phase1,2020.2.9,Win32,60,,,,,,,1,,,,,,stimuli/m5.jpg,stimuli/m2.jpg,1,stimuli/Kitchen & utensil.png,stimuli/Electronic device & accessory.png,stimuli/Outdoor activity & sport item.png,stimuli/Hand labour tool & accessory.png,4,1,1,stimuli/m5.jpg,,stimuli/objects/boxcutter03a.jpg,,,,,,,,,4,1,1.4797,0,10,10,10,1,Hand labour tool & accessory,,,,,,,
0,"[0,0,0,0,0,0,0,0,1]",,,,,,,,,,,,,21,2021-11-10_12h33.03.364,premceCat2_ses-01_part-01_label-phase1,2020.2.9,Win32,60,,,,,,,1,,,,,,stimuli/m2.jpg,stimuli/m5.jpg,2,stimuli/Electronic device & accessory.png,stimuli/Hand labour tool & accessory.png,stimuli/Outdoor activity & sport item.png,stimuli/Kitchen & utensil.png,1,0,1,stimuli/m5.jpg,,stimuli/objects/walkietalkie.jpg,,,,,,,,,2,0,2.3728,0,11,11,11,1,Electronic device & accessory,,,,,,,
0,"[0,0,0,0,0,0,0,0,1]",,,,,,,,,,,,,21,2021-11-10_12h33.03.364,premceCat2_ses-01_part-01_label-phase1,2020.2.9,Win32,60,,,,,,,1,,,,,,stimuli/m2.jpg,stimuli/m5.jpg,1,stimuli/Kitchen & utensil.png,stimuli/Electronic device & accessory.png,stimuli/Hand labour tool & accessory.png,stimuli/Outdoor activity & sport item.png,1,0,1,stimuli/m2.jpg,,stimuli/objects/coffeemaker.jpg,,,,,,,,,4,0,1.951,0,12,12,12,1,Kitchen & utensil,,,,,,,
0,"[0,0,0,0,0,0,0,0,1]",,,,,,,,,,,,,21,2021-11-10_12h33.03.364,premceCat2_ses-01_part-01_label-phase1,2020.2.9,Win32,60,,,,,,,0,,,,,,stimuli/m5.jpg,stimuli/m2.jpg,2,stimuli/Outdoor activity & sport item.png,stimuli/Electronic device & accessory.png,stimuli/Kitchen & utensil.png,stimuli/Hand labour tool & accessory.png,1,1,1,stimuli/m2.jpg,,stimuli/objects/bicycle.jpg,,,,,,,,,3,0,2.5004,0,13,13,13,1,Outdoor activity & sport item,,,,,,,
0,"[0,0,0,0,0,0,0,0,1,0]",,,,,,,,,,,,,21,2021-11-10_12h33.03.364,premceCat2_ses-01_part-01_label-phase1,2020.2.9,Win32,60,,,,,,,0,,,,,,stimuli/m2.jpg,stimuli/m5.jpg,1,stimuli/Kitchen & utensil.png,stimuli/Outdoor activity & sport item.png,stimuli/Electronic device & accessory.png,stimuli/Hand labour tool & accessory.png,2,1,1,stimuli/m2.jpg,,stimuli/objects/punchingbag.jpg,,,,,,,,,1,0,3.2681,0,14,14,14,1,Outdoor activity & sport item,,,,,,,
1,"[0,0,0,0,0,0,0,0,1,0,0]",,,,,,,,,,,,,21,2021-11-10_12h33.03.364,premceCat2_ses-01_part-01_label-phase1,2020.2.9,Win32,60,,,,,,,0,,,,,,stimuli/m5.jpg,stimuli/m2.jpg,1,stimuli/Electronic device & accessory.png,stimuli/Outdoor activity & sport item.png,stimuli/Hand labour tool & accessory.png,stimuli/Kitchen & utensil.png,2,0,1,stimuli/m5.jpg,,stimuli/objects/footballhelmet.jpg,,,,,,,,,2,1,1.6117,0,15,15,15,1,Outdoor activity & sport item,,,,,,,
0,"[0,0,0,0,0,0,0,0,1,0,0]",,,,,,,,,,,,,21,2021-11-10_12h33.03.364,premceCat2_ses-01_part-01_label-phase1,2020.2.9,Win32,60,,,,,,,0,,,,,,stimuli/m5.jpg,stimuli/m2.jpg,1,stimuli/Kitchen & utensil.png,stimuli/Hand labour tool & accessory.png,stimuli/Electronic device & accessory.png,stimuli/Outdoor activity & sport item.png,4,0,1,stimuli/m5.jpg,,stimuli/objects/swing.jpg,,,,,,,,,2,0,0.4669,0,16,16,16,1,Outdoor activity & sport item,,,,,,,
0,"[0,0,0,0,0,0,0,0,1,0,0]",,,,,,,,,,,,,21,2021-11-10_12h33.03.364,premceCat2_ses-01_part-01_label-phase1,2020.2.9,Win32,60,,,,,,,0,,,,,,stimuli/m2.jpg,stimuli/m5.jpg,2,stimuli/Hand labour tool & accessory.png,stimuli/Electronic device & accessory.png,stimuli/Outdoor activity & sport item.png,stimuli/Kitchen & utensil.png,1,1,1,stimuli/m5.jpg,,stimuli/objects/pitchfork.jpg,,,,,,,,,3,0,1.8846,0,17,17,17,1,Hand labour tool & accessory,,,,,,,
0,"[0,0,0,0,0,0,0,0,1,0,0,0]",,,,,,,,,,,,,21,2021-11-10_12h33.03.364,premceCat2_ses-01_part-01_label-phase1,2020.2.9,Win32,60,,,,,,,0,,,,,,stimuli/m5.jpg,stimuli/m2.jpg,2,stimuli/Hand labour tool & accessory.png,stimuli/Outdoor activity & sport item.png,stimuli/Electronic device & accessory.png,stimuli/Kitchen & utensil.png,2,1,1,stimuli/m2.jpg,,stimuli/objects/bicycle.jpg,,,,,,,,,3,0,1.8669,0,18,18,18,1,Outdoor activity & sport item,,,,,,,
0,"[0,0,0,0,0,0,0,0,1,0,0,0,0]",,,,,,,,,,,,,21,2021-11-10_12h33.03.364,premceCat2_ses-01_part-01_label-phase1,2020.2.9,Win32,60,,,,,,,0,,,,,,stimuli/m5.jpg,stimuli/m2.jpg,1,stimuli/Hand labour tool & accessory.png,stimuli/Outdoor activity & sport item.png,stimuli/Kitchen & utensil.png,stimuli/Electronic device & accessory.png,3,0,1,stimuli/m5.jpg,,stimuli/objects/freezer02.jpg,,,,,,,,,1,0,2.0182,0,19,19,19,1,Kitchen & utensil,,,,,,,
0,"[0,0,0,0,0,0,0,0,1,0,0,0,0]",,,,,,,,,,,,,21,2021-11-10_12h33.03.364,premceCat2_ses-01_part-01_label-phase1,2020.2.9,Win32,60,,,,,,,0,,,,,,stimuli/m2.jpg,stimuli/m5.jpg,1,stimuli/Kitchen & utensil.png,stimuli/Hand labour tool & accessory.png,stimuli/Electronic device & accessory.png,stimuli/Outdoor activity & sport item.png,2,0,1,stimuli/m2.jpg,,stimuli/objects/handrake01a.jpg,,,,,,,,,3,0,1.6829,0,20,20,20,1,Hand labour tool & accessory,,,,,,,
0,"[0,0,0,0,0,0,0,0,1,0,0,0,0]",,,,,,,,,,,,,21,2021-11-10_12h33.03.364,premceCat2_ses-01_part-01_label-phase1,2020.2.9,Win32,60,,,,,,,0,,,,,,stimuli/m5.jpg,stimuli/m2.jpg,1,stimuli/Outdoor activity & sport item.png,stimuli/Electronic device & accessory.png,stimuli/Hand labour tool & accessory.png,stimuli/Kitchen & utensil.png,3,1,1,stimuli/m5.jpg,,stimuli/objects/jumpingjack.jpg,,,,,,,,,4,0,2.4242,0,21,21,21,1,Hand labour tool & accessory,,,,,,,
0,"[0,0,0,0,0,0,0,0,1,0,0,0,0,0]",,,,,,,,,,,,,21,2021-11-10_12h33.03.364,premceCat2_ses-01_part-01_label-phase1,2020.2.9,Win32,60,,,,,,,0,,,,,,stimuli/m5.jpg,stimuli/m2.jpg,2,stimuli/Electronic device & accessory.png,stimuli/Kitchen & utensil.png,stimuli/Hand labour tool & accessory.png,stimuli/Outdoor activity & sport item.png,4,1,1,stimuli/m2.jpg,,stimuli/objects/bicycle.jpg,,,,,,,,,1,0,2.4017,0,22,22,22,1,Outdoor activity & sport item,,,,,,,
0,"[0,0,0,0,0,0,0,0,1,0,0,0,0,0,0]",,,,,,,,,,,,,21,2021-11-10_12h33.03.364,premceCat2_ses-01_part-01_label-phase1,2020.2.9,Win32,60,,,,,,,0,,,,,,stimuli/m5.jpg,stimuli/m2.jpg,1,stimuli/Hand labour tool & accessory.png,stimuli/Outdoor activity & sport item.png,stimuli/Electronic device & accessory.png,stimuli/Kitchen & utensil.png,1,1,1,stimuli/m5.jpg,,stimuli/objects/jumpingjack.jpg,,,,,,,,,3,0,1.4854,0,23,23,23,1,Hand labour tool & accessory,,,,,,,
0,"[0,0,0,0,0,0,0,0,1,0,0,0,0,0,0,0]",,,,,,,,,,,,,21,2021-11-10_12h33.03.364,premceCat2_ses-01_part-01_label-phase1,2020.2.9,Win32,60,,,,,,,0,,,,,,stimuli/m2.jpg,stimuli/m5.jpg,2,stimuli/Outdoor activity & sport item.png,stimuli/Electronic device & accessory.png,stimuli/Hand labour tool & accessory.png,stimuli/Kitchen & utensil.png,4,0,1,stimuli/m5.jpg,,stimuli/objects/jug.jpg,,,,,,,,,2,0,1.1018,0,24,24,24,1,Kitchen & utensil,,,,,,,
0,"[0,0,0,0,0,0,0,0,1,0,0,0,0,0,0,0]",,,,,,,,,,,,,21,2021-11-10_12h33.03.364,premceCat2_ses-01_part-01_label-phase1,2020.2.9,Win32,60,,,,,,,0,,,,,,stimuli/m2.jpg,stimuli/m5.jpg,1,stimuli/Electronic device & accessory.png,stimuli/Hand labour tool & accessory.png,stimuli/Kitchen & utensil.png,stimuli/Outdoor activity & sport item.png,4,1,1,stimuli/m2.jpg,,stimuli/objects/racquetballracket.jpg,,,,,,,,,2,0,3.7023,0,25,25,25,1,Outdoor activity & sport item,,,,,,,
0,"[0,0,0,0,0,0,0,0,1,0,0,0,0,0,0,0,0]",,,,,,,,,,,,,21,2021-11-10_12h33.03.364,premceCat2_ses-01_part-01_label-phase1,2020.2.9,Win32,60,,,,,,,0,,,,,,stimuli/m2.jpg,stimuli/m5.jpg,2,stimuli/Kitchen & utensil.png,stimuli/Outdoor activity & sport item.png,stimuli/Electronic device & accessory.png,stimuli/Hand labour tool & accessory.png,4,1,1,stimuli/m5.jpg,,stimuli/objects/jumpingjack.jpg,,,,,,,,,3,0,2.8172,0,26,26,26,1,Hand labour tool & accessory,,,,,,,
0,"[0,0,0,0,0,0,0,0,1,0,0,0,0,0,0,0,0,0]",,,,,,,,,,,,,21,2021-11-10_12h33.03.364,premceCat2_ses-01_part-01_label-phase1,2020.2.9,Win32,60,,,,,,,0,,,,,,stimuli/m2.jpg,stimuli/m5.jpg,2,stimuli/Hand labour tool & accessory.png,stimuli/Kitchen & utensil.png,stimuli/Electronic device & accessory.png,stimuli/Outdoor activity & sport item.png,1,1,1,stimuli/m5.jpg,,stimuli/objects/hedgetrimmer.jpg,,,,,,,,,3,0,1.3086,0,27,27,27,1,Hand labour tool & accessory,,,,,,,
0,"[0,0,0,0,0,0,0,0,1,0,0,0,0,0,0,0,0,0,0]",,,,,,,,,,,,,21,2021-11-10_12h33.03.364,premceCat2_ses-01_part-01_label-phase1,2020.2.9,Win32,60,,,,,,,0,,,,,,stimuli/m5.jpg,stimuli/m2.jpg,1,stimuli/Kitchen & utensil.png,stimuli/Outdoor activity & sport item.png,stimuli/Electronic device & accessory.png,stimuli/Hand labour tool & accessory.png,4,1,1,stimuli/m5.jpg,,stimuli/objects/gavel.jpg,,,,,,,,,3,0,1.2196,0,28,28,28,1,Hand labour tool & accessory,,,,,,,
1,"[0,0,0,0,0,0,0,0,1,0,0,0,0,0,0,0,0,0,0,0]",,,,,,,,,,,,,21,2021-11-10_12h33.03.364,premceCat2_ses-01_part-01_label-phase1,2020.2.9,Win32,60,,,,,,,1,,,,,,stimuli/m2.jpg,stimuli/m5.jpg,2,stimuli/Electronic device & accessory.png,stimuli/Hand labour tool & accessory.png,stimuli/Kitchen & utensil.png,stimuli/Outdoor activity & sport item.png,2,1,1,stimuli/m5.jpg,,stimuli/objects/gavel.jpg,,,,,,,,,2,1,1.8426,0,29,29,29,1,Hand labour tool & accessory,,,,,,,
0,"[0,0,0,0,0,0,0,0,1,0,0,0,0,0,0,0,0,0,0,0,1]",,,,,,,,,,,,,21,2021-11-10_12h33.03.364,premceCat2_ses-01_part-01_label-phase1,2020.2.9,Win32,60,,,,,,,0,,,,,,stimuli/m2.jpg,stimuli/m5.jpg,1,stimuli/Kitchen & utensil.png,stimuli/Hand labour tool & accessory.png,stimuli/Outdoor activity & sport item.png,stimuli/Electronic device & accessory.png,3,1,1,stimuli/m2.jpg,,stimuli/objects/racquetballracket.jpg,,,,,,,,,4,0,2.7724,0,30,30,30,1,Outdoor activity & sport item,,,,,,,
1,"[0,0,0,0,0,0,0,0,1,0,0,0,0,0,0,0,0,0,0,0,1,0]",,,,,,,,,,,,,21,2021-11-10_12h33.03.364,premceCat2_ses-01_part-01_label-phase1,2020.2.9,Win32,60,,,,,,,1,,,,,,stimuli/m5.jpg,stimuli/m2.jpg,2,stimuli/Kitchen & utensil.png,stimuli/Electronic device & accessory.png,stimuli/Outdoor activity & sport item.png,stimuli/Hand labour tool & accessory.png,3,1,1,stimuli/m2.jpg,,stimuli/objects/punchingbag.jpg,,,,,,,,,3,1,1.0617,0,31,31,31,1,Outdoor activity & sport item,,,,,,,
1,"[0,0,0,0,0,0,0,0,1,0,0,0,0,0,0,0,0,0,0,0,1,0,1]",,,,,,,,,,,,,21,2021-11-10_12h33.03.364,premceCat2_ses-01_part-01_label-phase1,2020.2.9,Win32,60,,,,,,,1,,,,,,stimuli/m2.jpg,stimuli/m5.jpg,2,stimuli/Outdoor activity & sport item.png,stimuli/Hand labour tool & accessory.png,stimuli/Kitchen & utensil.png,stimuli/Electronic device & accessory.png,4,0,1,stimuli/m5.jpg,,stimuli/objects/camera01a.jpg,,,,,,,,,4,1,1.2552,0,32,32,32,1,Electronic device & accessory,,,,,,,
0,"[0,0,0,0,0,0,0,0,1,0,0,0,0,0,0,0,0,0,0,0,1,0,1]",,,,,,,,,,,,,21,2021-11-10_12h33.03.364,premceCat2_ses-01_part-01_label-phase1,2020.2.9,Win32,60,,,,,,,0,,,,,,stimuli/m2.jpg,stimuli/m5.jpg,2,stimuli/Outdoor activity & sport item.png,stimuli/Electronic device & accessory.png,stimuli/Kitchen & utensil.png,stimuli/Hand labour tool & accessory.png,4,1,1,stimuli/m5.jpg,,stimuli/objects/jumpingjack.jpg,,,,,,,,,2,0,1.3503,0,33,33,33,1,Hand labour tool & accessory,,,,,,,
1,"[0,0,0,0,0,0,0,0,1,0,0,0,0,0,0,0,0,0,0,0,1,0,1,0]",,,,,,,,,,,,,21,2021-11-10_12h33.03.364,premceCat2_ses-01_part-01_label-phase1,2020.2.9,Win32,60,,,,,,,1,,,,,,stimuli/m2.jpg,stimuli/m5.jpg,1,stimuli/Electronic device & accessory.png,stimuli/Kitchen & utensil.png,stimuli/Outdoor activity & sport item.png,stimuli/Hand labour tool & accessory.png,3,1,1,stimuli/m2.jpg,,stimuli/objects/swing.jpg,,,,,,,,,3,1,0.9796,0,34,34,34,1,Outdoor activity & sport item,,,,,,,
0,"[0,0,0,0,0,0,0,0,1,0,0,0,0,0,0,0,0,0,0,0,1,0,1,0,1]",,,,,,,,,,,,,21,2021-11-10_12h33.03.364,premceCat2_ses-01_part-01_label-phase1,2020.2.9,Win32,60,,,,,,,0,,,,,,stimuli/m5.jpg,stimuli/m2.jpg,1,stimuli/Hand labour tool & accessory.png,stimuli/Kitchen & utensil.png,stimuli/Outdoor activity & sport item.png,stimuli/Electronic device & accessory.png,1,1,1,stimuli/m5.jpg,,stimuli/objects/pitchfork.jpg,,,,,,,,,4,0,1.1045,0,35,35,35,1,Hand labour tool & accessory,,,,,,,
1,"[0,0,0,0,0,0,0,0,1,0,0,0,0,0,0,0,0,0,0,0,1,0,1,0,1,0]",,,,,,,,,,,,,21,2021-11-10_12h33.03.364,premceCat2_ses-01_part-01_label-phase1,2020.2.9,Win32,60,,,,,,,1,,,,,,stimuli/m2.jpg,stimuli/m5.jpg,1,stimuli/Electronic device & accessory.png,stimuli/Outdoor activity & sport item.png,stimuli/Hand labour tool & accessory.png,stimuli/Kitchen & utensil.png,2,1,1,stimuli/m2.jpg,,stimuli/objects/racquetballracket.jpg,,,,,,,,,2,1,1.1506,0,36,36,36,1,Outdoor activity & sport item,,,,,,,
1,"[0,0,0,0,0,0,0,0,1,0,0,0,0,0,0,0,0,0,0,0,1,0,1,0,1,0,1]",,,,,,,,,,,,,21,2021-11-10_12h33.03.364,premceCat2_ses-01_part-01_label-phase1,2020.2.9,Win32,60,,,,,,,1,,,,,,stimuli/m2.jpg,stimuli/m5.jpg,1,stimuli/Outdoor activity & sport item.png,stimuli/Hand labour tool & accessory.png,stimuli/Electronic device & accessory.png,stimuli/Kitchen & utensil.png,1,1,1,stimuli/m2.jpg,,stimuli/objects/telescope.jpg,,,,,,,,,1,1,1.2157,0,37,37,37,1,Outdoor activity & sport item,,,,,,,
1,"[0,0,0,0,0,0,0,0,1,0,0,0,0,0,0,0,0,0,0,0,1,0,1,0,1,0,1,1]",,,,,,,,,,,,,21,2021-11-10_12h33.03.364,premceCat2_ses-01_part-01_label-phase1,2020.2.9,Win32,60,,,,,,,1,,,,,,stimuli/m5.jpg,stimuli/m2.jpg,2,stimuli/Hand labour tool & accessory.png,stimuli/Kitchen & utensil.png,stimuli/Electronic device & accessory.png,stimuli/Outdoor activity & sport item.png,4,1,1,stimuli/m2.jpg,,stimuli/objects/footballhelmet.jpg,,,,,,,,,4,1,1.7274,0,38,38,38,1,Outdoor activity & sport item,,,,,,,
1,"[0,0,0,0,0,0,0,0,1,0,0,0,0,0,0,0,0,0,0,0,1,0,1,0,1,0,1,1,1]",,,,,,,,,,,,,21,2021-11-10_12h33.03.364,premceCat2_ses-01_part-01_label-phase1,2020.2.9,Win32,60,,,,,,,1,,,,,,stimuli/m5.jpg,stimuli/m2.jpg,2,stimuli/Kitchen & utensil.png,stimuli/Hand labour tool & accessory.png,stimuli/Outdoor activity & sport item.png,stimuli/Electronic device & accessory.png,3,1,1,stimuli/m2.jpg,,stimuli/objects/swing.jpg,,,,,,,,,3,1,2.1108,0,39,39,39,1,Outdoor activity & sport item,,,,,,,
0,"[0,0,0,0,0,0,0,0,1,0,0,0,0,0,0,0,0,0,0,0,1,0,1,0,1,0,1,1,1,1]",,,,,,,,,,,,,21,2021-11-10_12h33.03.364,premceCat2_ses-01_part-01_label-phase1,2020.2.9,Win32,60,,,,,,,0,,,,,,stimuli/m5.jpg,stimuli/m2.jpg,1,stimuli/Outdoor activity & sport item.png,stimuli/Hand labour tool & accessory.png,stimuli/Electronic device & accessory.png,stimuli/Kitchen & utensil.png,2,1,1,stimuli/m5.jpg,,stimuli/objects/pitchfork.jpg,,,,,,,,,3,0,2.3001,0,40,40,40,1,Hand labour tool & accessory,,,,,,,
1,"[0,0,0,0,0,0,0,0,1,0,0,0,0,0,0,0,0,0,0,0,1,0,1,0,1,0,1,1,1,1,0]",,,,,,,,,,,,,21,2021-11-10_12h33.03.364,premceCat2_ses-01_part-01_label-phase1,2020.2.9,Win32,60,,,,,,,1,,,,,,stimuli/m2.jpg,stimuli/m5.jpg,1,stimuli/Hand labour tool & accessory.png,stimuli/Outdoor activity & sport item.png,stimuli/Electronic device & accessory.png,stimuli/Kitchen & utensil.png,2,1,1,stimuli/m2.jpg,,stimuli/objects/footballhelmet.jpg,,,,,,,,,2,1,1.2123,0,41,41,41,1,Outdoor activity & sport item,,,,,,,
1,"[0,0,0,0,0,0,0,0,1,0,0,0,0,0,0,0,0,0,0,0,1,0,1,0,1,0,1,1,1,1,0,1]",,,,,,,,,,,,,21,2021-11-10_12h33.03.364,premceCat2_ses-01_part-01_label-phase1,2020.2.9,Win32,60,,,,,,,1,,,,,,stimuli/m5.jpg,stimuli/m2.jpg,2,stimuli/Hand labour tool & accessory.png,stimuli/Outdoor activity & sport item.png,stimuli/Kitchen & utensil.png,stimuli/Electronic device & accessory.png,2,1,1,stimuli/m2.jpg,,stimuli/objects/rollerblade.jpg,,,,,,,,,2,1,0.7904,0,42,42,42,1,Outdoor activity & sport item,,,,,,,
1,"[0,0,0,0,0,0,0,0,1,0,0,0,0,0,0,0,0,0,0,0,1,0,1,0,1,0,1,1,1,1,0,1,1]",,,,,,,,,,,,,21,2021-11-10_12h33.03.364,premceCat2_ses-01_part-01_label-phase1,2020.2.9,Win32,60,,,,,,,1,,,,,,stimuli/m2.jpg,stimuli/m5.jpg,1,stimuli/Outdoor activity & sport item.png,stimuli/Kitchen & utensil.png,stimuli/Hand labour tool & accessory.png,stimuli/Electronic device & accessory.png,1,1,1,stimuli/m2.jpg,,stimuli/objects/crosscountryski.jpg,,,,,,,,,1,1,1.251,0,43,43,43,1,Outdoor activity & sport item,,,,,,,
0,"[0,0,0,0,0,0,0,0,1,0,0,0,0,0,0,0,0,0,0,0,1,0,1,0,1,0,1,1,1,1,0,1,1,1]",,,,,,,,,,,,,21,2021-11-10_12h33.03.364,premceCat2_ses-01_part-01_label-phase1,2020.2.9,Win32,60,,,,,,,0,,,,,,stimuli/m5.jpg,stimuli/m2.jpg,1,stimuli/Kitchen & utensil.png,stimuli/Outdoor activity & sport item.png,stimuli/Hand labour tool & accessory.png,stimuli/Electronic device & accessory.png,3,1,1,stimuli/m5.jpg,,stimuli/objects/solderingiron.jpg,,,,,,,,,4,0,0.9155,0,44,44,44,1,Hand labour tool & accessory,,,,,,,
0,"[0,0,0,0,0,0,0,0,1,0,0,0,0,0,0,0,0,0,0,0,1,0,1,0,1,0,1,1,1,1,0,1,1,1,0]",,,,,,,,,,,,,21,2021-11-10_12h33.03.364,premceCat2_ses-01_part-01_label-phase1,2020.2.9,Win32,60,,,,,,,0,,,,,,stimuli/m5.jpg,stimuli/m2.jpg,2,stimuli/Kitchen & utensil.png,stimuli/Hand labour tool & accessory.png,stimuli/Electronic device & accessory.png,stimuli/Outdoor activity & sport item.png,2,0,1,stimuli/m2.jpg,,stimuli/objects/boxcutter03a.jpg,,,,,,,,,4,0,1.5489,0,45,45,45,1,Hand labour tool & accessory,,,,,,,
1,"[0,0,0,0,0,0,0,0,1,0,0,0,0,0,0,0,0,0,0,0,1,0,1,0,1,0,1,1,1,1,0,1,1,1,0]",,,,,,,,,,,,,21,2021-11-10_12h33.03.364,premceCat2_ses-01_part-01_label-phase1,2020.2.9,Win32,60,,,,,,,1,,,,,,stimuli/m2.jpg,stimuli/m5.jpg,2,stimuli/Kitchen & utensil.png,stimuli/Electronic device & accessory.png,stimuli/Hand labour tool & accessory.png,stimuli/Outdoor activity & sport item.png,3,1,1,stimuli/m5.jpg,,stimuli/objects/gavel.jpg,,,,,,,,,3,1,1.2582,0,46,46,46,1,Hand labour tool & accessory,,,,,,,
0,"[0,0,0,0,0,0,0,0,1,0,0,0,0,0,0,0,0,0,0,0,1,0,1,0,1,0,1,1,1,1,0,1,1,1,0,1]",,,,,,,,,,,,,21,2021-11-10_12h33.03.364,premceCat2_ses-01_part-01_label-phase1,2020.2.9,Win32,60,,,,,,,1,,,,,,stimuli/m5.jpg,stimuli/m2.jpg,2,stimuli/Outdoor activity & sport item.png,stimuli/Hand labour tool & accessory.png,stimuli/Kitchen & utensil.png,stimuli/Electronic device & accessory.png,4,0,1,stimuli/m2.jpg,,stimuli/objects/jack.jpg,,,,,,,,,1,0,0.7143,0,47,47,47,1,Electronic device & accessory,,,,,,,
,,,,,,,,,,,,,,21,2021-11-10_12h33.03.364,premceCat2_ses-01_part-01_label-phase1,2020.2.9,Win32,60,,,,,,,,,,,,,,,,,,,,,,,,,,,,,,,,,,,,,,,,,,,n,10.654,2,0,2,0,1
