instructions_loop.thisRepN,instructions_loop.thisTrialN,instructions_loop.thisN,instructions_loop.thisIndex,instructions_loop.ran,text1,text2,text3,participant,date,expName,psychopyVersion,OS,frameRate,key_resp_2.keys,key_resp_2.rt,key_resp_3.keys,key_resp_3.rt,recog_resp.keys,recog_resp.rt,conf_resp.keys,conf_resp.rt,recog_loop.thisRepN,recog_loop.thisTrialN,recog_loop.thisN,recog_loop.thisIndex,recog_loop.ran,images,corr_ans,type,order,resp_assoc.keys,resp_assoc.rt,assoc_loop.thisRepN,assoc_loop.thisTrialN,assoc_loop.thisN,assoc_loop.thisIndex,assoc_loop.ran,key_resp_break.keys,key_resp_break.rt,list_loop.thisRepN,list_loop.thisTrialN,list_loop.thisN,list_loop.thisIndex,list_loop.ran,recog_list
0,0,0,0,1,Welcome to the last phase of this experiment!,.,Please press the space bar to continue,21,2021-11-11_15h51.30.943,premceCat2_ses-02_part-02_label-phase2,2020.2.10,Win32,60,,,,,,,,,,,,,,,,,,,,,,,,,,,,,,,,
0,1,1,1,1,.,"In this phase, you will see some objects. 

For each object, you should indicate whether you have seen it before during the experiment.

Press LEFT ARROW for YES
Press RIGHT ARROW for NO

",Please press the space bar to continue ,21,2021-11-11_15h51.30.943,premceCat2_ses-02_part-02_label-phase2,2020.2.10,Win32,60,,,,,,,,,,,,,,,,,,,,,,,,,,,,,,,,
0,2,2,2,1,.,"After that, you will be asked how confident you are of your choice.

Please rate the confidence in your choice with the numbers from 1 to 4 of your keyboard. 

The numbers correspond to:

1 = Very unsure
2 = Unsure
3 = Sure
4 = Very Sure",Please press the space bar to continue,21,2021-11-11_15h51.30.943,premceCat2_ses-02_part-02_label-phase2,2020.2.10,Win32,60,,,,,,,,,,,,,,,,,,,,,,,,,,,,,,,,
,,,,,,,,21,2021-11-11_15h51.30.943,premceCat2_ses-02_part-02_label-phase2,2020.2.10,Win32,60,space,13.7472,space,13.2003,right,3.4031,1,4.2991,0,0,0,39,1,stimuli/objects/sippycup.jpg,right,new,40,,,,,,,,,,,,,,,
,,,,,,,,21,2021-11-11_15h51.30.943,premceCat2_ses-02_part-02_label-phase2,2020.2.10,Win32,60,,,,,right,5.1134,4,1.4022,0,1,1,19,1,stimuli/objects/peppermill02b.jpg,right,new,20,,,,,,,,,,,,,,,
,,,,,,,,21,2021-11-11_15h51.30.943,premceCat2_ses-02_part-02_label-phase2,2020.2.10,Win32,60,,,,,right,2.6218,4,2.3877,0,2,2,41,1,stimuli/objects/pylon01.jpg,right,new,42,,,,,,,,,,,,,,,
,,,,,,,,21,2021-11-11_15h51.30.943,premceCat2_ses-02_part-02_label-phase2,2020.2.10,Win32,60,,,,,right,2.9839,4,2.9269,0,3,3,57,1,stimuli/objects/audiocablesplitter.jpg,right,new,58,,,,,,,,,,,,,,,
,,,,,,,,21,2021-11-11_15h51.30.943,premceCat2_ses-02_part-02_label-phase2,2020.2.10,Win32,60,,,,,left,3.1999,4,8.179,,,,,,,,,,left,21.0568,0,0,0,0,1,,,,,,,,
,,,,,,,,21,2021-11-11_15h51.30.943,premceCat2_ses-02_part-02_label-phase2,2020.2.10,Win32,60,,,,,,,,,0,4,4,32,1,stimuli/objects/mitresaw.jpg,right,new,33,,,,,,,,,,,,,,,
,,,,,,,,21,2021-11-11_15h51.30.943,premceCat2_ses-02_part-02_label-phase2,2020.2.10,Win32,60,,,,,right,3.4529,4,4.6259,0,5,5,119,1,stimuli/objects/tongs01b.jpg,right,new,120,,,,,,,,,,,,,,,
,,,,,,,,21,2021-11-11_15h51.30.943,premceCat2_ses-02_part-02_label-phase2,2020.2.10,Win32,60,,,,,left,3.9534,3,0.9911,,,,,,,,,,left,4.9902,0,0,0,0,1,,,,,,,,
,,,,,,,,21,2021-11-11_15h51.30.943,premceCat2_ses-02_part-02_label-phase2,2020.2.10,Win32,60,,,,,,,,,0,6,6,64,1,stimuli/objects/drillbit03a.jpg,left,old,65,,,,,,,,,,,,,,,
,,,,,,,,21,2021-11-11_15h51.30.943,premceCat2_ses-02_part-02_label-phase2,2020.2.10,Win32,60,,,,,left,3.4486,4,1.5686,,,,,,,,,,right,2.5528,0,0,0,0,1,,,,,,,,
,,,,,,,,21,2021-11-11_15h51.30.943,premceCat2_ses-02_part-02_label-phase2,2020.2.10,Win32,60,,,,,,,,,0,7,7,34,1,stimuli/objects/lifesaver.jpg,left,old,35,,,,,,,,,,,,,,,
,,,,,,,,21,2021-11-11_15h51.30.943,premceCat2_ses-02_part-02_label-phase2,2020.2.10,Win32,60,,,,,left,6.8069,2,1.0785,,,,,,,,,,right,2.9824,0,0,0,0,1,,,,,,,,
,,,,,,,,21,2021-11-11_15h51.30.943,premceCat2_ses-02_part-02_label-phase2,2020.2.10,Win32,60,,,,,,,,,0,8,8,134,1,stimuli/objects/screwdriver04b.jpg,right,new,135,,,,,,,,,,,,,,,
,,,,,,,,21,2021-11-11_15h51.30.943,premceCat2_ses-02_part-02_label-phase2,2020.2.10,Win32,60,,,,,left,2.9509,4,2.3423,,,,,,,,,,left,1.4546,0,0,0,0,1,,,,,,,,
,,,,,,,,21,2021-11-11_15h51.30.943,premceCat2_ses-02_part-02_label-phase2,2020.2.10,Win32,60,,,,,,,,,0,9,9,137,1,stimuli/objects/surfboard.jpg,left,old,138,,,,,,,,,,,,,,,
,,,,,,,,21,2021-11-11_15h51.30.943,premceCat2_ses-02_part-02_label-phase2,2020.2.10,Win32,60,,,,,left,1.9627,4,0.8888,,,,,,,,,,left,4.7669,0,0,0,0,1,,,,,,,,
,,,,,,,,21,2021-11-11_15h51.30.943,premceCat2_ses-02_part-02_label-phase2,2020.2.10,Win32,60,,,,,,,,,0,10,10,31,1,stimuli/objects/gastank.jpg,left,old,32,,,,,,,,,,,,,,,
,,,,,,,,21,2021-11-11_15h51.30.943,premceCat2_ses-02_part-02_label-phase2,2020.2.10,Win32,60,,,,,left,1.958,4,0.5278,,,,,,,,,,right,3.89,0,0,0,0,1,,,,,,,,
,,,,,,,,21,2021-11-11_15h51.30.943,premceCat2_ses-02_part-02_label-phase2,2020.2.10,Win32,60,,,,,,,,,0,11,11,88,1,stimuli/objects/gravyboat.jpg,left,old,89,,,,,,,,,,,,,,,
,,,,,,,,21,2021-11-11_15h51.30.943,premceCat2_ses-02_part-02_label-phase2,2020.2.10,Win32,60,,,,,left,2.3409,4,2.6965,,,,,,,,,,left,0.7245,0,0,0,0,1,,,,,,,,
,,,,,,,,21,2021-11-11_15h51.30.943,premceCat2_ses-02_part-02_label-phase2,2020.2.10,Win32,60,,,,,,,,,0,12,12,58,1,stimuli/objects/weedwacker.jpg,left,old,59,,,,,,,,,,,,,,,
,,,,,,,,21,2021-11-11_15h51.30.943,premceCat2_ses-02_part-02_label-phase2,2020.2.10,Win32,60,,,,,left,2.4013,4,2.3848,,,,,,,,,,left,0.7722,0,0,0,0,1,,,,,,,,
,,,,,,,,21,2021-11-11_15h51.30.943,premceCat2_ses-02_part-02_label-phase2,2020.2.10,Win32,60,,,,,,,,,0,13,13,95,1,stimuli/objects/floppydisk02a.jpg,left,old,96,,,,,,,,,,,,,,,
,,,,,,,,21,2021-11-11_15h51.30.943,premceCat2_ses-02_part-02_label-phase2,2020.2.10,Win32,60,,,,,right,1.8568,4,2.4864,0,14,14,24,1,stimuli/objects/skateboard.jpg,right,new,25,,,,,,,,,,,,,,,
,,,,,,,,21,2021-11-11_15h51.30.943,premceCat2_ses-02_part-02_label-phase2,2020.2.10,Win32,60,,,,,right,2.6456,4,0.7639,0,15,15,59,1,stimuli/objects/studiolight.jpg,right,new,60,,,,,,,,,,,,,,,
,,,,,,,,21,2021-11-11_15h51.30.943,premceCat2_ses-02_part-02_label-phase2,2020.2.10,Win32,60,,,,,left,2.4463,4,4.484,,,,,,,,,,left,13.4875,0,0,0,0,1,,,,,,,,
,,,,,,,,21,2021-11-11_15h51.30.943,premceCat2_ses-02_part-02_label-phase2,2020.2.10,Win32,60,,,,,,,,,0,16,16,107,1,stimuli/objects/aluminiumfoil.jpg,left,old,108,,,,,,,,,,,,,,,
,,,,,,,,21,2021-11-11_15h51.30.943,premceCat2_ses-02_part-02_label-phase2,2020.2.10,Win32,60,,,,,right,4.5793,2,0.8706,0,17,17,74,1,stimuli/objects/snowboard.jpg,left,old,75,,,,,,,,,,,,,,,
,,,,,,,,21,2021-11-11_15h51.30.943,premceCat2_ses-02_part-02_label-phase2,2020.2.10,Win32,60,,,,,right,5.7683,1,1.1369,0,18,18,30,1,stimuli/objects/printer02.jpg,right,new,31,,,,,,,,,,,,,,,
,,,,,,,,21,2021-11-11_15h51.30.943,premceCat2_ses-02_part-02_label-phase2,2020.2.10,Win32,60,,,,,right,2.0219,3,1.6674,0,19,19,25,1,stimuli/objects/bowlingball.jpg,right,new,26,,,,,,,,,,,,,,,
,,,,,,,,21,2021-11-11_15h51.30.943,premceCat2_ses-02_part-02_label-phase2,2020.2.10,Win32,60,,,,,right,4.3403,1,0.4809,0,20,20,94,1,stimuli/objects/electricmixer.jpg,right,new,95,,,,,,,,,,,,,,,
,,,,,,,,21,2021-11-11_15h51.30.943,premceCat2_ses-02_part-02_label-phase2,2020.2.10,Win32,60,,,,,left,3.2674,2,0.7743,,,,,,,,,,right,2.8773,0,0,0,0,1,,,,,,,,
,,,,,,,,21,2021-11-11_15h51.30.943,premceCat2_ses-02_part-02_label-phase2,2020.2.10,Win32,60,,,,,,,,,0,21,21,101,1,stimuli/objects/vhstape.jpg,left,old,102,,,,,,,,,,,,,,,
,,,,,,,,21,2021-11-11_15h51.30.943,premceCat2_ses-02_part-02_label-phase2,2020.2.10,Win32,60,,,,,left,2.1074,3,4.7324,,,,,,,,,,right,7.5354,0,0,0,0,1,,,,,,,,
,,,,,,,,21,2021-11-11_15h51.30.943,premceCat2_ses-02_part-02_label-phase2,2020.2.10,Win32,60,,,,,,,,,0,22,22,96,1,stimuli/objects/golfbag.jpg,right,new,97,,,,,,,,,,,,,,,
,,,,,,,,21,2021-11-11_15h51.30.943,premceCat2_ses-02_part-02_label-phase2,2020.2.10,Win32,60,,,,,left,4.6155,1,0.8438,,,,,,,,,,right,2.0333,0,0,0,0,1,,,,,,,,
,,,,,,,,21,2021-11-11_15h51.30.943,premceCat2_ses-02_part-02_label-phase2,2020.2.10,Win32,60,,,,,,,,,0,23,23,114,1,stimuli/objects/tray.jpg,left,old,115,,,,,,,,,,,,,,,
,,,,,,,,21,2021-11-11_15h51.30.943,premceCat2_ses-02_part-02_label-phase2,2020.2.10,Win32,60,,,,,left,2.935,4,1.1203,,,,,,,,,,left,1.4684,0,0,0,0,1,,,,,,,,
,,,,,,,,21,2021-11-11_15h51.30.943,premceCat2_ses-02_part-02_label-phase2,2020.2.10,Win32,60,,,,,,,,,0,24,24,16,1,stimuli/objects/knifesharpener.jpg,left,old,17,,,,,,,,,,,,,,,
,,,,,,,,21,2021-11-11_15h51.30.943,premceCat2_ses-02_part-02_label-phase2,2020.2.10,Win32,60,,,,,right,3.8188,2,3.8175,0,25,25,42,1,stimuli/objects/snowshoe.jpg,right,new,43,,,,,,,,,,,,,,,
,,,,,,,,21,2021-11-11_15h51.30.943,premceCat2_ses-02_part-02_label-phase2,2020.2.10,Win32,60,,,,,left,3.3657,3,3.9907,,,,,,,,,,right,4.0657,0,0,0,0,1,,,,,,,,
,,,,,,,,21,2021-11-11_15h51.30.943,premceCat2_ses-02_part-02_label-phase2,2020.2.10,Win32,60,,,,,,,,,0,26,26,61,1,stimuli/objects/squeegee01b.jpg,left,old,62,,,,,,,,,,,,,,,
,,,,,,,,21,2021-11-11_15h51.30.943,premceCat2_ses-02_part-02_label-phase2,2020.2.10,Win32,60,,,,,right,2.4702,4,1.8675,0,27,27,110,1,stimuli/objects/lock03a.jpg,right,new,111,,,,,,,,,,,,,,,
,,,,,,,,21,2021-11-11_15h51.30.943,premceCat2_ses-02_part-02_label-phase2,2020.2.10,Win32,60,,,,,left,1.868,4,0.9208,,,,,,,,,,right,2.6187,0,0,0,0,1,,,,,,,,
,,,,,,,,21,2021-11-11_15h51.30.943,premceCat2_ses-02_part-02_label-phase2,2020.2.10,Win32,60,,,,,,,,,0,28,28,7,1,stimuli/objects/painttray.jpg,left,old,8,,,,,,,,,,,,,,,
,,,,,,,,21,2021-11-11_15h51.30.943,premceCat2_ses-02_part-02_label-phase2,2020.2.10,Win32,60,,,,,left,6.7438,4,0.8955,,,,,,,,,,right,3.8952,0,0,0,0,1,,,,,,,,
,,,,,,,,21,2021-11-11_15h51.30.943,premceCat2_ses-02_part-02_label-phase2,2020.2.10,Win32,60,,,,,,,,,0,29,29,130,1,stimuli/objects/cooler01.jpg,left,old,131,,,,,,,,,,,,,,,
,,,,,,,,21,2021-11-11_15h51.30.943,premceCat2_ses-02_part-02_label-phase2,2020.2.10,Win32,60,,,,,left,2.234,4,1.5904,,,,,,,,,,left,0.679,0,0,0,0,1,,,,,,,,
,,,,,,,,21,2021-11-11_15h51.30.943,premceCat2_ses-02_part-02_label-phase2,2020.2.10,Win32,60,,,,,,,,,0,30,30,27,1,stimuli/objects/anchor.jpg,left,old,28,,,,,,,,,,,,,,,
,,,,,,,,21,2021-11-11_15h51.30.943,premceCat2_ses-02_part-02_label-phase2,2020.2.10,Win32,60,,,,,right,3.2505,1,0.8187,0,31,31,138,1,stimuli/objects/taperecorder.jpg,right,new,139,,,,,,,,,,,,,,,
,,,,,,,,21,2021-11-11_15h51.30.943,premceCat2_ses-02_part-02_label-phase2,2020.2.10,Win32,60,,,,,left,1.7202,3,2.2159,,,,,,,,,,left,3.7095,0,0,0,0,1,,,,,,,,
,,,,,,,,21,2021-11-11_15h51.30.943,premceCat2_ses-02_part-02_label-phase2,2020.2.10,Win32,60,,,,,,,,,0,32,32,11,1,stimuli/objects/videocamera01a.jpg,left,old,12,,,,,,,,,,,,,,,
,,,,,,,,21,2021-11-11_15h51.30.943,premceCat2_ses-02_part-02_label-phase2,2020.2.10,Win32,60,,,,,right,1.692,4,1.804,0,33,33,63,1,stimuli/objects/butterdish.jpg,right,new,64,,,,,,,,,,,,,,,
,,,,,,,,21,2021-11-11_15h51.30.943,premceCat2_ses-02_part-02_label-phase2,2020.2.10,Win32,60,,,,,right,1.566,4,2.0698,0,34,34,73,1,stimuli/objects/clock01a.jpg,right,new,74,,,,,,,,,,,,,,,
,,,,,,,,21,2021-11-11_15h51.30.943,premceCat2_ses-02_part-02_label-phase2,2020.2.10,Win32,60,,,,,right,1.5141,3,2.4361,0,35,35,76,1,stimuli/objects/megaphone.jpg,right,new,77,,,,,,,,,,,,,,,
,,,,,,,,21,2021-11-11_15h51.30.943,premceCat2_ses-02_part-02_label-phase2,2020.2.10,Win32,60,,,,,left,1.9468,4,2.6608,,,,,,,,,,left,4.3609,0,0,0,0,1,,,,,,,,
,,,,,,,,21,2021-11-11_15h51.30.943,premceCat2_ses-02_part-02_label-phase2,2020.2.10,Win32,60,,,,,,,,,0,36,36,36,1,stimuli/objects/slidetray.jpg,left,old,37,,,,,,,,,,,,,,,
,,,,,,,,21,2021-11-11_15h51.30.943,premceCat2_ses-02_part-02_label-phase2,2020.2.10,Win32,60,,,,,left,2.3827,4,0.674,,,,,,,,,,left,0.8669,0,0,0,0,1,,,,,,,,
,,,,,,,,21,2021-11-11_15h51.30.943,premceCat2_ses-02_part-02_label-phase2,2020.2.10,Win32,60,,,,,,,,,0,37,37,132,1,stimuli/objects/payphone.jpg,left,old,133,,,,,,,,,,,,,,,
,,,,,,,,21,2021-11-11_15h51.30.943,premceCat2_ses-02_part-02_label-phase2,2020.2.10,Win32,60,,,,,left,1.9717,4,1.0543,,,,,,,,,,right,1.0584,0,0,0,0,1,,,,,,,,
,,,,,,,,21,2021-11-11_15h51.30.943,premceCat2_ses-02_part-02_label-phase2,2020.2.10,Win32,60,,,,,,,,,0,38,38,52,1,stimuli/objects/handmixer01d.jpg,left,old,53,,,,,,,,,,,,,,,
,,,,,,,,21,2021-11-11_15h51.30.943,premceCat2_ses-02_part-02_label-phase2,2020.2.10,Win32,60,,,,,right,2.7789,2,0.7351,0,39,39,120,1,stimuli/objects/oven.jpg,left,old,121,,,,,,,,,,,,,,,
,,,,,,,,21,2021-11-11_15h51.30.943,premceCat2_ses-02_part-02_label-phase2,2020.2.10,Win32,60,,,,,right,1.8687,4,0.9744,0,40,40,112,1,stimuli/objects/gymnasticring.jpg,right,new,113,,,,,,,,,,,,,,,
,,,,,,,,21,2021-11-11_15h51.30.943,premceCat2_ses-02_part-02_label-phase2,2020.2.10,Win32,60,,,,,right,2.6625,1,0.9035,0,41,41,23,1,stimuli/objects/football.jpg,right,new,24,,,,,,,,,,,,,,,
,,,,,,,,21,2021-11-11_15h51.30.943,premceCat2_ses-02_part-02_label-phase2,2020.2.10,Win32,60,,,,,right,3.729,3,0.9538,0,42,42,43,1,stimuli/objects/punchingball.jpg,right,new,44,,,,,,,,,,,,,,,
,,,,,,,,21,2021-11-11_15h51.30.943,premceCat2_ses-02_part-02_label-phase2,2020.2.10,Win32,60,,,,,right,3.5083,2,4.0671,0,43,43,60,1,stimuli/objects/glass02a.jpg,right,new,61,,,,,,,,,,,,,,,
,,,,,,,,21,2021-11-11_15h51.30.943,premceCat2_ses-02_part-02_label-phase2,2020.2.10,Win32,60,,,,,left,1.7313,4,1.4269,,,,,,,,,,left,1.3147,0,0,0,0,1,,,,,,,,
,,,,,,,,21,2021-11-11_15h51.30.943,premceCat2_ses-02_part-02_label-phase2,2020.2.10,Win32,60,,,,,,,,,0,44,44,37,1,stimuli/objects/pressurewasher.jpg,left,old,38,,,,,,,,,,,,,,,
,,,,,,,,21,2021-11-11_15h51.30.943,premceCat2_ses-02_part-02_label-phase2,2020.2.10,Win32,60,,,,,left,2.713,3,0.9061,,,,,,,,,,right,1.4351,0,0,0,0,1,,,,,,,,
,,,,,,,,21,2021-11-11_15h51.30.943,premceCat2_ses-02_part-02_label-phase2,2020.2.10,Win32,60,,,,,,,,,0,45,45,44,1,stimuli/objects/lawnmower.jpg,left,old,45,,,,,,,,,,,,,,,
,,,,,,,,21,2021-11-11_15h51.30.943,premceCat2_ses-02_part-02_label-phase2,2020.2.10,Win32,60,,,,,right,2.2498,4,1.8697,0,46,46,109,1,stimuli/objects/winerack.jpg,right,new,110,,,,,,,,,,,,,,,
,,,,,,,,21,2021-11-11_15h51.30.943,premceCat2_ses-02_part-02_label-phase2,2020.2.10,Win32,60,,,,,left,2.5426,3,2.1569,,,,,,,,,,right,3.1342,0,0,0,0,1,,,,,,,,
,,,,,,,,21,2021-11-11_15h51.30.943,premceCat2_ses-02_part-02_label-phase2,2020.2.10,Win32,60,,,,,,,,,0,47,47,28,1,stimuli/objects/poolnet.jpg,left,old,29,,,,,,,,,,,,,,,
,,,,,,,,21,2021-11-11_15h51.30.943,premceCat2_ses-02_part-02_label-phase2,2020.2.10,Win32,60,,,,,left,2.2695,4,0.6046,,,,,,,,,,left,4.4994,0,0,0,0,1,,,,,,,,
,,,,,,,,21,2021-11-11_15h51.30.943,premceCat2_ses-02_part-02_label-phase2,2020.2.10,Win32,60,,,,,,,,,0,48,48,142,1,stimuli/objects/martiniglass01b.jpg,left,old,143,,,,,,,,,,,,,,,
,,,,,,,,21,2021-11-11_15h51.30.943,premceCat2_ses-02_part-02_label-phase2,2020.2.10,Win32,60,,,,,right,3.6847,2,0.9902,0,49,49,54,1,stimuli/objects/pda.jpg,right,new,55,,,,,,,,,,,,,,,
,,,,,,,,21,2021-11-11_15h51.30.943,premceCat2_ses-02_part-02_label-phase2,2020.2.10,Win32,60,,,,,left,3.727,1,0.337,,,,,,,,,,left,2.5992,0,0,0,0,1,,,,,,,,
,,,,,,,,21,2021-11-11_15h51.30.943,premceCat2_ses-02_part-02_label-phase2,2020.2.10,Win32,60,,,,,,,,,0,50,50,20,1,stimuli/objects/laptop01a.jpg,right,new,21,,,,,,,,,,,,,,,
,,,,,,,,21,2021-11-11_15h51.30.943,premceCat2_ses-02_part-02_label-phase2,2020.2.10,Win32,60,,,,,right,3.7994,2,1.6974,0,51,51,131,1,stimuli/objects/spotlight.jpg,right,new,132,,,,,,,,,,,,,,,
,,,,,,,,21,2021-11-11_15h51.30.943,premceCat2_ses-02_part-02_label-phase2,2020.2.10,Win32,60,,,,,left,1.5289,3,0.8041,,,,,,,,,,right,1.5243,0,0,0,0,1,,,,,,,,
,,,,,,,,21,2021-11-11_15h51.30.943,premceCat2_ses-02_part-02_label-phase2,2020.2.10,Win32,60,,,,,,,,,0,52,52,40,1,stimuli/objects/level03a.jpg,left,old,41,,,,,,,,,,,,,,,
,,,,,,,,21,2021-11-11_15h51.30.943,premceCat2_ses-02_part-02_label-phase2,2020.2.10,Win32,60,,,,,left,1.9869,4,0.7016,,,,,,,,,,left,4.4509,0,0,0,0,1,,,,,,,,
,,,,,,,,21,2021-11-11_15h51.30.943,premceCat2_ses-02_part-02_label-phase2,2020.2.10,Win32,60,,,,,,,,,0,53,53,65,1,stimuli/objects/drill01b.jpg,left,old,66,,,,,,,,,,,,,,,
,,,,,,,,21,2021-11-11_15h51.30.943,premceCat2_ses-02_part-02_label-phase2,2020.2.10,Win32,60,,,,,left,1.3312,4,0.4863,,,,,,,,,,right,2.1447,0,0,0,0,1,,,,,,,,
,,,,,,,,21,2021-11-11_15h51.30.943,premceCat2_ses-02_part-02_label-phase2,2020.2.10,Win32,60,,,,,,,,,0,54,54,50,1,stimuli/objects/chisel02b.jpg,right,new,51,,,,,,,,,,,,,,,
,,,,,,,,21,2021-11-11_15h51.30.943,premceCat2_ses-02_part-02_label-phase2,2020.2.10,Win32,60,,,,,left,1.3783,4,0.5256,,,,,,,,,,right,4.8396,0,0,0,0,1,,,,,,,,
,,,,,,,,21,2021-11-11_15h51.30.943,premceCat2_ses-02_part-02_label-phase2,2020.2.10,Win32,60,,,,,,,,,0,55,55,115,1,stimuli/objects/saw02b.jpg,left,old,116,,,,,,,,,,,,,,,
,,,,,,,,21,2021-11-11_15h51.30.943,premceCat2_ses-02_part-02_label-phase2,2020.2.10,Win32,60,,,,,left,1.832,4,1.7221,,,,,,,,,,right,1.6185,0,0,0,0,1,,,,,,,,
,,,,,,,,21,2021-11-11_15h51.30.943,premceCat2_ses-02_part-02_label-phase2,2020.2.10,Win32,60,,,,,,,,,0,56,56,104,1,stimuli/objects/lectern01.jpg,left,old,105,,,,,,,,,,,,,,,
,,,,,,,,21,2021-11-11_15h51.30.943,premceCat2_ses-02_part-02_label-phase2,2020.2.10,Win32,60,,,,,left,2.2876,2,1.6883,,,,,,,,,,left,3.504,0,0,0,0,1,,,,,,,,
,,,,,,,,21,2021-11-11_15h51.30.943,premceCat2_ses-02_part-02_label-phase2,2020.2.10,Win32,60,,,,,,,,,0,57,57,35,1,stimuli/objects/alarmclock01.jpg,left,old,36,,,,,,,,,,,,,,,
,,,,,,,,21,2021-11-11_15h51.30.943,premceCat2_ses-02_part-02_label-phase2,2020.2.10,Win32,60,,,,,right,1.4319,4,0.6373,0,58,58,141,1,stimuli/objects/generator.jpg,right,new,142,,,,,,,,,,,,,,,
,,,,,,,,21,2021-11-11_15h51.30.943,premceCat2_ses-02_part-02_label-phase2,2020.2.10,Win32,60,,,,,right,3.3826,2,0.4567,0,59,59,68,1,stimuli/objects/leafblower01.jpg,right,new,69,,,,,,,,,,,,,,,
,,,,,,,,21,2021-11-11_15h51.30.943,premceCat2_ses-02_part-02_label-phase2,2020.2.10,Win32,60,,,,,right,1.7948,4,2.4868,0,60,60,17,1,stimuli/objects/exercisebench.jpg,right,new,18,,,,,,,,,,,,,,,
,,,,,,,,21,2021-11-11_15h51.30.943,premceCat2_ses-02_part-02_label-phase2,2020.2.10,Win32,60,,,,,left,2.761,2,1.3709,,,,,,,,,,left,1.3952,0,0,0,0,1,,,,,,,,
,,,,,,,,21,2021-11-11_15h51.30.943,premceCat2_ses-02_part-02_label-phase2,2020.2.10,Win32,60,,,,,,,,,0,61,61,122,1,stimuli/objects/desktopcomputer.jpg,left,old,123,,,,,,,,,,,,,,,
,,,,,,,,21,2021-11-11_15h51.30.943,premceCat2_ses-02_part-02_label-phase2,2020.2.10,Win32,60,,,,,right,6.9619,1,0.4984,0,62,62,128,1,stimuli/objects/tripod01.jpg,right,new,129,,,,,,,,,,,,,,,
,,,,,,,,21,2021-11-11_15h51.30.943,premceCat2_ses-02_part-02_label-phase2,2020.2.10,Win32,60,,,,,right,1.0459,4,0.5032,0,63,63,100,1,stimuli/objects/remotecontrol04.jpg,right,new,101,,,,,,,,,,,,,,,
,,,,,,,,21,2021-11-11_15h51.30.943,premceCat2_ses-02_part-02_label-phase2,2020.2.10,Win32,60,,,,,left,1.4171,4,0.5535,,,,,,,,,,right,1.136,0,0,0,0,1,,,,,,,,
,,,,,,,,21,2021-11-11_15h51.30.943,premceCat2_ses-02_part-02_label-phase2,2020.2.10,Win32,60,,,,,,,,,0,64,64,67,1,stimuli/objects/fishingrod.jpg,left,old,68,,,,,,,,,,,,,,,
,,,,,,,,21,2021-11-11_15h51.30.943,premceCat2_ses-02_part-02_label-phase2,2020.2.10,Win32,60,,,,,left,1.6853,4,0.7266,,,,,,,,,,right,1.4873,0,0,0,0,1,,,,,,,,
,,,,,,,,21,2021-11-11_15h51.30.943,premceCat2_ses-02_part-02_label-phase2,2020.2.10,Win32,60,,,,,,,,,0,65,65,91,1,stimuli/objects/metalbrush.jpg,left,old,92,,,,,,,,,,,,,,,
,,,,,,,,21,2021-11-11_15h51.30.943,premceCat2_ses-02_part-02_label-phase2,2020.2.10,Win32,60,,,,,left,1.3477,4,0.6199,,,,,,,,,,right,1.2363,0,0,0,0,1,,,,,,,,
,,,,,,,,21,2021-11-11_15h51.30.943,premceCat2_ses-02_part-02_label-phase2,2020.2.10,Win32,60,,,,,,,,,0,66,66,89,1,stimuli/objects/ducttape.jpg,right,new,90,,,,,,,,,,,,,,,
,,,,,,,,21,2021-11-11_15h51.30.943,premceCat2_ses-02_part-02_label-phase2,2020.2.10,Win32,60,,,,,right,1.6163,4,0.5228,0,67,67,22,1,stimuli/objects/umbrella04.jpg,right,new,23,,,,,,,,,,,,,,,
,,,,,,,,21,2021-11-11_15h51.30.943,premceCat2_ses-02_part-02_label-phase2,2020.2.10,Win32,60,,,,,left,1.7889,4,2.5532,,,,,,,,,,left,1.5959,0,0,0,0,1,,,,,,,,
,,,,,,,,21,2021-11-11_15h51.30.943,premceCat2_ses-02_part-02_label-phase2,2020.2.10,Win32,60,,,,,,,,,0,68,68,124,1,stimuli/objects/fishinghook03.jpg,left,old,125,,,,,,,,,,,,,,,
,,,,,,,,21,2021-11-11_15h51.30.943,premceCat2_ses-02_part-02_label-phase2,2020.2.10,Win32,60,,,,,right,3.1092,2,0.5352,0,69,69,66,1,stimuli/objects/nailgun.jpg,right,new,67,,,,,,,,,,,,,,,
,,,,,,,,21,2021-11-11_15h51.30.943,premceCat2_ses-02_part-02_label-phase2,2020.2.10,Win32,60,,,,,right,1.3731,3,0.4214,0,70,70,126,1,stimuli/objects/tableknife02.jpg,right,new,127,,,,,,,,,,,,,,,
,,,,,,,,21,2021-11-11_15h51.30.943,premceCat2_ses-02_part-02_label-phase2,2020.2.10,Win32,60,,,,,right,2.5166,2,2.7735,0,71,71,85,1,stimuli/objects/golfball.jpg,right,new,86,,,,,,,,,,,,,,,
,,,,,,,,21,2021-11-11_15h51.30.943,premceCat2_ses-02_part-02_label-phase2,2020.2.10,Win32,60,,,,,right,0.9964,4,0.4696,0,72,72,116,1,stimuli/objects/radio01.jpg,right,new,117,,,,,,,,,,,,,,,
,,,,,,,,21,2021-11-11_15h51.30.943,premceCat2_ses-02_part-02_label-phase2,2020.2.10,Win32,60,,,,,left,1.2527,4,0.7766,,,,,,,,,,right,0.936,0,0,0,0,1,,,,,,,,
,,,,,,,,21,2021-11-11_15h51.30.943,premceCat2_ses-02_part-02_label-phase2,2020.2.10,Win32,60,,,,,,,,,0,73,73,98,1,stimuli/objects/baseball01a.jpg,left,old,99,,,,,,,,,,,,,,,
,,,,,,,,21,2021-11-11_15h51.30.943,premceCat2_ses-02_part-02_label-phase2,2020.2.10,Win32,60,,,,,left,1.5806,3,0.8068,,,,,,,,,,right,0.9013,0,0,0,0,1,,,,,,,,
,,,,,,,,21,2021-11-11_15h51.30.943,premceCat2_ses-02_part-02_label-phase2,2020.2.10,Win32,60,,,,,,,,,0,74,74,21,1,stimuli/objects/paintbrush01.jpg,right,new,22,,,,,,,,,,,,,,,
,,,,,,,,21,2021-11-11_15h51.30.943,premceCat2_ses-02_part-02_label-phase2,2020.2.10,Win32,60,,,,,left,1.4263,4,0.504,,,,,,,,,,right,1.3024,0,0,0,0,1,,,,,,,,
,,,,,,,,21,2021-11-11_15h51.30.943,premceCat2_ses-02_part-02_label-phase2,2020.2.10,Win32,60,,,,,,,,,0,75,75,140,1,stimuli/objects/canoepaddle02.jpg,left,old,141,,,,,,,,,,,,,,,
,,,,,,,,21,2021-11-11_15h51.30.943,premceCat2_ses-02_part-02_label-phase2,2020.2.10,Win32,60,,,,,left,1.4101,4,0.417,,,,,,,,,,left,0.5883,0,0,0,0,1,,,,,,,,
,,,,,,,,21,2021-11-11_15h51.30.943,premceCat2_ses-02_part-02_label-phase2,2020.2.10,Win32,60,,,,,,,,,0,76,76,29,1,stimuli/objects/outletadapter.jpg,left,old,30,,,,,,,,,,,,,,,
,,,,,,,,21,2021-11-11_15h51.30.943,premceCat2_ses-02_part-02_label-phase2,2020.2.10,Win32,60,,,,,right,5.8678,1,1.236,0,77,77,106,1,stimuli/objects/minifridge.jpg,right,new,107,,,,,,,,,,,,,,,
,,,,,,,,21,2021-11-11_15h51.30.943,premceCat2_ses-02_part-02_label-phase2,2020.2.10,Win32,60,,,,,left,2.2135,3,0.5981,,,,,,,,,,right,0.3692,0,0,0,0,1,,,,,,,,
,,,,,,,,21,2021-11-11_15h51.30.943,premceCat2_ses-02_part-02_label-phase2,2020.2.10,Win32,60,,,,,,,,,0,78,78,8,1,stimuli/objects/basketballhoop01.jpg,right,new,9,,,,,,,,,,,,,,,
,,,,,,,,21,2021-11-11_15h51.30.943,premceCat2_ses-02_part-02_label-phase2,2020.2.10,Win32,60,,,,,left,1.6438,4,0.3789,,,,,,,,,,right,0.6384,0,0,0,0,1,,,,,,,,
,,,,,,,,21,2021-11-11_15h51.30.943,premceCat2_ses-02_part-02_label-phase2,2020.2.10,Win32,60,,,,,,,,,0,79,79,47,1,stimuli/objects/caulking.jpg,left,old,48,,,,,,,,,,,,,,,
,,,,,,,,21,2021-11-11_15h51.30.943,premceCat2_ses-02_part-02_label-phase2,2020.2.10,Win32,60,,,,,left,5.834,1,0.452,,,,,,,,,,left,1.0767,0,0,0,0,1,,,,,,,,
,,,,,,,,21,2021-11-11_15h51.30.943,premceCat2_ses-02_part-02_label-phase2,2020.2.10,Win32,60,,,,,,,,,0,80,80,10,1,stimuli/objects/dvdplayer.jpg,left,old,11,,,,,,,,,,,,,,,
,,,,,,,,21,2021-11-11_15h51.30.943,premceCat2_ses-02_part-02_label-phase2,2020.2.10,Win32,60,,,,,left,4.2988,1,0.7113,,,,,,,,,,right,1.5112,0,0,0,0,1,,,,,,,,
,,,,,,,,21,2021-11-11_15h51.30.943,premceCat2_ses-02_part-02_label-phase2,2020.2.10,Win32,60,,,,,,,,,0,81,81,55,1,stimuli/objects/toolbox02.jpg,right,new,56,,,,,,,,,,,,,,,
,,,,,,,,21,2021-11-11_15h51.30.943,premceCat2_ses-02_part-02_label-phase2,2020.2.10,Win32,60,,,,,right,1.1678,4,0.9396,0,82,82,121,1,stimuli/objects/ceilingspeaker.jpg,right,new,122,,,,,,,,,,,,,,,
,,,,,,,,21,2021-11-11_15h51.30.943,premceCat2_ses-02_part-02_label-phase2,2020.2.10,Win32,60,,,,,left,1.6666,1,0.4034,,,,,,,,,,right,2.0174,0,0,0,0,1,,,,,,,,
,,,,,,,,21,2021-11-11_15h51.30.943,premceCat2_ses-02_part-02_label-phase2,2020.2.10,Win32,60,,,,,,,,,0,83,83,82,1,stimuli/objects/snowbrush.jpg,right,new,83,,,,,,,,,,,,,,,
,,,,,,,,21,2021-11-11_15h51.30.943,premceCat2_ses-02_part-02_label-phase2,2020.2.10,Win32,60,,,,,left,1.2315,4,0.5863,,,,,,,,,,left,1.5625,0,0,0,0,1,,,,,,,,
,,,,,,,,21,2021-11-11_15h51.30.943,premceCat2_ses-02_part-02_label-phase2,2020.2.10,Win32,60,,,,,,,,,0,84,84,79,1,stimuli/objects/fluorescentlightbulb.jpg,left,old,80,,,,,,,,,,,,,,,
,,,,,,,,21,2021-11-11_15h51.30.943,premceCat2_ses-02_part-02_label-phase2,2020.2.10,Win32,60,,,,,left,1.8611,4,0.9128,,,,,,,,,,left,1.5093,0,0,0,0,1,,,,,,,,
,,,,,,,,21,2021-11-11_15h51.30.943,premceCat2_ses-02_part-02_label-phase2,2020.2.10,Win32,60,,,,,,,,,0,85,85,15,1,stimuli/objects/watercooler.jpg,left,old,16,,,,,,,,,,,,,,,
,,,,,,,,21,2021-11-11_15h51.30.943,premceCat2_ses-02_part-02_label-phase2,2020.2.10,Win32,60,,,,,left,1.7044,2,2.0321,,,,,,,,,,right,1.1517,0,0,0,0,1,,,,,,,,
,,,,,,,,21,2021-11-11_15h51.30.943,premceCat2_ses-02_part-02_label-phase2,2020.2.10,Win32,60,,,,,,,,,0,86,86,51,1,stimuli/objects/webcam.jpg,right,new,52,,,,,,,,,,,,,,,
,,,,,,,,21,2021-11-11_15h51.30.943,premceCat2_ses-02_part-02_label-phase2,2020.2.10,Win32,60,,,,,right,1.3746,3,0.495,0,87,87,108,1,stimuli/objects/metalscissors.jpg,right,new,109,,,,,,,,,,,,,,,
,,,,,,,,21,2021-11-11_15h51.30.943,premceCat2_ses-02_part-02_label-phase2,2020.2.10,Win32,60,,,,,left,1.5894,4,0.6206,,,,,,,,,,left,1.0066,0,0,0,0,1,,,,,,,,
,,,,,,,,21,2021-11-11_15h51.30.943,premceCat2_ses-02_part-02_label-phase2,2020.2.10,Win32,60,,,,,,,,,0,88,88,1,1,stimuli/objects/ipad02.jpg,left,old,2,,,,,,,,,,,,,,,
,,,,,,,,21,2021-11-11_15h51.30.943,premceCat2_ses-02_part-02_label-phase2,2020.2.10,Win32,60,,,,,left,2.9959,2,0.7868,,,,,,,,,,right,1.0835,0,0,0,0,1,,,,,,,,
,,,,,,,,21,2021-11-11_15h51.30.943,premceCat2_ses-02_part-02_label-phase2,2020.2.10,Win32,60,,,,,,,,,0,89,89,127,1,stimuli/objects/reflector.jpg,left,old,128,,,,,,,,,,,,,,,
,,,,,,,,21,2021-11-11_15h51.30.943,premceCat2_ses-02_part-02_label-phase2,2020.2.10,Win32,60,,,,,left,1.0275,4,0.4599,,,,,,,,,,left,1.9385,0,0,0,0,1,,,,,,,,
,,,,,,,,21,2021-11-11_15h51.30.943,premceCat2_ses-02_part-02_label-phase2,2020.2.10,Win32,60,,,,,,,,,0,90,90,97,1,stimuli/objects/securitycamera.jpg,left,old,98,,,,,,,,,,,,,,,
,,,,,,,,21,2021-11-11_15h51.30.943,premceCat2_ses-02_part-02_label-phase2,2020.2.10,Win32,60,,,,,right,2.1699,1,0.4795,0,91,91,72,1,stimuli/objects/cclamp.jpg,right,new,73,,,,,,,,,,,,,,,
,,,,,,,,21,2021-11-11_15h51.30.943,premceCat2_ses-02_part-02_label-phase2,2020.2.10,Win32,60,,,,,left,0.9897,4,0.627,,,,,,,,,,right,0.9795,0,0,0,0,1,,,,,,,,
,,,,,,,,21,2021-11-11_15h51.30.943,premceCat2_ses-02_part-02_label-phase2,2020.2.10,Win32,60,,,,,,,,,0,92,92,135,1,stimuli/objects/stubbywrench01a.jpg,left,old,136,,,,,,,,,,,,,,,
,,,,,,,,21,2021-11-11_15h51.30.943,premceCat2_ses-02_part-02_label-phase2,2020.2.10,Win32,60,,,,,left,1.5961,4,0.6851,,,,,,,,,,right,0.5012,0,0,0,0,1,,,,,,,,
,,,,,,,,21,2021-11-11_15h51.30.943,premceCat2_ses-02_part-02_label-phase2,2020.2.10,Win32,60,,,,,,,,,0,93,93,45,1,stimuli/objects/cookingpot.jpg,left,old,46,,,,,,,,,,,,,,,
,,,,,,,,21,2021-11-11_15h51.30.943,premceCat2_ses-02_part-02_label-phase2,2020.2.10,Win32,60,,,,,right,1.661,4,0.8708,0,94,94,133,1,stimuli/objects/icebucket.jpg,right,new,134,,,,,,,,,,,,,,,
,,,,,,,,21,2021-11-11_15h51.30.943,premceCat2_ses-02_part-02_label-phase2,2020.2.10,Win32,60,,,,,left,1.6108,4,2.0915,,,,,,,,,,right,1.2695,0,0,0,0,1,,,,,,,,
,,,,,,,,21,2021-11-11_15h51.30.943,premceCat2_ses-02_part-02_label-phase2,2020.2.10,Win32,60,,,,,,,,,0,95,95,14,1,stimuli/objects/puttyknife.jpg,left,old,15,,,,,,,,,,,,,,,
,,,,,,,,21,2021-11-11_15h51.30.943,premceCat2_ses-02_part-02_label-phase2,2020.2.10,Win32,60,,,,,right,1.3703,4,0.6043,0,96,96,18,1,stimuli/objects/cashregister01.jpg,right,new,19,,,,,,,,,,,,,,,
,,,,,,,,21,2021-11-11_15h51.30.943,premceCat2_ses-02_part-02_label-phase2,2020.2.10,Win32,60,,,,,left,1.6135,4,1.5604,,,,,,,,,,right,1.1893,0,0,0,0,1,,,,,,,,
,,,,,,,,21,2021-11-11_15h51.30.943,premceCat2_ses-02_part-02_label-phase2,2020.2.10,Win32,60,,,,,,,,,0,97,97,123,1,stimuli/objects/thermos.jpg,left,old,124,,,,,,,,,,,,,,,
,,,,,,,,21,2021-11-11_15h51.30.943,premceCat2_ses-02_part-02_label-phase2,2020.2.10,Win32,60,,,,,left,1.1453,4,0.4708,,,,,,,,,,right,1.7027,0,0,0,0,1,,,,,,,,
,,,,,,,,21,2021-11-11_15h51.30.943,premceCat2_ses-02_part-02_label-phase2,2020.2.10,Win32,60,,,,,,,,,0,98,98,103,1,stimuli/objects/cork02.jpg,left,old,104,,,,,,,,,,,,,,,
,,,,,,,,21,2021-11-11_15h51.30.943,premceCat2_ses-02_part-02_label-phase2,2020.2.10,Win32,60,,,,,right,1.3885,4,1.2292,0,99,99,83,1,stimuli/objects/kitchenscale01a.jpg,right,new,84,,,,,,,,,,,,,,,
,,,,,,,,21,2021-11-11_15h51.30.943,premceCat2_ses-02_part-02_label-phase2,2020.2.10,Win32,60,,,,,right,1.0294,4,0.7357,0,100,100,9,1,stimuli/objects/measuringtape01.jpg,right,new,10,,,,,,,,,,,,,,,
,,,,,,,,21,2021-11-11_15h51.30.943,premceCat2_ses-02_part-02_label-phase2,2020.2.10,Win32,60,,,,,right,1.5377,4,0.4534,0,101,101,12,1,stimuli/objects/garlicpress02a.jpg,right,new,13,,,,,,,,,,,,,,,
,,,,,,,,21,2021-11-11_15h51.30.943,premceCat2_ses-02_part-02_label-phase2,2020.2.10,Win32,60,,,,,right,1.915,4,1.1426,0,102,102,33,1,stimuli/objects/microwave.jpg,right,new,34,,,,,,,,,,,,,,,
,,,,,,,,21,2021-11-11_15h51.30.943,premceCat2_ses-02_part-02_label-phase2,2020.2.10,Win32,60,,,,,left,1.8787,3,0.8371,,,,,,,,,,left,0.9912,0,0,0,0,1,,,,,,,,
,,,,,,,,21,2021-11-11_15h51.30.943,premceCat2_ses-02_part-02_label-phase2,2020.2.10,Win32,60,,,,,,,,,0,103,103,113,1,stimuli/objects/powercable.jpg,right,new,114,,,,,,,,,,,,,,,
,,,,,,,,21,2021-11-11_15h51.30.943,premceCat2_ses-02_part-02_label-phase2,2020.2.10,Win32,60,,,,,left,0.9813,4,0.3949,,,,,,,,,,left,1.5402,0,0,0,0,1,,,,,,,,
,,,,,,,,21,2021-11-11_15h51.30.943,premceCat2_ses-02_part-02_label-phase2,2020.2.10,Win32,60,,,,,,,,,0,104,104,105,1,stimuli/objects/lightbulb01.jpg,left,old,106,,,,,,,,,,,,,,,
,,,,,,,,21,2021-11-11_15h51.30.943,premceCat2_ses-02_part-02_label-phase2,2020.2.10,Win32,60,,,,,right,2.445,2,2.1694,0,105,105,71,1,stimuli/objects/faxmachine.jpg,right,new,72,,,,,,,,,,,,,,,
,,,,,,,,21,2021-11-11_15h51.30.943,premceCat2_ses-02_part-02_label-phase2,2020.2.10,Win32,60,,,,,right,0.9487,4,0.9265,0,106,106,136,1,stimuli/objects/battery02b.jpg,right,new,137,,,,,,,,,,,,,,,
,,,,,,,,21,2021-11-11_15h51.30.943,premceCat2_ses-02_part-02_label-phase2,2020.2.10,Win32,60,,,,,left,0.9943,4,0.3985,,,,,,,,,,left,8.512,0,0,0,0,1,,,,,,,,
,,,,,,,,21,2021-11-11_15h51.30.943,premceCat2_ses-02_part-02_label-phase2,2020.2.10,Win32,60,,,,,,,,,0,107,107,3,1,stimuli/objects/shotglass.jpg,left,old,4,,,,,,,,,,,,,,,
,,,,,,,,21,2021-11-11_15h51.30.943,premceCat2_ses-02_part-02_label-phase2,2020.2.10,Win32,60,,,,,left,1.2314,4,0.4369,,,,,,,,,,left,0.4089,0,0,0,0,1,,,,,,,,
,,,,,,,,21,2021-11-11_15h51.30.943,premceCat2_ses-02_part-02_label-phase2,2020.2.10,Win32,60,,,,,,,,,0,108,108,62,1,stimuli/objects/potatomasher03b.jpg,left,old,63,,,,,,,,,,,,,,,
,,,,,,,,21,2021-11-11_15h51.30.943,premceCat2_ses-02_part-02_label-phase2,2020.2.10,Win32,60,,,,,left,1.0816,4,0.455,,,,,,,,,,right,0.7599,0,0,0,0,1,,,,,,,,
,,,,,,,,21,2021-11-11_15h51.30.943,premceCat2_ses-02_part-02_label-phase2,2020.2.10,Win32,60,,,,,,,,,0,109,109,49,1,stimuli/objects/exercisebike.jpg,left,old,50,,,,,,,,,,,,,,,
,,,,,,,,21,2021-11-11_15h51.30.943,premceCat2_ses-02_part-02_label-phase2,2020.2.10,Win32,60,,,,,right,1.4796,4,0.422,0,110,110,90,1,stimuli/objects/carlighter02.jpg,right,new,91,,,,,,,,,,,,,,,
,,,,,,,,21,2021-11-11_15h51.30.943,premceCat2_ses-02_part-02_label-phase2,2020.2.10,Win32,60,,,,,right,1.0556,4,0.371,0,111,111,38,1,stimuli/objects/soundmixer.jpg,right,new,39,,,,,,,,,,,,,,,
,,,,,,,,21,2021-11-11_15h51.30.943,premceCat2_ses-02_part-02_label-phase2,2020.2.10,Win32,60,,,,,left,1.1474,4,0.4767,,,,,,,,,,right,0.3459,0,0,0,0,1,,,,,,,,
,,,,,,,,21,2021-11-11_15h51.30.943,premceCat2_ses-02_part-02_label-phase2,2020.2.10,Win32,60,,,,,,,,,0,112,112,99,1,stimuli/objects/paintroller01.jpg,left,old,100,,,,,,,,,,,,,,,
,,,,,,,,21,2021-11-11_15h51.30.943,premceCat2_ses-02_part-02_label-phase2,2020.2.10,Win32,60,,,,,right,1.4862,4,1.2554,0,113,113,75,1,stimuli/objects/stepladder.jpg,right,new,76,,,,,,,,,,,,,,,
,,,,,,,,21,2021-11-11_15h51.30.943,premceCat2_ses-02_part-02_label-phase2,2020.2.10,Win32,60,,,,,left,1.4727,4,0.6036,,,,,,,,,,right,1.9882,0,0,0,0,1,,,,,,,,
,,,,,,,,21,2021-11-11_15h51.30.943,premceCat2_ses-02_part-02_label-phase2,2020.2.10,Win32,60,,,,,,,,,0,114,114,84,1,stimuli/objects/sportbag.jpg,left,old,85,,,,,,,,,,,,,,,
,,,,,,,,21,2021-11-11_15h51.30.943,premceCat2_ses-02_part-02_label-phase2,2020.2.10,Win32,60,,,,,right,1.2129,4,0.8764,0,115,115,77,1,stimuli/objects/satellitedish01.jpg,left,old,78,,,,,,,,,,,,,,,
,,,,,,,,21,2021-11-11_15h51.30.943,premceCat2_ses-02_part-02_label-phase2,2020.2.10,Win32,60,,,,,left,0.8492,4,0.5725,,,,,,,,,,left,1.6056,0,0,0,0,1,,,,,,,,
,,,,,,,,21,2021-11-11_15h51.30.943,premceCat2_ses-02_part-02_label-phase2,2020.2.10,Win32,60,,,,,,,,,0,116,116,69,1,stimuli/objects/filmnegative.jpg,left,old,70,,,,,,,,,,,,,,,
,,,,,,,,21,2021-11-11_15h51.30.943,premceCat2_ses-02_part-02_label-phase2,2020.2.10,Win32,60,,,,,left,1.0507,4,0.3539,,,,,,,,,,left,1.3765,0,0,0,0,1,,,,,,,,
,,,,,,,,21,2021-11-11_15h51.30.943,premceCat2_ses-02_part-02_label-phase2,2020.2.10,Win32,60,,,,,,,,,0,117,117,78,1,stimuli/objects/butterknife.jpg,left,old,79,,,,,,,,,,,,,,,
,,,,,,,,21,2021-11-11_15h51.30.943,premceCat2_ses-02_part-02_label-phase2,2020.2.10,Win32,60,,,,,right,2.8464,1,0.7553,0,118,118,139,1,stimuli/objects/frisbee.jpg,right,new,140,,,,,,,,,,,,,,,
,,,,,,,,21,2021-11-11_15h51.30.943,premceCat2_ses-02_part-02_label-phase2,2020.2.10,Win32,60,,,,,left,0.8124,4,0.3452,,,,,,,,,,right,0.3863,0,0,0,0,1,,,,,,,,
,,,,,,,,21,2021-11-11_15h51.30.943,premceCat2_ses-02_part-02_label-phase2,2020.2.10,Win32,60,,,,,,,,,0,119,119,48,1,stimuli/objects/bottlecap.jpg,left,old,49,,,,,,,,,,,,,,,
,,,,,,,,21,2021-11-11_15h51.30.943,premceCat2_ses-02_part-02_label-phase2,2020.2.10,Win32,60,,,,,left,1.1174,4,0.3374,,,,,,,,,,left,0.6116,0,0,0,0,1,,,,,,,,
,,,,,,,,21,2021-11-11_15h51.30.943,premceCat2_ses-02_part-02_label-phase2,2020.2.10,Win32,60,,,,,,,,,0,120,120,5,1,stimuli/objects/expansioncard.jpg,left,old,6,,,,,,,,,,,,,,,
,,,,,,,,21,2021-11-11_15h51.30.943,premceCat2_ses-02_part-02_label-phase2,2020.2.10,Win32,60,,,,,right,2.0807,3,1.9022,0,121,121,46,1,stimuli/objects/walkman.jpg,right,new,47,,,,,,,,,,,,,,,
,,,,,,,,21,2021-11-11_15h51.30.943,premceCat2_ses-02_part-02_label-phase2,2020.2.10,Win32,60,,,,,right,0.8677,4,0.3635,0,122,122,93,1,stimuli/objects/icepack.jpg,right,new,94,,,,,,,,,,,,,,,
,,,,,,,,21,2021-11-11_15h51.30.943,premceCat2_ses-02_part-02_label-phase2,2020.2.10,Win32,60,,,,,right,1.497,4,0.5773,0,123,123,26,1,stimuli/objects/boogieboard.jpg,right,new,27,,,,,,,,,,,,,,,
,,,,,,,,21,2021-11-11_15h51.30.943,premceCat2_ses-02_part-02_label-phase2,2020.2.10,Win32,60,,,,,right,1.3175,4,0.6189,0,124,124,2,1,stimuli/objects/ipod.jpg,left,old,3,,,,,,,,,,,,,,,
,,,,,,,,21,2021-11-11_15h51.30.943,premceCat2_ses-02_part-02_label-phase2,2020.2.10,Win32,60,,,,,right,0.8828,4,0.6703,0,125,125,117,1,stimuli/objects/videotape01b.jpg,right,new,118,,,,,,,,,,,,,,,
,,,,,,,,21,2021-11-11_15h51.30.943,premceCat2_ses-02_part-02_label-phase2,2020.2.10,Win32,60,,,,,right,1.1067,4,0.3628,0,126,126,125,1,stimuli/objects/shoulderpad.jpg,right,new,126,,,,,,,,,,,,,,,
,,,,,,,,21,2021-11-11_15h51.30.943,premceCat2_ses-02_part-02_label-phase2,2020.2.10,Win32,60,,,,,left,1.0626,4,0.4256,,,,,,,,,,right,0.86,0,0,0,0,1,,,,,,,,
,,,,,,,,21,2021-11-11_15h51.30.943,premceCat2_ses-02_part-02_label-phase2,2020.2.10,Win32,60,,,,,,,,,0,127,127,129,1,stimuli/objects/peeler01.jpg,left,old,130,,,,,,,,,,,,,,,
,,,,,,,,21,2021-11-11_15h51.30.943,premceCat2_ses-02_part-02_label-phase2,2020.2.10,Win32,60,,,,,left,0.9819,4,0.353,,,,,,,,,,right,0.6024,0,0,0,0,1,,,,,,,,
,,,,,,,,21,2021-11-11_15h51.30.943,premceCat2_ses-02_part-02_label-phase2,2020.2.10,Win32,60,,,,,,,,,0,128,128,6,1,stimuli/objects/pitcher02b.jpg,left,old,7,,,,,,,,,,,,,,,
,,,,,,,,21,2021-11-11_15h51.30.943,premceCat2_ses-02_part-02_label-phase2,2020.2.10,Win32,60,,,,,right,1.3192,3,2.7545,0,129,129,53,1,stimuli/objects/binoculars01b.jpg,right,new,54,,,,,,,,,,,,,,,
,,,,,,,,21,2021-11-11_15h51.30.943,premceCat2_ses-02_part-02_label-phase2,2020.2.10,Win32,60,,,,,left,0.7968,4,0.3308,,,,,,,,,,left,1.6846,0,0,0,0,1,,,,,,,,
,,,,,,,,21,2021-11-11_15h51.30.943,premceCat2_ses-02_part-02_label-phase2,2020.2.10,Win32,60,,,,,,,,,0,130,130,56,1,stimuli/objects/funnel.jpg,left,old,57,,,,,,,,,,,,,,,
,,,,,,,,21,2021-11-11_15h51.30.943,premceCat2_ses-02_part-02_label-phase2,2020.2.10,Win32,60,,,,,right,2.2706,4,0.5211,0,131,131,86,1,stimuli/objects/toasteroven.jpg,right,new,87,,,,,,,,,,,,,,,
,,,,,,,,21,2021-11-11_15h51.30.943,premceCat2_ses-02_part-02_label-phase2,2020.2.10,Win32,60,,,,,left,1.4824,4,0.3816,,,,,,,,,,left,0.5788,0,0,0,0,1,,,,,,,,
,,,,,,,,21,2021-11-11_15h51.30.943,premceCat2_ses-02_part-02_label-phase2,2020.2.10,Win32,60,,,,,,,,,0,132,132,0,1,stimuli/objects/electricoutlet.jpg,left,old,1,,,,,,,,,,,,,,,
,,,,,,,,21,2021-11-11_15h51.30.943,premceCat2_ses-02_part-02_label-phase2,2020.2.10,Win32,60,,,,,right,1.0732,4,0.6861,0,133,133,111,1,stimuli/objects/speaker04.jpg,right,new,112,,,,,,,,,,,,,,,
,,,,,,,,21,2021-11-11_15h51.30.943,premceCat2_ses-02_part-02_label-phase2,2020.2.10,Win32,60,,,,,left,0.9315,4,0.3871,,,,,,,,,,left,1.001,0,0,0,0,1,,,,,,,,
,,,,,,,,21,2021-11-11_15h51.30.943,premceCat2_ses-02_part-02_label-phase2,2020.2.10,Win32,60,,,,,,,,,0,134,134,118,1,stimuli/objects/adjustablewrench01b.jpg,left,old,119,,,,,,,,,,,,,,,
,,,,,,,,21,2021-11-11_15h51.30.943,premceCat2_ses-02_part-02_label-phase2,2020.2.10,Win32,60,,,,,right,1.1481,1,1.4979,0,135,135,4,1,stimuli/objects/microphone01.jpg,right,new,5,,,,,,,,,,,,,,,
,,,,,,,,21,2021-11-11_15h51.30.943,premceCat2_ses-02_part-02_label-phase2,2020.2.10,Win32,60,,,,,left,0.9203,4,0.5303,,,,,,,,,,right,1.0451,0,0,0,0,1,,,,,,,,
,,,,,,,,21,2021-11-11_15h51.30.943,premceCat2_ses-02_part-02_label-phase2,2020.2.10,Win32,60,,,,,,,,,0,136,136,70,1,stimuli/objects/bowl02a.jpg,left,old,71,,,,,,,,,,,,,,,
,,,,,,,,21,2021-11-11_15h51.30.943,premceCat2_ses-02_part-02_label-phase2,2020.2.10,Win32,60,,,,,right,3.9615,2,0.5916,0,137,137,13,1,stimuli/objects/bastingbrush.jpg,right,new,14,,,,,,,,,,,,,,,
,,,,,,,,21,2021-11-11_15h51.30.943,premceCat2_ses-02_part-02_label-phase2,2020.2.10,Win32,60,,,,,left,0.9293,3,0.637,,,,,,,,,,left,1.1573,0,0,0,0,1,,,,,,,,
,,,,,,,,21,2021-11-11_15h51.30.943,premceCat2_ses-02_part-02_label-phase2,2020.2.10,Win32,60,,,,,,,,,0,138,138,87,1,stimuli/objects/fanblades.jpg,left,old,88,,,,,,,,,,,,,,,
,,,,,,,,21,2021-11-11_15h51.30.943,premceCat2_ses-02_part-02_label-phase2,2020.2.10,Win32,60,,,,,right,1.64,4,1.3759,0,139,139,80,1,stimuli/objects/snowman.jpg,right,new,81,,,,,,,,,,,,,,,
,,,,,,,,21,2021-11-11_15h51.30.943,premceCat2_ses-02_part-02_label-phase2,2020.2.10,Win32,60,,,,,right,1.1014,4,0.6867,0,140,140,102,1,stimuli/objects/backpack01a.jpg,left,old,103,,,,,,,,,,,,,,,
,,,,,,,,21,2021-11-11_15h51.30.943,premceCat2_ses-02_part-02_label-phase2,2020.2.10,Win32,60,,,,,right,0.9656,4,0.3864,0,141,141,81,1,stimuli/objects/avcable.jpg,right,new,82,,,,,,,,,,,,,,,
,,,,,,,,21,2021-11-11_15h51.30.943,premceCat2_ses-02_part-02_label-phase2,2020.2.10,Win32,60,,,,,right,1.291,4,0.4265,0,142,142,92,1,stimuli/objects/carjack.jpg,right,new,93,,,,,,,,,,,,,,,
,,,,,,,,21,2021-11-11_15h51.30.943,premceCat2_ses-02_part-02_label-phase2,2020.2.10,Win32,60,,,,,,,,,,,,,,,,,,,,,,,,,space,12.2218,0,0,0,0,1,condition_files/ImagesforRecog2_1.csv
,,,,,,,,21,2021-11-11_15h51.30.943,premceCat2_ses-02_part-02_label-phase2,2020.2.10,Win32,60,,,,,left,1.6149,4,0.9303,,,,,,,,,,right,1.4673,0,0,0,0,1,,,,,,,,
,,,,,,,,21,2021-11-11_15h51.30.943,premceCat2_ses-02_part-02_label-phase2,2020.2.10,Win32,60,,,,,,,,,0,0,0,90,1,stimuli/objects/toyhockeystick01.jpg,left,old,234,,,,,,,,,,,,,,,
,,,,,,,,21,2021-11-11_15h51.30.943,premceCat2_ses-02_part-02_label-phase2,2020.2.10,Win32,60,,,,,right,1.099,4,0.4055,0,1,1,102,1,stimuli/objects/beachumbrella01.jpg,right,new,246,,,,,,,,,,,,,,,
,,,,,,,,21,2021-11-11_15h51.30.943,premceCat2_ses-02_part-02_label-phase2,2020.2.10,Win32,60,,,,,left,0.823,4,0.4868,,,,,,,,,,right,1.0411,0,0,0,0,1,,,,,,,,
,,,,,,,,21,2021-11-11_15h51.30.943,premceCat2_ses-02_part-02_label-phase2,2020.2.10,Win32,60,,,,,,,,,0,2,2,58,1,stimuli/objects/swimgoggles.jpg,left,old,202,,,,,,,,,,,,,,,
,,,,,,,,21,2021-11-11_15h51.30.943,premceCat2_ses-02_part-02_label-phase2,2020.2.10,Win32,60,,,,,right,1.4307,4,0.375,0,3,3,111,1,stimuli/objects/diaperbag.jpg,right,new,255,,,,,,,,,,,,,,,
,,,,,,,,21,2021-11-11_15h51.30.943,premceCat2_ses-02_part-02_label-phase2,2020.2.10,Win32,60,,,,,left,5.4302,2,2.7185,,,,,,,,,,left,2.117,0,0,0,0,1,,,,,,,,
,,,,,,,,21,2021-11-11_15h51.30.943,premceCat2_ses-02_part-02_label-phase2,2020.2.10,Win32,60,,,,,,,,,0,4,4,14,1,stimuli/objects/boatmotor.jpg,left,old,158,,,,,,,,,,,,,,,
,,,,,,,,21,2021-11-11_15h51.30.943,premceCat2_ses-02_part-02_label-phase2,2020.2.10,Win32,60,,,,,left,1.1349,4,0.4283,,,,,,,,,,right,0.2889,0,0,0,0,1,,,,,,,,
,,,,,,,,21,2021-11-11_15h51.30.943,premceCat2_ses-02_part-02_label-phase2,2020.2.10,Win32,60,,,,,,,,,0,5,5,63,1,stimuli/objects/woodenspoon.jpg,left,old,207,,,,,,,,,,,,,,,
,,,,,,,,21,2021-11-11_15h51.30.943,premceCat2_ses-02_part-02_label-phase2,2020.2.10,Win32,60,,,,,right,2.75,1,0.3577,0,6,6,36,1,stimuli/objects/loppingshears.jpg,right,new,180,,,,,,,,,,,,,,,
,,,,,,,,21,2021-11-11_15h51.30.943,premceCat2_ses-02_part-02_label-phase2,2020.2.10,Win32,60,,,,,left,1.5744,4,0.5898,,,,,,,,,,left,1.2855,0,0,0,0,1,,,,,,,,
,,,,,,,,21,2021-11-11_15h51.30.943,premceCat2_ses-02_part-02_label-phase2,2020.2.10,Win32,60,,,,,,,,,0,7,7,53,1,stimuli/objects/tape02a.jpg,left,old,197,,,,,,,,,,,,,,,
,,,,,,,,21,2021-11-11_15h51.30.943,premceCat2_ses-02_part-02_label-phase2,2020.2.10,Win32,60,,,,,right,4.7812,1,0.8063,0,8,8,124,1,stimuli/objects/basketball01.jpg,right,new,268,,,,,,,,,,,,,,,
,,,,,,,,21,2021-11-11_15h51.30.943,premceCat2_ses-02_part-02_label-phase2,2020.2.10,Win32,60,,,,,right,0.9706,4,0.3379,0,9,9,26,1,stimuli/objects/flashlight02b.jpg,right,new,170,,,,,,,,,,,,,,,
,,,,,,,,21,2021-11-11_15h51.30.943,premceCat2_ses-02_part-02_label-phase2,2020.2.10,Win32,60,,,,,right,0.988,1,2.7409,0,10,10,43,1,stimuli/objects/bowrake.jpg,right,new,187,,,,,,,,,,,,,,,
,,,,,,,,21,2021-11-11_15h51.30.943,premceCat2_ses-02_part-02_label-phase2,2020.2.10,Win32,60,,,,,left,1.392,3,2.1469,,,,,,,,,,left,1.4867,0,0,0,0,1,,,,,,,,
,,,,,,,,21,2021-11-11_15h51.30.943,premceCat2_ses-02_part-02_label-phase2,2020.2.10,Win32,60,,,,,,,,,0,11,11,32,1,stimuli/objects/pastaspoon.jpg,left,old,176,,,,,,,,,,,,,,,
,,,,,,,,21,2021-11-11_15h51.30.943,premceCat2_ses-02_part-02_label-phase2,2020.2.10,Win32,60,,,,,left,4.5469,2,1.3569,,,,,,,,,,right,1.2524,0,0,0,0,1,,,,,,,,
,,,,,,,,21,2021-11-11_15h51.30.943,premceCat2_ses-02_part-02_label-phase2,2020.2.10,Win32,60,,,,,,,,,0,12,12,122,1,stimuli/objects/hockeystick.jpg,right,new,266,,,,,,,,,,,,,,,
,,,,,,,,21,2021-11-11_15h51.30.943,premceCat2_ses-02_part-02_label-phase2,2020.2.10,Win32,60,,,,,right,1.298,4,0.5037,0,13,13,2,1,stimuli/objects/wetfloorsign.jpg,right,new,146,,,,,,,,,,,,,,,
,,,,,,,,21,2021-11-11_15h51.30.943,premceCat2_ses-02_part-02_label-phase2,2020.2.10,Win32,60,,,,,right,3.6694,1,1.5961,0,14,14,75,1,stimuli/objects/hammer01.jpg,left,old,219,,,,,,,,,,,,,,,
,,,,,,,,21,2021-11-11_15h51.30.943,premceCat2_ses-02_part-02_label-phase2,2020.2.10,Win32,60,,,,,right,1.0175,4,0.2873,0,15,15,101,1,stimuli/objects/lifejacket.jpg,right,new,245,,,,,,,,,,,,,,,
,,,,,,,,21,2021-11-11_15h51.30.943,premceCat2_ses-02_part-02_label-phase2,2020.2.10,Win32,60,,,,,left,1.3645,3,0.8558,,,,,,,,,,right,1.8186,0,0,0,0,1,,,,,,,,
,,,,,,,,21,2021-11-11_15h51.30.943,premceCat2_ses-02_part-02_label-phase2,2020.2.10,Win32,60,,,,,,,,,0,16,16,86,1,stimuli/objects/trampoline.jpg,right,new,230,,,,,,,,,,,,,,,
,,,,,,,,21,2021-11-11_15h51.30.943,premceCat2_ses-02_part-02_label-phase2,2020.2.10,Win32,60,,,,,right,3.6949,1,0.3881,0,17,17,132,1,stimuli/objects/wirestripper.jpg,right,new,276,,,,,,,,,,,,,,,
,,,,,,,,21,2021-11-11_15h51.30.943,premceCat2_ses-02_part-02_label-phase2,2020.2.10,Win32,60,,,,,left,3.0011,3,1.6424,,,,,,,,,,right,4.2048,0,0,0,0,1,,,,,,,,
,,,,,,,,21,2021-11-11_15h51.30.943,premceCat2_ses-02_part-02_label-phase2,2020.2.10,Win32,60,,,,,,,,,0,18,18,22,1,stimuli/objects/hoe.jpg,left,old,166,,,,,,,,,,,,,,,
,,,,,,,,21,2021-11-11_15h51.30.943,premceCat2_ses-02_part-02_label-phase2,2020.2.10,Win32,60,,,,,right,1.0316,4,0.4036,0,19,19,103,1,stimuli/objects/swissarmyknife01a.jpg,right,new,247,,,,,,,,,,,,,,,
,,,,,,,,21,2021-11-11_15h51.30.943,premceCat2_ses-02_part-02_label-phase2,2020.2.10,Win32,60,,,,,left,1.2638,3,1.0423,,,,,,,,,,left,0.8865,0,0,0,0,1,,,,,,,,
,,,,,,,,21,2021-11-11_15h51.30.943,premceCat2_ses-02_part-02_label-phase2,2020.2.10,Win32,60,,,,,,,,,0,20,20,79,1,stimuli/objects/bikewheel.jpg,left,old,223,,,,,,,,,,,,,,,
,,,,,,,,21,2021-11-11_15h51.30.943,premceCat2_ses-02_part-02_label-phase2,2020.2.10,Win32,60,,,,,right,1.2821,4,0.4568,0,21,21,140,1,stimuli/objects/wineglass01.jpg,right,new,284,,,,,,,,,,,,,,,
,,,,,,,,21,2021-11-11_15h51.30.943,premceCat2_ses-02_part-02_label-phase2,2020.2.10,Win32,60,,,,,left,1.9556,4,0.6701,,,,,,,,,,right,0.6526,0,0,0,0,1,,,,,,,,
,,,,,,,,21,2021-11-11_15h51.30.943,premceCat2_ses-02_part-02_label-phase2,2020.2.10,Win32,60,,,,,,,,,0,22,22,72,1,stimuli/objects/axe01.jpg,left,old,216,,,,,,,,,,,,,,,
,,,,,,,,21,2021-11-11_15h51.30.943,premceCat2_ses-02_part-02_label-phase2,2020.2.10,Win32,60,,,,,right,2.0153,3,0.655,0,23,23,96,1,stimuli/objects/mallet01b.jpg,left,old,240,,,,,,,,,,,,,,,
,,,,,,,,21,2021-11-11_15h51.30.943,premceCat2_ses-02_part-02_label-phase2,2020.2.10,Win32,60,,,,,left,1.0436,4,0.3044,,,,,,,,,,left,0.4755,0,0,0,0,1,,,,,,,,
,,,,,,,,21,2021-11-11_15h51.30.943,premceCat2_ses-02_part-02_label-phase2,2020.2.10,Win32,60,,,,,,,,,0,24,24,77,1,stimuli/objects/corkscrew03a.jpg,left,old,221,,,,,,,,,,,,,,,
,,,,,,,,21,2021-11-11_15h51.30.943,premceCat2_ses-02_part-02_label-phase2,2020.2.10,Win32,60,,,,,left,1.2545,4,0.3414,,,,,,,,,,right,0.9676,0,0,0,0,1,,,,,,,,
,,,,,,,,21,2021-11-11_15h51.30.943,premceCat2_ses-02_part-02_label-phase2,2020.2.10,Win32,60,,,,,,,,,0,25,25,93,1,stimuli/objects/rope03.jpg,left,old,237,,,,,,,,,,,,,,,
,,,,,,,,21,2021-11-11_15h51.30.943,premceCat2_ses-02_part-02_label-phase2,2020.2.10,Win32,60,,,,,right,0.9302,4,0.3349,0,26,26,15,1,stimuli/objects/computermouse06.jpg,right,new,159,,,,,,,,,,,,,,,
,,,,,,,,21,2021-11-11_15h51.30.943,premceCat2_ses-02_part-02_label-phase2,2020.2.10,Win32,60,,,,,right,2.6215,3,0.8301,0,27,27,81,1,stimuli/objects/grill.jpg,right,new,225,,,,,,,,,,,,,,,
,,,,,,,,21,2021-11-11_15h51.30.943,premceCat2_ses-02_part-02_label-phase2,2020.2.10,Win32,60,,,,,left,1.3326,4,1.8186,,,,,,,,,,left,2.1698,0,0,0,0,1,,,,,,,,
,,,,,,,,21,2021-11-11_15h51.30.943,premceCat2_ses-02_part-02_label-phase2,2020.2.10,Win32,60,,,,,,,,,0,28,28,134,1,stimuli/objects/chandelier.jpg,left,old,278,,,,,,,,,,,,,,,
,,,,,,,,21,2021-11-11_15h51.30.943,premceCat2_ses-02_part-02_label-phase2,2020.2.10,Win32,60,,,,,right,0.914,4,1.3197,0,29,29,41,1,stimuli/objects/flask.jpg,right,new,185,,,,,,,,,,,,,,,
,,,,,,,,21,2021-11-11_15h51.30.943,premceCat2_ses-02_part-02_label-phase2,2020.2.10,Win32,60,,,,,right,1.5645,4,0.2805,0,30,30,12,1,stimuli/objects/fanheater.jpg,right,new,156,,,,,,,,,,,,,,,
,,,,,,,,21,2021-11-11_15h51.30.943,premceCat2_ses-02_part-02_label-phase2,2020.2.10,Win32,60,,,,,right,1.2004,4,0.4614,0,31,31,116,1,stimuli/objects/lockingplier.jpg,right,new,260,,,,,,,,,,,,,,,
,,,,,,,,21,2021-11-11_15h51.30.943,premceCat2_ses-02_part-02_label-phase2,2020.2.10,Win32,60,,,,,right,0.8482,3,2.1259,0,32,32,141,1,stimuli/objects/spatula04.jpg,left,old,285,,,,,,,,,,,,,,,
,,,,,,,,21,2021-11-11_15h51.30.943,premceCat2_ses-02_part-02_label-phase2,2020.2.10,Win32,60,,,,,right,1.4042,2,0.7947,0,33,33,24,1,stimuli/objects/monitor.jpg,right,new,168,,,,,,,,,,,,,,,
,,,,,,,,21,2021-11-11_15h51.30.943,premceCat2_ses-02_part-02_label-phase2,2020.2.10,Win32,60,,,,,left,2.4634,3,1.873,,,,,,,,,,left,1.4343,0,0,0,0,1,,,,,,,,
,,,,,,,,21,2021-11-11_15h51.30.943,premceCat2_ses-02_part-02_label-phase2,2020.2.10,Win32,60,,,,,,,,,0,34,34,125,1,stimuli/objects/pliers02b.jpg,left,old,269,,,,,,,,,,,,,,,
,,,,,,,,21,2021-11-11_15h51.30.943,premceCat2_ses-02_part-02_label-phase2,2020.2.10,Win32,60,,,,,right,1.419,4,0.9431,0,35,35,61,1,stimuli/objects/wateringcan.jpg,left,old,205,,,,,,,,,,,,,,,
,,,,,,,,21,2021-11-11_15h51.30.943,premceCat2_ses-02_part-02_label-phase2,2020.2.10,Win32,60,,,,,left,1.2616,3,1.4452,,,,,,,,,,right,1.4567,0,0,0,0,1,,,,,,,,
,,,,,,,,21,2021-11-11_15h51.30.943,premceCat2_ses-02_part-02_label-phase2,2020.2.10,Win32,60,,,,,,,,,0,36,36,7,1,stimuli/objects/dishrack.jpg,left,old,151,,,,,,,,,,,,,,,
,,,,,,,,21,2021-11-11_15h51.30.943,premceCat2_ses-02_part-02_label-phase2,2020.2.10,Win32,60,,,,,right,2.8242,3,8.7164,0,37,37,59,1,stimuli/objects/speedball.jpg,right,new,203,,,,,,,,,,,,,,,
,,,,,,,,21,2021-11-11_15h51.30.943,premceCat2_ses-02_part-02_label-phase2,2020.2.10,Win32,60,,,,,right,1.2012,3,0.4357,0,38,38,44,1,stimuli/objects/toaster01.jpg,right,new,188,,,,,,,,,,,,,,,
,,,,,,,,21,2021-11-11_15h51.30.943,premceCat2_ses-02_part-02_label-phase2,2020.2.10,Win32,60,,,,,left,1.3787,4,0.3797,,,,,,,,,,right,1.4681,0,0,0,0,1,,,,,,,,
,,,,,,,,21,2021-11-11_15h51.30.943,premceCat2_ses-02_part-02_label-phase2,2020.2.10,Win32,60,,,,,,,,,0,39,39,73,1,stimuli/objects/propanetank01.jpg,left,old,217,,,,,,,,,,,,,,,
,,,,,,,,21,2021-11-11_15h51.30.943,premceCat2_ses-02_part-02_label-phase2,2020.2.10,Win32,60,,,,,right,4.0818,1,0.6192,0,40,40,91,1,stimuli/objects/cuttingpliers02.jpg,right,new,235,,,,,,,,,,,,,,,
,,,,,,,,21,2021-11-11_15h51.30.943,premceCat2_ses-02_part-02_label-phase2,2020.2.10,Win32,60,,,,,left,1.8334,2,1.522,,,,,,,,,,right,1.8852,0,0,0,0,1,,,,,,,,
,,,,,,,,21,2021-11-11_15h51.30.943,premceCat2_ses-02_part-02_label-phase2,2020.2.10,Win32,60,,,,,,,,,0,41,41,83,1,stimuli/objects/icecubetray01a.jpg,right,new,227,,,,,,,,,,,,,,,
,,,,,,,,21,2021-11-11_15h51.30.943,premceCat2_ses-02_part-02_label-phase2,2020.2.10,Win32,60,,,,,right,1.9964,2,0.2916,0,42,42,114,1,stimuli/objects/drinkshaker.jpg,right,new,258,,,,,,,,,,,,,,,
,,,,,,,,21,2021-11-11_15h51.30.943,premceCat2_ses-02_part-02_label-phase2,2020.2.10,Win32,60,,,,,right,3.7511,1,0.5485,0,43,43,118,1,stimuli/objects/gardenshears01a.jpg,left,old,262,,,,,,,,,,,,,,,
,,,,,,,,21,2021-11-11_15h51.30.943,premceCat2_ses-02_part-02_label-phase2,2020.2.10,Win32,60,,,,,left,3.3488,1,0.2948,,,,,,,,,,left,1.2177,0,0,0,0,1,,,,,,,,
,,,,,,,,21,2021-11-11_15h51.30.943,premceCat2_ses-02_part-02_label-phase2,2020.2.10,Win32,60,,,,,,,,,0,44,44,97,1,stimuli/objects/coffeepot03a.jpg,left,old,241,,,,,,,,,,,,,,,
,,,,,,,,21,2021-11-11_15h51.30.943,premceCat2_ses-02_part-02_label-phase2,2020.2.10,Win32,60,,,,,left,1.5735,1,0.8451,,,,,,,,,,right,2.4407,0,0,0,0,1,,,,,,,,
,,,,,,,,21,2021-11-11_15h51.30.943,premceCat2_ses-02_part-02_label-phase2,2020.2.10,Win32,60,,,,,,,,,0,45,45,80,1,stimuli/objects/barbecue03.jpg,right,new,224,,,,,,,,,,,,,,,
,,,,,,,,21,2021-11-11_15h51.30.943,premceCat2_ses-02_part-02_label-phase2,2020.2.10,Win32,60,,,,,left,0.9787,4,0.3387,,,,,,,,,,left,2.0846,0,0,0,0,1,,,,,,,,
,,,,,,,,21,2021-11-11_15h51.30.943,premceCat2_ses-02_part-02_label-phase2,2020.2.10,Win32,60,,,,,,,,,0,46,46,117,1,stimuli/objects/podium.jpg,left,old,261,,,,,,,,,,,,,,,
,,,,,,,,21,2021-11-11_15h51.30.943,premceCat2_ses-02_part-02_label-phase2,2020.2.10,Win32,60,,,,,left,1.1745,4,0.7028,,,,,,,,,,left,2.1328,0,0,0,0,1,,,,,,,,
,,,,,,,,21,2021-11-11_15h51.30.943,premceCat2_ses-02_part-02_label-phase2,2020.2.10,Win32,60,,,,,,,,,0,47,47,38,1,stimuli/objects/espressomachine.jpg,left,old,182,,,,,,,,,,,,,,,
,,,,,,,,21,2021-11-11_15h51.30.943,premceCat2_ses-02_part-02_label-phase2,2020.2.10,Win32,60,,,,,right,3.194,3,1.394,0,48,48,98,1,stimuli/objects/cameracase01a.jpg,right,new,242,,,,,,,,,,,,,,,
,,,,,,,,21,2021-11-11_15h51.30.943,premceCat2_ses-02_part-02_label-phase2,2020.2.10,Win32,60,,,,,left,1.4626,4,1.8031,,,,,,,,,,right,1.3872,0,0,0,0,1,,,,,,,,
,,,,,,,,21,2021-11-11_15h51.30.943,premceCat2_ses-02_part-02_label-phase2,2020.2.10,Win32,60,,,,,,,,,0,49,49,45,1,stimuli/objects/ellipticalmachine.jpg,left,old,189,,,,,,,,,,,,,,,
,,,,,,,,21,2021-11-11_15h51.30.943,premceCat2_ses-02_part-02_label-phase2,2020.2.10,Win32,60,,,,,right,2.2148,4,1.0866,0,50,50,69,1,stimuli/objects/straw.jpg,right,new,213,,,,,,,,,,,,,,,
,,,,,,,,21,2021-11-11_15h51.30.943,premceCat2_ses-02_part-02_label-phase2,2020.2.10,Win32,60,,,,,right,1.0407,4,0.4948,0,51,51,82,1,stimuli/objects/shopvac.jpg,right,new,226,,,,,,,,,,,,,,,
,,,,,,,,21,2021-11-11_15h51.30.943,premceCat2_ses-02_part-02_label-phase2,2020.2.10,Win32,60,,,,,left,1.7634,2,1.0682,,,,,,,,,,left,0.855,0,0,0,0,1,,,,,,,,
,,,,,,,,21,2021-11-11_15h51.30.943,premceCat2_ses-02_part-02_label-phase2,2020.2.10,Win32,60,,,,,,,,,0,52,52,105,1,stimuli/objects/gasburner.jpg,left,old,249,,,,,,,,,,,,,,,
,,,,,,,,21,2021-11-11_15h51.30.943,premceCat2_ses-02_part-02_label-phase2,2020.2.10,Win32,60,,,,,right,1.3258,3,0.6032,0,53,53,106,1,stimuli/objects/nintendods.jpg,left,old,250,,,,,,,,,,,,,,,
,,,,,,,,21,2021-11-11_15h51.30.943,premceCat2_ses-02_part-02_label-phase2,2020.2.10,Win32,60,,,,,right,4.7881,3,1.6351,0,54,54,70,1,stimuli/objects/shovel01.jpg,right,new,214,,,,,,,,,,,,,,,
,,,,,,,,21,2021-11-11_15h51.30.943,premceCat2_ses-02_part-02_label-phase2,2020.2.10,Win32,60,,,,,left,1.4519,3,0.3714,,,,,,,,,,right,1.3118,0,0,0,0,1,,,,,,,,
,,,,,,,,21,2021-11-11_15h51.30.943,premceCat2_ses-02_part-02_label-phase2,2020.2.10,Win32,60,,,,,,,,,0,55,55,5,1,stimuli/objects/pickaxe02.jpg,right,new,149,,,,,,,,,,,,,,,
,,,,,,,,21,2021-11-11_15h51.30.943,premceCat2_ses-02_part-02_label-phase2,2020.2.10,Win32,60,,,,,left,1.7713,3,0.3111,,,,,,,,,,left,1.0117,0,0,0,0,1,,,,,,,,
,,,,,,,,21,2021-11-11_15h51.30.943,premceCat2_ses-02_part-02_label-phase2,2020.2.10,Win32,60,,,,,,,,,0,56,56,13,1,stimuli/objects/jumpercables.jpg,left,old,157,,,,,,,,,,,,,,,
,,,,,,,,21,2021-11-11_15h51.30.943,premceCat2_ses-02_part-02_label-phase2,2020.2.10,Win32,60,,,,,left,2.804,1,1.043,,,,,,,,,,right,1.5538,0,0,0,0,1,,,,,,,,
,,,,,,,,21,2021-11-11_15h51.30.943,premceCat2_ses-02_part-02_label-phase2,2020.2.10,Win32,60,,,,,,,,,0,57,57,42,1,stimuli/objects/tennisracket.jpg,right,new,186,,,,,,,,,,,,,,,
,,,,,,,,21,2021-11-11_15h51.30.943,premceCat2_ses-02_part-02_label-phase2,2020.2.10,Win32,60,,,,,right,1.3244,1,0.4405,0,58,58,107,1,stimuli/objects/dolly01.jpg,right,new,251,,,,,,,,,,,,,,,
,,,,,,,,21,2021-11-11_15h51.30.943,premceCat2_ses-02_part-02_label-phase2,2020.2.10,Win32,60,,,,,left,1.3014,2,1.4615,,,,,,,,,,right,1.2671,0,0,0,0,1,,,,,,,,
,,,,,,,,21,2021-11-11_15h51.30.943,premceCat2_ses-02_part-02_label-phase2,2020.2.10,Win32,60,,,,,,,,,0,59,59,57,1,stimuli/objects/soccerball.jpg,left,old,201,,,,,,,,,,,,,,,
,,,,,,,,21,2021-11-11_15h51.30.943,premceCat2_ses-02_part-02_label-phase2,2020.2.10,Win32,60,,,,,right,2.115,1,0.4034,0,60,60,21,1,stimuli/objects/boltcutter.jpg,left,old,165,,,,,,,,,,,,,,,
,,,,,,,,21,2021-11-11_15h51.30.943,premceCat2_ses-02_part-02_label-phase2,2020.2.10,Win32,60,,,,,right,1.1592,1,0.6549,0,61,61,17,1,stimuli/objects/bikelock.jpg,left,old,161,,,,,,,,,,,,,,,
,,,,,,,,21,2021-11-11_15h51.30.943,premceCat2_ses-02_part-02_label-phase2,2020.2.10,Win32,60,,,,,left,1.7164,4,0.7375,,,,,,,,,,right,2.2184,0,0,0,0,1,,,,,,,,
,,,,,,,,21,2021-11-11_15h51.30.943,premceCat2_ses-02_part-02_label-phase2,2020.2.10,Win32,60,,,,,,,,,0,62,62,139,1,stimuli/objects/toothpick02.jpg,left,old,283,,,,,,,,,,,,,,,
,,,,,,,,21,2021-11-11_15h51.30.943,premceCat2_ses-02_part-02_label-phase2,2020.2.10,Win32,60,,,,,left,1.2646,4,0.4371,,,,,,,,,,left,1.0239,0,0,0,0,1,,,,,,,,
,,,,,,,,21,2021-11-11_15h51.30.943,premceCat2_ses-02_part-02_label-phase2,2020.2.10,Win32,60,,,,,,,,,0,63,63,25,1,stimuli/objects/jar02.jpg,left,old,169,,,,,,,,,,,,,,,
,,,,,,,,21,2021-11-11_15h51.30.943,premceCat2_ses-02_part-02_label-phase2,2020.2.10,Win32,60,,,,,right,1.0346,4,0.3414,0,64,64,55,1,stimuli/objects/fonduefork01.jpg,right,new,199,,,,,,,,,,,,,,,
,,,,,,,,21,2021-11-11_15h51.30.943,premceCat2_ses-02_part-02_label-phase2,2020.2.10,Win32,60,,,,,left,2.3548,2,0.4869,,,,,,,,,,right,1.2093,0,0,0,0,1,,,,,,,,
,,,,,,,,21,2021-11-11_15h51.30.943,premceCat2_ses-02_part-02_label-phase2,2020.2.10,Win32,60,,,,,,,,,0,65,65,68,1,stimuli/objects/ladle02a.jpg,right,new,212,,,,,,,,,,,,,,,
,,,,,,,,21,2021-11-11_15h51.30.943,premceCat2_ses-02_part-02_label-phase2,2020.2.10,Win32,60,,,,,left,1.053,4,0.3044,,,,,,,,,,right,0.5198,0,0,0,0,1,,,,,,,,
,,,,,,,,21,2021-11-11_15h51.30.943,premceCat2_ses-02_part-02_label-phase2,2020.2.10,Win32,60,,,,,,,,,0,66,66,119,1,stimuli/objects/cleaver01.jpg,left,old,263,,,,,,,,,,,,,,,
,,,,,,,,21,2021-11-11_15h51.30.943,premceCat2_ses-02_part-02_label-phase2,2020.2.10,Win32,60,,,,,left,1.207,4,0.3375,,,,,,,,,,right,1.524,0,0,0,0,1,,,,,,,,
,,,,,,,,21,2021-11-11_15h51.30.943,premceCat2_ses-02_part-02_label-phase2,2020.2.10,Win32,60,,,,,,,,,0,67,67,88,1,stimuli/objects/kiddiepool.jpg,left,old,232,,,,,,,,,,,,,,,
,,,,,,,,21,2021-11-11_15h51.30.943,premceCat2_ses-02_part-02_label-phase2,2020.2.10,Win32,60,,,,,left,0.8242,4,0.3142,,,,,,,,,,left,1.5851,0,0,0,0,1,,,,,,,,
,,,,,,,,21,2021-11-11_15h51.30.943,premceCat2_ses-02_part-02_label-phase2,2020.2.10,Win32,60,,,,,,,,,0,68,68,54,1,stimuli/objects/toyhardhat.jpg,left,old,198,,,,,,,,,,,,,,,
,,,,,,,,21,2021-11-11_15h51.30.943,premceCat2_ses-02_part-02_label-phase2,2020.2.10,Win32,60,,,,,right,1.2975,4,0.5044,0,69,69,48,1,stimuli/objects/eggslicer.jpg,right,new,192,,,,,,,,,,,,,,,
,,,,,,,,21,2021-11-11_15h51.30.943,premceCat2_ses-02_part-02_label-phase2,2020.2.10,Win32,60,,,,,right,1.1064,4,0.354,0,70,70,94,1,stimuli/objects/file.jpg,right,new,238,,,,,,,,,,,,,,,
,,,,,,,,21,2021-11-11_15h51.30.943,premceCat2_ses-02_part-02_label-phase2,2020.2.10,Win32,60,,,,,right,0.9283,4,0.3411,0,71,71,3,1,stimuli/objects/boxingglove01.jpg,right,new,147,,,,,,,,,,,,,,,
,,,,,,,,21,2021-11-11_15h51.30.943,premceCat2_ses-02_part-02_label-phase2,2020.2.10,Win32,60,,,,,left,0.9863,2,0.8705,,,,,,,,,,left,1.0719,0,0,0,0,1,,,,,,,,
,,,,,,,,21,2021-11-11_15h51.30.943,premceCat2_ses-02_part-02_label-phase2,2020.2.10,Win32,60,,,,,,,,,0,72,72,18,1,stimuli/objects/cellphone.jpg,left,old,162,,,,,,,,,,,,,,,
,,,,,,,,21,2021-11-11_15h51.30.943,premceCat2_ses-02_part-02_label-phase2,2020.2.10,Win32,60,,,,,left,1.1361,4,0.8216,,,,,,,,,,left,1.0688,0,0,0,0,1,,,,,,,,
,,,,,,,,21,2021-11-11_15h51.30.943,premceCat2_ses-02_part-02_label-phase2,2020.2.10,Win32,60,,,,,,,,,0,73,73,31,1,stimuli/objects/hockeygoaliemask.jpg,left,old,175,,,,,,,,,,,,,,,
,,,,,,,,21,2021-11-11_15h51.30.943,premceCat2_ses-02_part-02_label-phase2,2020.2.10,Win32,60,,,,,left,2.0723,3,0.2683,,,,,,,,,,right,1.5528,0,0,0,0,1,,,,,,,,
,,,,,,,,21,2021-11-11_15h51.30.943,premceCat2_ses-02_part-02_label-phase2,2020.2.10,Win32,60,,,,,,,,,0,74,74,109,1,stimuli/objects/waterbottle03.jpg,left,old,253,,,,,,,,,,,,,,,
,,,,,,,,21,2021-11-11_15h51.30.943,premceCat2_ses-02_part-02_label-phase2,2020.2.10,Win32,60,,,,,left,0.8471,4,0.3071,,,,,,,,,,right,0.9956,0,0,0,0,1,,,,,,,,
,,,,,,,,21,2021-11-11_15h51.30.943,premceCat2_ses-02_part-02_label-phase2,2020.2.10,Win32,60,,,,,,,,,0,75,75,128,1,stimuli/objects/pot01.jpg,left,old,272,,,,,,,,,,,,,,,
,,,,,,,,21,2021-11-11_15h51.30.943,premceCat2_ses-02_part-02_label-phase2,2020.2.10,Win32,60,,,,,left,0.9483,3,1.1367,,,,,,,,,,left,0.3861,0,0,0,0,1,,,,,,,,
,,,,,,,,21,2021-11-11_15h51.30.943,premceCat2_ses-02_part-02_label-phase2,2020.2.10,Win32,60,,,,,,,,,0,76,76,8,1,stimuli/objects/wheel01.jpg,left,old,152,,,,,,,,,,,,,,,
,,,,,,,,21,2021-11-11_15h51.30.943,premceCat2_ses-02_part-02_label-phase2,2020.2.10,Win32,60,,,,,right,0.9198,4,0.2887,0,77,77,52,1,stimuli/objects/antenna.jpg,left,old,196,,,,,,,,,,,,,,,
,,,,,,,,21,2021-11-11_15h51.30.943,premceCat2_ses-02_part-02_label-phase2,2020.2.10,Win32,60,,,,,right,0.7523,4,0.3065,0,78,78,120,1,stimuli/objects/tent.jpg,right,new,264,,,,,,,,,,,,,,,
,,,,,,,,21,2021-11-11_15h51.30.943,premceCat2_ses-02_part-02_label-phase2,2020.2.10,Win32,60,,,,,right,0.7691,4,0.3182,0,79,79,138,1,stimuli/objects/beermug01a.jpg,right,new,282,,,,,,,,,,,,,,,
,,,,,,,,21,2021-11-11_15h51.30.943,premceCat2_ses-02_part-02_label-phase2,2020.2.10,Win32,60,,,,,left,1.2473,4,0.341,,,,,,,,,,left,0.4826,0,0,0,0,1,,,,,,,,
,,,,,,,,21,2021-11-11_15h51.30.943,premceCat2_ses-02_part-02_label-phase2,2020.2.10,Win32,60,,,,,,,,,0,80,80,29,1,stimuli/objects/coffeemachine.jpg,left,old,173,,,,,,,,,,,,,,,
,,,,,,,,21,2021-11-11_15h51.30.943,premceCat2_ses-02_part-02_label-phase2,2020.2.10,Win32,60,,,,,left,0.8143,4,0.304,,,,,,,,,,right,1.113,0,0,0,0,1,,,,,,,,
,,,,,,,,21,2021-11-11_15h51.30.943,premceCat2_ses-02_part-02_label-phase2,2020.2.10,Win32,60,,,,,,,,,0,81,81,115,1,stimuli/objects/towel01.jpg,left,old,259,,,,,,,,,,,,,,,
,,,,,,,,21,2021-11-11_15h51.30.943,premceCat2_ses-02_part-02_label-phase2,2020.2.10,Win32,60,,,,,right,4.8454,3,1.0577,0,82,82,84,1,stimuli/objects/patioumbrella.jpg,left,old,228,,,,,,,,,,,,,,,
,,,,,,,,21,2021-11-11_15h51.30.943,premceCat2_ses-02_part-02_label-phase2,2020.2.10,Win32,60,,,,,right,0.78,4,0.3535,0,83,83,131,1,stimuli/objects/handblender.jpg,right,new,275,,,,,,,,,,,,,,,
,,,,,,,,21,2021-11-11_15h51.30.943,premceCat2_ses-02_part-02_label-phase2,2020.2.10,Win32,60,,,,,right,0.7378,4,0.3307,0,84,84,133,1,stimuli/objects/birdie.jpg,right,new,277,,,,,,,,,,,,,,,
,,,,,,,,21,2021-11-11_15h51.30.943,premceCat2_ses-02_part-02_label-phase2,2020.2.10,Win32,60,,,,,left,2.2133,2,0.8096,,,,,,,,,,right,1.0782,0,0,0,0,1,,,,,,,,
,,,,,,,,21,2021-11-11_15h51.30.943,premceCat2_ses-02_part-02_label-phase2,2020.2.10,Win32,60,,,,,,,,,0,85,85,51,1,stimuli/objects/cheeseknife01.jpg,right,new,195,,,,,,,,,,,,,,,
,,,,,,,,21,2021-11-11_15h51.30.943,premceCat2_ses-02_part-02_label-phase2,2020.2.10,Win32,60,,,,,left,1.5469,4,0.4064,,,,,,,,,,left,0.6864,0,0,0,0,1,,,,,,,,
,,,,,,,,21,2021-11-11_15h51.30.943,premceCat2_ses-02_part-02_label-phase2,2020.2.10,Win32,60,,,,,,,,,0,86,86,37,1,stimuli/objects/carantenna.jpg,left,old,181,,,,,,,,,,,,,,,
,,,,,,,,21,2021-11-11_15h51.30.943,premceCat2_ses-02_part-02_label-phase2,2020.2.10,Win32,60,,,,,left,1.1496,4,0.3057,,,,,,,,,,right,0.2937,0,0,0,0,1,,,,,,,,
,,,,,,,,21,2021-11-11_15h51.30.943,premceCat2_ses-02_part-02_label-phase2,2020.2.10,Win32,60,,,,,,,,,0,87,87,56,1,stimuli/objects/tupperware03a.jpg,left,old,200,,,,,,,,,,,,,,,
,,,,,,,,21,2021-11-11_15h51.30.943,premceCat2_ses-02_part-02_label-phase2,2020.2.10,Win32,60,,,,,right,1.5738,3,1.0046,0,88,88,78,1,stimuli/objects/lightswitch01.jpg,right,new,222,,,,,,,,,,,,,,,
,,,,,,,,21,2021-11-11_15h51.30.943,premceCat2_ses-02_part-02_label-phase2,2020.2.10,Win32,60,,,,,right,1.2646,4,0.8139,0,89,89,16,1,stimuli/objects/bottleopener01.jpg,right,new,160,,,,,,,,,,,,,,,
,,,,,,,,21,2021-11-11_15h51.30.943,premceCat2_ses-02_part-02_label-phase2,2020.2.10,Win32,60,,,,,right,0.9503,4,0.6308,0,90,90,47,1,stimuli/objects/plate01b.jpg,right,new,191,,,,,,,,,,,,,,,
,,,,,,,,21,2021-11-11_15h51.30.943,premceCat2_ses-02_part-02_label-phase2,2020.2.10,Win32,60,,,,,left,1.3972,4,2.0846,,,,,,,,,,left,0.9091,0,0,0,0,1,,,,,,,,
,,,,,,,,21,2021-11-11_15h51.30.943,premceCat2_ses-02_part-02_label-phase2,2020.2.10,Win32,60,,,,,,,,,0,91,91,130,1,stimuli/objects/fan.jpg,left,old,274,,,,,,,,,,,,,,,
,,,,,,,,21,2021-11-11_15h51.30.943,premceCat2_ses-02_part-02_label-phase2,2020.2.10,Win32,60,,,,,left,2.2674,2,1.2882,,,,,,,,,,left,0.8235,0,0,0,0,1,,,,,,,,
,,,,,,,,21,2021-11-11_15h51.30.943,premceCat2_ses-02_part-02_label-phase2,2020.2.10,Win32,60,,,,,,,,,0,92,92,126,1,stimuli/objects/badmintonracket.jpg,left,old,270,,,,,,,,,,,,,,,
,,,,,,,,21,2021-11-11_15h51.30.943,premceCat2_ses-02_part-02_label-phase2,2020.2.10,Win32,60,,,,,right,1.7763,2,0.7622,0,93,93,46,1,stimuli/objects/waterbottleholder.jpg,right,new,190,,,,,,,,,,,,,,,
,,,,,,,,21,2021-11-11_15h51.30.943,premceCat2_ses-02_part-02_label-phase2,2020.2.10,Win32,60,,,,,right,1.3899,3,1.1645,0,94,94,76,1,stimuli/objects/extensioncord.jpg,left,old,220,,,,,,,,,,,,,,,
,,,,,,,,21,2021-11-11_15h51.30.943,premceCat2_ses-02_part-02_label-phase2,2020.2.10,Win32,60,,,,,right,0.7121,3,2.668,0,95,95,9,1,stimuli/objects/alarmsystem.jpg,right,new,153,,,,,,,,,,,,,,,
,,,,,,,,21,2021-11-11_15h51.30.943,premceCat2_ses-02_part-02_label-phase2,2020.2.10,Win32,60,,,,,left,1.0727,4,0.3372,,,,,,,,,,left,0.62,0,0,0,0,1,,,,,,,,
,,,,,,,,21,2021-11-11_15h51.30.943,premceCat2_ses-02_part-02_label-phase2,2020.2.10,Win32,60,,,,,,,,,0,96,96,104,1,stimuli/objects/lamp04a.jpg,left,old,248,,,,,,,,,,,,,,,
,,,,,,,,21,2021-11-11_15h51.30.943,premceCat2_ses-02_part-02_label-phase2,2020.2.10,Win32,60,,,,,left,2.6964,4,0.2863,,,,,,,,,,right,2.1013,0,0,0,0,1,,,,,,,,
,,,,,,,,21,2021-11-11_15h51.30.943,premceCat2_ses-02_part-02_label-phase2,2020.2.10,Win32,60,,,,,,,,,0,97,97,67,1,stimuli/objects/filmroll.jpg,left,old,211,,,,,,,,,,,,,,,
,,,,,,,,21,2021-11-11_15h51.30.943,premceCat2_ses-02_part-02_label-phase2,2020.2.10,Win32,60,,,,,right,1.1137,4,1.0785,0,98,98,121,1,stimuli/objects/parachute.jpg,right,new,265,,,,,,,,,,,,,,,
,,,,,,,,21,2021-11-11_15h51.30.943,premceCat2_ses-02_part-02_label-phase2,2020.2.10,Win32,60,,,,,right,1.0716,4,0.4739,0,99,99,60,1,stimuli/objects/kite.jpg,right,new,204,,,,,,,,,,,,,,,
,,,,,,,,21,2021-11-11_15h51.30.943,premceCat2_ses-02_part-02_label-phase2,2020.2.10,Win32,60,,,,,left,2.5124,1,1.1928,,,,,,,,,,left,1.6716,0,0,0,0,1,,,,,,,,
,,,,,,,,21,2021-11-11_15h51.30.943,premceCat2_ses-02_part-02_label-phase2,2020.2.10,Win32,60,,,,,,,,,0,100,100,142,1,stimuli/objects/needlenosepliers01.jpg,right,new,286,,,,,,,,,,,,,,,
,,,,,,,,21,2021-11-11_15h51.30.943,premceCat2_ses-02_part-02_label-phase2,2020.2.10,Win32,60,,,,,left,1.296,4,0.3537,,,,,,,,,,right,1.3475,0,0,0,0,1,,,,,,,,
,,,,,,,,21,2021-11-11_15h51.30.943,premceCat2_ses-02_part-02_label-phase2,2020.2.10,Win32,60,,,,,,,,,0,101,101,110,1,stimuli/objects/hockeygoaliepad.jpg,left,old,254,,,,,,,,,,,,,,,
,,,,,,,,21,2021-11-11_15h51.30.943,premceCat2_ses-02_part-02_label-phase2,2020.2.10,Win32,60,,,,,left,1.2228,4,0.3374,,,,,,,,,,right,0.3227,0,0,0,0,1,,,,,,,,
,,,,,,,,21,2021-11-11_15h51.30.943,premceCat2_ses-02_part-02_label-phase2,2020.2.10,Win32,60,,,,,,,,,0,102,102,74,1,stimuli/objects/shinpad.jpg,left,old,218,,,,,,,,,,,,,,,
,,,,,,,,21,2021-11-11_15h51.30.943,premceCat2_ses-02_part-02_label-phase2,2020.2.10,Win32,60,,,,,right,1.9126,3,1.3526,0,103,103,34,1,stimuli/objects/kneepad01c.jpg,right,new,178,,,,,,,,,,,,,,,
,,,,,,,,21,2021-11-11_15h51.30.943,premceCat2_ses-02_part-02_label-phase2,2020.2.10,Win32,60,,,,,left,2.9959,2,0.446,,,,,,,,,,left,1.0888,0,0,0,0,1,,,,,,,,
,,,,,,,,21,2021-11-11_15h51.30.943,premceCat2_ses-02_part-02_label-phase2,2020.2.10,Win32,60,,,,,,,,,0,104,104,129,1,stimuli/objects/snowblower.jpg,left,old,273,,,,,,,,,,,,,,,
,,,,,,,,21,2021-11-11_15h51.30.943,premceCat2_ses-02_part-02_label-phase2,2020.2.10,Win32,60,,,,,right,1.0156,3,0.4356,0,105,105,27,1,stimuli/objects/hedgeshears.jpg,left,old,171,,,,,,,,,,,,,,,
,,,,,,,,21,2021-11-11_15h51.30.943,premceCat2_ses-02_part-02_label-phase2,2020.2.10,Win32,60,,,,,right,0.8286,4,0.4207,0,106,106,39,1,stimuli/objects/wafflemaker.jpg,right,new,183,,,,,,,,,,,,,,,
,,,,,,,,21,2021-11-11_15h51.30.943,premceCat2_ses-02_part-02_label-phase2,2020.2.10,Win32,60,,,,,left,0.8987,4,0.3444,,,,,,,,,,left,0.4032,0,0,0,0,1,,,,,,,,
,,,,,,,,21,2021-11-11_15h51.30.943,premceCat2_ses-02_part-02_label-phase2,2020.2.10,Win32,60,,,,,,,,,0,107,107,71,1,stimuli/objects/handgripper.jpg,left,old,215,,,,,,,,,,,,,,,
,,,,,,,,21,2021-11-11_15h51.30.943,premceCat2_ses-02_part-02_label-phase2,2020.2.10,Win32,60,,,,,left,2.4838,2,0.5445,,,,,,,,,,left,1.028,0,0,0,0,1,,,,,,,,
,,,,,,,,21,2021-11-11_15h51.30.943,premceCat2_ses-02_part-02_label-phase2,2020.2.10,Win32,60,,,,,,,,,0,108,108,11,1,stimuli/objects/fuse.jpg,left,old,155,,,,,,,,,,,,,,,
,,,,,,,,21,2021-11-11_15h51.30.943,premceCat2_ses-02_part-02_label-phase2,2020.2.10,Win32,60,,,,,right,0.8519,4,0.2692,0,109,109,95,1,stimuli/objects/tennisball01b.jpg,right,new,239,,,,,,,,,,,,,,,
,,,,,,,,21,2021-11-11_15h51.30.943,premceCat2_ses-02_part-02_label-phase2,2020.2.10,Win32,60,,,,,left,1.0907,4,0.5917,,,,,,,,,,left,1.2851,0,0,0,0,1,,,,,,,,
,,,,,,,,21,2021-11-11_15h51.30.943,premceCat2_ses-02_part-02_label-phase2,2020.2.10,Win32,60,,,,,,,,,0,110,110,28,1,stimuli/objects/spoon01.jpg,left,old,172,,,,,,,,,,,,,,,
,,,,,,,,21,2021-11-11_15h51.30.943,premceCat2_ses-02_part-02_label-phase2,2020.2.10,Win32,60,,,,,right,4.1803,4,0.3157,0,111,111,92,1,stimuli/objects/leafrake.jpg,left,old,236,,,,,,,,,,,,,,,
,,,,,,,,21,2021-11-11_15h51.30.943,premceCat2_ses-02_part-02_label-phase2,2020.2.10,Win32,60,,,,,right,0.7477,4,0.3861,0,112,112,123,1,stimuli/objects/jackhammer.jpg,right,new,267,,,,,,,,,,,,,,,
,,,,,,,,21,2021-11-11_15h51.30.943,premceCat2_ses-02_part-02_label-phase2,2020.2.10,Win32,60,,,,,right,1.3192,3,0.445,0,113,113,19,1,stimuli/objects/mug01.jpg,right,new,163,,,,,,,,,,,,,,,
,,,,,,,,21,2021-11-11_15h51.30.943,premceCat2_ses-02_part-02_label-phase2,2020.2.10,Win32,60,,,,,left,0.8053,4,1.0196,,,,,,,,,,left,0.7618,0,0,0,0,1,,,,,,,,
,,,,,,,,21,2021-11-11_15h51.30.943,premceCat2_ses-02_part-02_label-phase2,2020.2.10,Win32,60,,,,,,,,,0,114,114,85,1,stimuli/objects/usbcable01a.jpg,left,old,229,,,,,,,,,,,,,,,
,,,,,,,,21,2021-11-11_15h51.30.943,premceCat2_ses-02_part-02_label-phase2,2020.2.10,Win32,60,,,,,left,4.3622,2,0.4819,,,,,,,,,,right,1.1134,0,0,0,0,1,,,,,,,,
,,,,,,,,21,2021-11-11_15h51.30.943,premceCat2_ses-02_part-02_label-phase2,2020.2.10,Win32,60,,,,,,,,,0,115,115,112,1,stimuli/objects/telephone01b.jpg,left,old,256,,,,,,,,,,,,,,,
,,,,,,,,21,2021-11-11_15h51.30.943,premceCat2_ses-02_part-02_label-phase2,2020.2.10,Win32,60,,,,,left,0.937,4,0.3374,,,,,,,,,,right,0.4198,0,0,0,0,1,,,,,,,,
,,,,,,,,21,2021-11-11_15h51.30.943,premceCat2_ses-02_part-02_label-phase2,2020.2.10,Win32,60,,,,,,,,,0,116,116,23,1,stimuli/objects/hockeypuck.jpg,left,old,167,,,,,,,,,,,,,,,
,,,,,,,,21,2021-11-11_15h51.30.943,premceCat2_ses-02_part-02_label-phase2,2020.2.10,Win32,60,,,,,right,0.8884,4,0.3211,0,117,117,40,1,stimuli/objects/tablesaw.jpg,right,new,184,,,,,,,,,,,,,,,
,,,,,,,,21,2021-11-11_15h51.30.943,premceCat2_ses-02_part-02_label-phase2,2020.2.10,Win32,60,,,,,left,3.048,2,0.4241,,,,,,,,,,right,1.7801,0,0,0,0,1,,,,,,,,
,,,,,,,,21,2021-11-11_15h51.30.943,premceCat2_ses-02_part-02_label-phase2,2020.2.10,Win32,60,,,,,,,,,0,118,118,10,1,stimuli/objects/skihelmet01.jpg,left,old,154,,,,,,,,,,,,,,,
,,,,,,,,21,2021-11-11_15h51.30.943,premceCat2_ses-02_part-02_label-phase2,2020.2.10,Win32,60,,,,,left,0.966,3,0.4381,,,,,,,,,,left,0.7028,0,0,0,0,1,,,,,,,,
,,,,,,,,21,2021-11-11_15h51.30.943,premceCat2_ses-02_part-02_label-phase2,2020.2.10,Win32,60,,,,,,,,,0,119,119,100,1,stimuli/objects/wheelbarrow01.jpg,left,old,244,,,,,,,,,,,,,,,
,,,,,,,,21,2021-11-11_15h51.30.943,premceCat2_ses-02_part-02_label-phase2,2020.2.10,Win32,60,,,,,left,1.3048,4,0.3763,,,,,,,,,,left,0.4274,0,0,0,0,1,,,,,,,,
,,,,,,,,21,2021-11-11_15h51.30.943,premceCat2_ses-02_part-02_label-phase2,2020.2.10,Win32,60,,,,,,,,,0,120,120,1,1,stimuli/objects/photocopier.jpg,left,old,145,,,,,,,,,,,,,,,
,,,,,,,,21,2021-11-11_15h51.30.943,premceCat2_ses-02_part-02_label-phase2,2020.2.10,Win32,60,,,,,right,0.8484,4,0.327,0,121,121,127,1,stimuli/objects/skigoggles01.jpg,right,new,271,,,,,,,,,,,,,,,
,,,,,,,,21,2021-11-11_15h51.30.943,premceCat2_ses-02_part-02_label-phase2,2020.2.10,Win32,60,,,,,left,2.3861,3,1.0802,,,,,,,,,,right,0.2568,0,0,0,0,1,,,,,,,,
,,,,,,,,21,2021-11-11_15h51.30.943,premceCat2_ses-02_part-02_label-phase2,2020.2.10,Win32,60,,,,,,,,,0,122,122,136,1,stimuli/objects/bikepump01.jpg,left,old,280,,,,,,,,,,,,,,,
,,,,,,,,21,2021-11-11_15h51.30.943,premceCat2_ses-02_part-02_label-phase2,2020.2.10,Win32,60,,,,,left,1.5145,4,0.3535,,,,,,,,,,left,0.5035,0,0,0,0,1,,,,,,,,
,,,,,,,,21,2021-11-11_15h51.30.943,premceCat2_ses-02_part-02_label-phase2,2020.2.10,Win32,60,,,,,,,,,0,123,123,66,1,stimuli/objects/heatpump.jpg,right,new,210,,,,,,,,,,,,,,,
,,,,,,,,21,2021-11-11_15h51.30.943,premceCat2_ses-02_part-02_label-phase2,2020.2.10,Win32,60,,,,,right,2.3801,1,0.3781,0,124,124,65,1,stimuli/objects/jigsaw.jpg,left,old,209,,,,,,,,,,,,,,,
,,,,,,,,21,2021-11-11_15h51.30.943,premceCat2_ses-02_part-02_label-phase2,2020.2.10,Win32,60,,,,,right,0.9949,2,1.4057,0,125,125,89,1,stimuli/objects/saladspinner.jpg,left,old,233,,,,,,,,,,,,,,,
,,,,,,,,21,2021-11-11_15h51.30.943,premceCat2_ses-02_part-02_label-phase2,2020.2.10,Win32,60,,,,,right,0.8148,4,0.4037,0,126,126,64,1,stimuli/objects/volleyball.jpg,left,old,208,,,,,,,,,,,,,,,
,,,,,,,,21,2021-11-11_15h51.30.943,premceCat2_ses-02_part-02_label-phase2,2020.2.10,Win32,60,,,,,left,1.8019,4,1.7686,,,,,,,,,,right,1.5063,0,0,0,0,1,,,,,,,,
,,,,,,,,21,2021-11-11_15h51.30.943,premceCat2_ses-02_part-02_label-phase2,2020.2.10,Win32,60,,,,,,,,,0,127,127,50,1,stimuli/objects/iceskate.jpg,left,old,194,,,,,,,,,,,,,,,
,,,,,,,,21,2021-11-11_15h51.30.943,premceCat2_ses-02_part-02_label-phase2,2020.2.10,Win32,60,,,,,right,1.8391,3,0.4026,0,128,128,99,1,stimuli/objects/floodlight.jpg,right,new,243,,,,,,,,,,,,,,,
,,,,,,,,21,2021-11-11_15h51.30.943,premceCat2_ses-02_part-02_label-phase2,2020.2.10,Win32,60,,,,,right,0.7345,4,0.3068,0,129,129,6,1,stimuli/objects/solderingwire.jpg,right,new,150,,,,,,,,,,,,,,,
,,,,,,,,21,2021-11-11_15h51.30.943,premceCat2_ses-02_part-02_label-phase2,2020.2.10,Win32,60,,,,,right,0.9221,4,0.4199,0,130,130,0,1,stimuli/objects/smokedetector02.jpg,right,new,144,,,,,,,,,,,,,,,
,,,,,,,,21,2021-11-11_15h51.30.943,premceCat2_ses-02_part-02_label-phase2,2020.2.10,Win32,60,,,,,right,0.737,4,0.2906,0,131,131,49,1,stimuli/objects/cakeplatter.jpg,right,new,193,,,,,,,,,,,,,,,
,,,,,,,,21,2021-11-11_15h51.30.943,premceCat2_ses-02_part-02_label-phase2,2020.2.10,Win32,60,,,,,left,2.5925,2,1.2753,,,,,,,,,,left,0.7642,0,0,0,0,1,,,,,,,,
,,,,,,,,21,2021-11-11_15h51.30.943,premceCat2_ses-02_part-02_label-phase2,2020.2.10,Win32,60,,,,,,,,,0,132,132,30,1,stimuli/objects/halogenlightbulb.jpg,right,new,174,,,,,,,,,,,,,,,
,,,,,,,,21,2021-11-11_15h51.30.943,premceCat2_ses-02_part-02_label-phase2,2020.2.10,Win32,60,,,,,right,1.6867,4,0.3708,0,133,133,87,1,stimuli/objects/wiicontroller.jpg,right,new,231,,,,,,,,,,,,,,,
,,,,,,,,21,2021-11-11_15h51.30.943,premceCat2_ses-02_part-02_label-phase2,2020.2.10,Win32,60,,,,,right,1.1182,3,1.0046,0,134,134,108,1,stimuli/objects/crocodileclips.jpg,left,old,252,,,,,,,,,,,,,,,
,,,,,,,,21,2021-11-11_15h51.30.943,premceCat2_ses-02_part-02_label-phase2,2020.2.10,Win32,60,,,,,right,0.8642,4,0.3471,0,135,135,135,1,stimuli/objects/mortarandpestle.jpg,right,new,279,,,,,,,,,,,,,,,
,,,,,,,,21,2021-11-11_15h51.30.943,premceCat2_ses-02_part-02_label-phase2,2020.2.10,Win32,60,,,,,right,0.6837,4,0.3698,0,136,136,137,1,stimuli/objects/nutcracker01.jpg,right,new,281,,,,,,,,,,,,,,,
,,,,,,,,21,2021-11-11_15h51.30.943,premceCat2_ses-02_part-02_label-phase2,2020.2.10,Win32,60,,,,,right,0.7798,4,0.314,0,137,137,35,1,stimuli/objects/stroller.jpg,right,new,179,,,,,,,,,,,,,,,
,,,,,,,,21,2021-11-11_15h51.30.943,premceCat2_ses-02_part-02_label-phase2,2020.2.10,Win32,60,,,,,right,0.6643,4,0.3531,0,138,138,33,1,stimuli/objects/gps.jpg,left,old,177,,,,,,,,,,,,,,,
,,,,,,,,21,2021-11-11_15h51.30.943,premceCat2_ses-02_part-02_label-phase2,2020.2.10,Win32,60,,,,,right,2.4281,2,1.4208,0,139,139,20,1,stimuli/objects/bikehelmet.jpg,left,old,164,,,,,,,,,,,,,,,
,,,,,,,,21,2021-11-11_15h51.30.943,premceCat2_ses-02_part-02_label-phase2,2020.2.10,Win32,60,,,,,left,1.1318,4,0.3372,,,,,,,,,,left,1.8149,0,0,0,0,1,,,,,,,,
,,,,,,,,21,2021-11-11_15h51.30.943,premceCat2_ses-02_part-02_label-phase2,2020.2.10,Win32,60,,,,,,,,,0,140,140,62,1,stimuli/objects/hourglass.jpg,left,old,206,,,,,,,,,,,,,,,
,,,,,,,,21,2021-11-11_15h51.30.943,premceCat2_ses-02_part-02_label-phase2,2020.2.10,Win32,60,,,,,left,1.1836,4,0.6674,,,,,,,,,,right,1.0008,0,0,0,0,1,,,,,,,,
,,,,,,,,21,2021-11-11_15h51.30.943,premceCat2_ses-02_part-02_label-phase2,2020.2.10,Win32,60,,,,,,,,,0,141,141,4,1,stimuli/objects/cassettetape01a.jpg,right,new,148,,,,,,,,,,,,,,,
,,,,,,,,21,2021-11-11_15h51.30.943,premceCat2_ses-02_part-02_label-phase2,2020.2.10,Win32,60,,,,,left,1.0893,4,0.257,,,,,,,,,,left,0.5182,0,0,0,0,1,,,,,,,,
,,,,,,,,21,2021-11-11_15h51.30.943,premceCat2_ses-02_part-02_label-phase2,2020.2.10,Win32,60,,,,,,,,,0,142,142,113,1,stimuli/objects/gluetube.jpg,left,old,257,,,,,,,,,,,,,,,
,,,,,,,,21,2021-11-11_15h51.30.943,premceCat2_ses-02_part-02_label-phase2,2020.2.10,Win32,60,,,,,,,,,,,,,,,,,,,,,,,,,space,4.4816,0,1,1,1,1,condition_files/ImagesforRecog2_2.csv
