instructions_loop.thisRepN,instructions_loop.thisTrialN,instructions_loop.thisN,instructions_loop.thisIndex,instructions_loop.ran,text1,text2,text3,participant,date,expName,psychopyVersion,OS,frameRate,key_resp_2.keys,key_resp_2.rt,key_resp_3.keys,key_resp_3.rt,recog_resp.keys,recog_resp.rt,conf_resp.keys,conf_resp.rt,resp_assoc.keys,resp_assoc.rt,assoc_loop.thisRepN,assoc_loop.thisTrialN,assoc_loop.thisN,assoc_loop.thisIndex,assoc_loop.ran,recog_loop.thisRepN,recog_loop.thisTrialN,recog_loop.thisN,recog_loop.thisIndex,recog_loop.ran,images,corr_ans,type,order,key_resp_break.keys,key_resp_break.rt,list_loop.thisRepN,list_loop.thisTrialN,list_loop.thisN,list_loop.thisIndex,list_loop.ran,recog_list
0,0,0,0,1,Welcome to the last phase of this experiment!,.,Please press the space bar to continue,22,2021-11-22_18h37.16.818,premceCat2_ses-02_part-02_label-phase2,2020.2.10,Win32,60,,,,,,,,,,,,,,,,,,,,,,,,,,,,,,,,
0,1,1,1,1,.,"In this phase, you will see some objects. 

For each object, you should indicate whether you have seen it before during the experiment.

Press LEFT ARROW for YES
Press RIGHT ARROW for NO

",Please press the space bar to continue ,22,2021-11-22_18h37.16.818,premceCat2_ses-02_part-02_label-phase2,2020.2.10,Win32,60,,,,,,,,,,,,,,,,,,,,,,,,,,,,,,,,
0,2,2,2,1,.,"After that, you will be asked how confident you are of your choice.

Please rate the confidence in your choice with the numbers from 1 to 4 of your keyboard. 

The numbers correspond to:

1 = Very unsure
2 = Unsure
3 = Sure
4 = Very Sure",Please press the space bar to continue,22,2021-11-22_18h37.16.818,premceCat2_ses-02_part-02_label-phase2,2020.2.10,Win32,60,,,,,,,,,,,,,,,,,,,,,,,,,,,,,,,,
,,,,,,,,22,2021-11-22_18h37.16.818,premceCat2_ses-02_part-02_label-phase2,2020.2.10,Win32,60,space,32.4439,space,9.4486,left,3.1619,4,3.4388,left,6.059,0,0,0,0,1,,,,,,,,,,,,,,,,,
,,,,,,,,22,2021-11-22_18h37.16.818,premceCat2_ses-02_part-02_label-phase2,2020.2.10,Win32,60,,,,,,,,,,,,,,,,0,0,0,135,1,stimuli/objects/wheelbarrow01.jpg,left,old,136,,,,,,,,
,,,,,,,,22,2021-11-22_18h37.16.818,premceCat2_ses-02_part-02_label-phase2,2020.2.10,Win32,60,,,,,left,2.3428,4,1.8162,left,2.9487,0,0,0,0,1,,,,,,,,,,,,,,,,,
,,,,,,,,22,2021-11-22_18h37.16.818,premceCat2_ses-02_part-02_label-phase2,2020.2.10,Win32,60,,,,,,,,,,,,,,,,0,1,1,129,1,stimuli/objects/gasburner.jpg,left,old,130,,,,,,,,
,,,,,,,,22,2021-11-22_18h37.16.818,premceCat2_ses-02_part-02_label-phase2,2020.2.10,Win32,60,,,,,right,3.1958,3,2.2697,,,,,,,,0,2,2,97,1,stimuli/objects/satellitedish01.jpg,left,old,98,,,,,,,,
,,,,,,,,22,2021-11-22_18h37.16.818,premceCat2_ses-02_part-02_label-phase2,2020.2.10,Win32,60,,,,,left,2.4458,4,0.9833,right,0.9755,0,0,0,0,1,,,,,,,,,,,,,,,,,
,,,,,,,,22,2021-11-22_18h37.16.818,premceCat2_ses-02_part-02_label-phase2,2020.2.10,Win32,60,,,,,,,,,,,,,,,,0,3,3,104,1,stimuli/objects/lightbulb01.jpg,left,old,105,,,,,,,,
,,,,,,,,22,2021-11-22_18h37.16.818,premceCat2_ses-02_part-02_label-phase2,2020.2.10,Win32,60,,,,,right,3.129,2,0.9644,,,,,,,,0,4,4,47,1,stimuli/objects/flooringstapler.jpg,left,old,48,,,,,,,,
,,,,,,,,22,2021-11-22_18h37.16.818,premceCat2_ses-02_part-02_label-phase2,2020.2.10,Win32,60,,,,,left,1.9991,3,1.8136,left,1.3184,0,0,0,0,1,,,,,,,,,,,,,,,,,
,,,,,,,,22,2021-11-22_18h37.16.818,premceCat2_ses-02_part-02_label-phase2,2020.2.10,Win32,60,,,,,,,,,,,,,,,,0,5,5,102,1,stimuli/objects/hockeygoalieglove.jpg,left,old,103,,,,,,,,
,,,,,,,,22,2021-11-22_18h37.16.818,premceCat2_ses-02_part-02_label-phase2,2020.2.10,Win32,60,,,,,left,1.2895,3,1.0741,left,1.3608,0,0,0,0,1,,,,,,,,,,,,,,,,,
,,,,,,,,22,2021-11-22_18h37.16.818,premceCat2_ses-02_part-02_label-phase2,2020.2.10,Win32,60,,,,,,,,,,,,,,,,0,6,6,132,1,stimuli/objects/expansioncard.jpg,left,old,133,,,,,,,,
,,,,,,,,22,2021-11-22_18h37.16.818,premceCat2_ses-02_part-02_label-phase2,2020.2.10,Win32,60,,,,,left,2.637,3,1.9324,right,2.21,0,0,0,0,1,,,,,,,,,,,,,,,,,
,,,,,,,,22,2021-11-22_18h37.16.818,premceCat2_ses-02_part-02_label-phase2,2020.2.10,Win32,60,,,,,,,,,,,,,,,,0,7,7,101,1,stimuli/objects/gps.jpg,left,old,102,,,,,,,,
,,,,,,,,22,2021-11-22_18h37.16.818,premceCat2_ses-02_part-02_label-phase2,2020.2.10,Win32,60,,,,,right,1.461,4,2.7038,,,,,,,,0,8,8,46,1,stimuli/objects/walkman.jpg,right,new,47,,,,,,,,
,,,,,,,,22,2021-11-22_18h37.16.818,premceCat2_ses-02_part-02_label-phase2,2020.2.10,Win32,60,,,,,right,1.8241,3,0.4407,,,,,,,,0,9,9,68,1,stimuli/objects/leafblower01.jpg,right,new,69,,,,,,,,
,,,,,,,,22,2021-11-22_18h37.16.818,premceCat2_ses-02_part-02_label-phase2,2020.2.10,Win32,60,,,,,left,1.2073,3,1.2496,left,0.4794,0,0,0,0,1,,,,,,,,,,,,,,,,,
,,,,,,,,22,2021-11-22_18h37.16.818,premceCat2_ses-02_part-02_label-phase2,2020.2.10,Win32,60,,,,,,,,,,,,,,,,0,10,10,28,1,stimuli/objects/baseballbat.jpg,left,old,29,,,,,,,,
,,,,,,,,22,2021-11-22_18h37.16.818,premceCat2_ses-02_part-02_label-phase2,2020.2.10,Win32,60,,,,,right,2.4901,3,1.4392,,,,,,,,0,11,11,62,1,stimuli/objects/pastaspoon.jpg,left,old,63,,,,,,,,
,,,,,,,,22,2021-11-22_18h37.16.818,premceCat2_ses-02_part-02_label-phase2,2020.2.10,Win32,60,,,,,right,1.2395,3,1.8051,,,,,,,,0,12,12,72,1,stimuli/objects/cclamp.jpg,right,new,73,,,,,,,,
,,,,,,,,22,2021-11-22_18h37.16.818,premceCat2_ses-02_part-02_label-phase2,2020.2.10,Win32,60,,,,,right,2.23,3,0.9651,,,,,,,,0,13,13,53,1,stimuli/objects/binoculars01b.jpg,right,new,54,,,,,,,,
,,,,,,,,22,2021-11-22_18h37.16.818,premceCat2_ses-02_part-02_label-phase2,2020.2.10,Win32,60,,,,,left,1.0632,4,0.7998,left,0.3597,0,0,0,0,1,,,,,,,,,,,,,,,,,
,,,,,,,,22,2021-11-22_18h37.16.818,premceCat2_ses-02_part-02_label-phase2,2020.2.10,Win32,60,,,,,,,,,,,,,,,,0,14,14,74,1,stimuli/objects/baseball01a.jpg,left,old,75,,,,,,,,
,,,,,,,,22,2021-11-22_18h37.16.818,premceCat2_ses-02_part-02_label-phase2,2020.2.10,Win32,60,,,,,right,1.2671,4,0.7161,,,,,,,,0,15,15,93,1,stimuli/objects/icepack.jpg,right,new,94,,,,,,,,
,,,,,,,,22,2021-11-22_18h37.16.818,premceCat2_ses-02_part-02_label-phase2,2020.2.10,Win32,60,,,,,right,3.2356,2,0.9011,,,,,,,,0,16,16,40,1,stimuli/objects/sledgehammer.jpg,left,old,41,,,,,,,,
,,,,,,,,22,2021-11-22_18h37.16.818,premceCat2_ses-02_part-02_label-phase2,2020.2.10,Win32,60,,,,,right,0.9271,3,0.4172,,,,,,,,0,17,17,121,1,stimuli/objects/ceilingspeaker.jpg,right,new,122,,,,,,,,
,,,,,,,,22,2021-11-22_18h37.16.818,premceCat2_ses-02_part-02_label-phase2,2020.2.10,Win32,60,,,,,right,1.886,3,0.8707,,,,,,,,0,18,18,35,1,stimuli/objects/phonejack.jpg,left,old,36,,,,,,,,
,,,,,,,,22,2021-11-22_18h37.16.818,premceCat2_ses-02_part-02_label-phase2,2020.2.10,Win32,60,,,,,left,1.4031,3,1.2209,left,0.2331,0,0,0,0,1,,,,,,,,,,,,,,,,,
,,,,,,,,22,2021-11-22_18h37.16.818,premceCat2_ses-02_part-02_label-phase2,2020.2.10,Win32,60,,,,,,,,,,,,,,,,0,19,19,64,1,stimuli/objects/axe01.jpg,left,old,65,,,,,,,,
,,,,,,,,22,2021-11-22_18h37.16.818,premceCat2_ses-02_part-02_label-phase2,2020.2.10,Win32,60,,,,,left,0.851,3,1.0668,left,0.5366,0,0,0,0,1,,,,,,,,,,,,,,,,,
,,,,,,,,22,2021-11-22_18h37.16.818,premceCat2_ses-02_part-02_label-phase2,2020.2.10,Win32,60,,,,,,,,,,,,,,,,0,20,20,31,1,stimuli/objects/ladder.jpg,left,old,32,,,,,,,,
,,,,,,,,22,2021-11-22_18h37.16.818,premceCat2_ses-02_part-02_label-phase2,2020.2.10,Win32,60,,,,,left,1.4901,3,0.8226,right,1.3294,0,0,0,0,1,,,,,,,,,,,,,,,,,
,,,,,,,,22,2021-11-22_18h37.16.818,premceCat2_ses-02_part-02_label-phase2,2020.2.10,Win32,60,,,,,,,,,,,,,,,,0,21,21,16,1,stimuli/objects/pressurewasher.jpg,left,old,17,,,,,,,,
,,,,,,,,22,2021-11-22_18h37.16.818,premceCat2_ses-02_part-02_label-phase2,2020.2.10,Win32,60,,,,,right,0.7579,3,0.4397,,,,,,,,0,22,22,136,1,stimuli/objects/battery02b.jpg,right,new,137,,,,,,,,
,,,,,,,,22,2021-11-22_18h37.16.818,premceCat2_ses-02_part-02_label-phase2,2020.2.10,Win32,60,,,,,left,0.9926,4,1.1662,left,3.0372,0,0,0,0,1,,,,,,,,,,,,,,,,,
,,,,,,,,22,2021-11-22_18h37.16.818,premceCat2_ses-02_part-02_label-phase2,2020.2.10,Win32,60,,,,,,,,,,,,,,,,0,23,23,122,1,stimuli/objects/atm.jpg,left,old,123,,,,,,,,
,,,,,,,,22,2021-11-22_18h37.16.818,premceCat2_ses-02_part-02_label-phase2,2020.2.10,Win32,60,,,,,right,1.8487,3,1.6689,,,,,,,,0,24,24,1,1,stimuli/objects/nintendods.jpg,left,old,2,,,,,,,,
,,,,,,,,22,2021-11-22_18h37.16.818,premceCat2_ses-02_part-02_label-phase2,2020.2.10,Win32,60,,,,,right,1.4849,4,0.4479,,,,,,,,0,25,25,18,1,stimuli/objects/cashregister01.jpg,right,new,19,,,,,,,,
,,,,,,,,22,2021-11-22_18h37.16.818,premceCat2_ses-02_part-02_label-phase2,2020.2.10,Win32,60,,,,,right,0.6952,4,0.8708,,,,,,,,0,26,26,100,1,stimuli/objects/remotecontrol04.jpg,right,new,101,,,,,,,,
,,,,,,,,22,2021-11-22_18h37.16.818,premceCat2_ses-02_part-02_label-phase2,2020.2.10,Win32,60,,,,,right,0.7778,4,0.7664,,,,,,,,0,27,27,80,1,stimuli/objects/snowman.jpg,right,new,81,,,,,,,,
,,,,,,,,22,2021-11-22_18h37.16.818,premceCat2_ses-02_part-02_label-phase2,2020.2.10,Win32,60,,,,,right,0.9505,4,0.494,,,,,,,,0,28,28,42,1,stimuli/objects/snowshoe.jpg,right,new,43,,,,,,,,
,,,,,,,,22,2021-11-22_18h37.16.818,premceCat2_ses-02_part-02_label-phase2,2020.2.10,Win32,60,,,,,right,0.9497,4,0.3542,,,,,,,,0,29,29,125,1,stimuli/objects/shoulderpad.jpg,right,new,126,,,,,,,,
,,,,,,,,22,2021-11-22_18h37.16.818,premceCat2_ses-02_part-02_label-phase2,2020.2.10,Win32,60,,,,,right,0.8473,3,1.1104,,,,,,,,0,30,30,43,1,stimuli/objects/punchingball.jpg,right,new,44,,,,,,,,
,,,,,,,,22,2021-11-22_18h37.16.818,premceCat2_ses-02_part-02_label-phase2,2020.2.10,Win32,60,,,,,left,1.4026,4,0.5821,right,1.0916,0,0,0,0,1,,,,,,,,,,,,,,,,,
,,,,,,,,22,2021-11-22_18h37.16.818,premceCat2_ses-02_part-02_label-phase2,2020.2.10,Win32,60,,,,,,,,,,,,,,,,0,31,31,89,1,stimuli/objects/ducttape.jpg,right,new,90,,,,,,,,
,,,,,,,,22,2021-11-22_18h37.16.818,premceCat2_ses-02_part-02_label-phase2,2020.2.10,Win32,60,,,,,right,0.8074,3,0.3753,,,,,,,,0,32,32,60,1,stimuli/objects/glass02a.jpg,right,new,61,,,,,,,,
,,,,,,,,22,2021-11-22_18h37.16.818,premceCat2_ses-02_part-02_label-phase2,2020.2.10,Win32,60,,,,,right,0.7377,4,0.3814,,,,,,,,0,33,33,73,1,stimuli/objects/clock01a.jpg,right,new,74,,,,,,,,
,,,,,,,,22,2021-11-22_18h37.16.818,premceCat2_ses-02_part-02_label-phase2,2020.2.10,Win32,60,,,,,right,1.6588,3,0.5418,,,,,,,,0,34,34,8,1,stimuli/objects/basketballhoop01.jpg,right,new,9,,,,,,,,
,,,,,,,,22,2021-11-22_18h37.16.818,premceCat2_ses-02_part-02_label-phase2,2020.2.10,Win32,60,,,,,left,1.2572,3,0.811,left,0.3303,0,0,0,0,1,,,,,,,,,,,,,,,,,
,,,,,,,,22,2021-11-22_18h37.16.818,premceCat2_ses-02_part-02_label-phase2,2020.2.10,Win32,60,,,,,,,,,,,,,,,,0,35,35,113,1,stimuli/objects/powercable.jpg,right,new,114,,,,,,,,
,,,,,,,,22,2021-11-22_18h37.16.818,premceCat2_ses-02_part-02_label-phase2,2020.2.10,Win32,60,,,,,right,1.265,3,1.2458,,,,,,,,0,36,36,10,1,stimuli/objects/desktopcomputer.jpg,left,old,11,,,,,,,,
,,,,,,,,22,2021-11-22_18h37.16.818,premceCat2_ses-02_part-02_label-phase2,2020.2.10,Win32,60,,,,,left,2.6796,3,1.1503,left,0.9324,0,0,0,0,1,,,,,,,,,,,,,,,,,
,,,,,,,,22,2021-11-22_18h37.16.818,premceCat2_ses-02_part-02_label-phase2,2020.2.10,Win32,60,,,,,,,,,,,,,,,,0,37,37,3,1,stimuli/objects/bowl02a.jpg,left,old,4,,,,,,,,
,,,,,,,,22,2021-11-22_18h37.16.818,premceCat2_ses-02_part-02_label-phase2,2020.2.10,Win32,60,,,,,left,1.2744,4,0.5187,left,0.4573,0,0,0,0,1,,,,,,,,,,,,,,,,,
,,,,,,,,22,2021-11-22_18h37.16.818,premceCat2_ses-02_part-02_label-phase2,2020.2.10,Win32,60,,,,,,,,,,,,,,,,0,38,38,44,1,stimuli/objects/level03a.jpg,left,old,45,,,,,,,,
,,,,,,,,22,2021-11-22_18h37.16.818,premceCat2_ses-02_part-02_label-phase2,2020.2.10,Win32,60,,,,,left,0.9311,4,0.2994,right,0.4671,0,0,0,0,1,,,,,,,,,,,,,,,,,
,,,,,,,,22,2021-11-22_18h37.16.818,premceCat2_ses-02_part-02_label-phase2,2020.2.10,Win32,60,,,,,,,,,,,,,,,,0,39,39,98,1,stimuli/objects/podium.jpg,left,old,99,,,,,,,,
,,,,,,,,22,2021-11-22_18h37.16.818,premceCat2_ses-02_part-02_label-phase2,2020.2.10,Win32,60,,,,,right,1.5577,3,0.5478,,,,,,,,0,40,40,110,1,stimuli/objects/lock03a.jpg,right,new,111,,,,,,,,
,,,,,,,,22,2021-11-22_18h37.16.818,premceCat2_ses-02_part-02_label-phase2,2020.2.10,Win32,60,,,,,right,0.8648,3,0.401,,,,,,,,0,41,41,86,1,stimuli/objects/toasteroven.jpg,right,new,87,,,,,,,,
,,,,,,,,22,2021-11-22_18h37.16.818,premceCat2_ses-02_part-02_label-phase2,2020.2.10,Win32,60,,,,,right,1.9679,3,0.5294,,,,,,,,0,42,42,99,1,stimuli/objects/gardenshears01a.jpg,left,old,100,,,,,,,,
,,,,,,,,22,2021-11-22_18h37.16.818,premceCat2_ses-02_part-02_label-phase2,2020.2.10,Win32,60,,,,,right,0.7529,4,0.4148,,,,,,,,0,43,43,94,1,stimuli/objects/electricmixer.jpg,right,new,95,,,,,,,,
,,,,,,,,22,2021-11-22_18h37.16.818,premceCat2_ses-02_part-02_label-phase2,2020.2.10,Win32,60,,,,,left,0.8486,3,0.459,right,1.618,0,0,0,0,1,,,,,,,,,,,,,,,,,
,,,,,,,,22,2021-11-22_18h37.16.818,premceCat2_ses-02_part-02_label-phase2,2020.2.10,Win32,60,,,,,,,,,,,,,,,,0,44,44,107,1,stimuli/objects/waterbottle03.jpg,left,old,108,,,,,,,,
,,,,,,,,22,2021-11-22_18h37.16.818,premceCat2_ses-02_part-02_label-phase2,2020.2.10,Win32,60,,,,,left,1.6783,4,0.2932,right,1.982,0,0,0,0,1,,,,,,,,,,,,,,,,,
,,,,,,,,22,2021-11-22_18h37.16.818,premceCat2_ses-02_part-02_label-phase2,2020.2.10,Win32,60,,,,,,,,,,,,,,,,0,45,45,61,1,stimuli/objects/weedwacker.jpg,left,old,62,,,,,,,,
,,,,,,,,22,2021-11-22_18h37.16.818,premceCat2_ses-02_part-02_label-phase2,2020.2.10,Win32,60,,,,,left,1.3211,4,1.1888,left,0.4718,0,0,0,0,1,,,,,,,,,,,,,,,,,
,,,,,,,,22,2021-11-22_18h37.16.818,premceCat2_ses-02_part-02_label-phase2,2020.2.10,Win32,60,,,,,,,,,,,,,,,,0,46,46,52,1,stimuli/objects/cookiecutter.jpg,left,old,53,,,,,,,,
,,,,,,,,22,2021-11-22_18h37.16.818,premceCat2_ses-02_part-02_label-phase2,2020.2.10,Win32,60,,,,,right,1.731,2,0.7147,,,,,,,,0,47,47,29,1,stimuli/objects/djmixer02.jpg,left,old,30,,,,,,,,
,,,,,,,,22,2021-11-22_18h37.16.818,premceCat2_ses-02_part-02_label-phase2,2020.2.10,Win32,60,,,,,left,1.5551,3,0.285,right,0.7985,0,0,0,0,1,,,,,,,,,,,,,,,,,
,,,,,,,,22,2021-11-22_18h37.16.818,premceCat2_ses-02_part-02_label-phase2,2020.2.10,Win32,60,,,,,,,,,,,,,,,,0,48,48,11,1,stimuli/objects/usbkey.jpg,left,old,12,,,,,,,,
,,,,,,,,22,2021-11-22_18h37.16.818,premceCat2_ses-02_part-02_label-phase2,2020.2.10,Win32,60,,,,,left,1.0075,4,0.2241,right,0.999,0,0,0,0,1,,,,,,,,,,,,,,,,,
,,,,,,,,22,2021-11-22_18h37.16.818,premceCat2_ses-02_part-02_label-phase2,2020.2.10,Win32,60,,,,,,,,,,,,,,,,0,49,49,88,1,stimuli/objects/cork02.jpg,left,old,89,,,,,,,,
,,,,,,,,22,2021-11-22_18h37.16.818,premceCat2_ses-02_part-02_label-phase2,2020.2.10,Win32,60,,,,,right,1.4035,4,0.7438,,,,,,,,0,50,50,82,1,stimuli/objects/snowbrush.jpg,right,new,83,,,,,,,,
,,,,,,,,22,2021-11-22_18h37.16.818,premceCat2_ses-02_part-02_label-phase2,2020.2.10,Win32,60,,,,,right,1.743,3,0.3487,,,,,,,,0,51,51,139,1,stimuli/objects/frisbee.jpg,right,new,140,,,,,,,,
,,,,,,,,22,2021-11-22_18h37.16.818,premceCat2_ses-02_part-02_label-phase2,2020.2.10,Win32,60,,,,,right,0.9636,4,0.3161,,,,,,,,0,52,52,131,1,stimuli/objects/spotlight.jpg,right,new,132,,,,,,,,
,,,,,,,,22,2021-11-22_18h37.16.818,premceCat2_ses-02_part-02_label-phase2,2020.2.10,Win32,60,,,,,right,0.8974,2,0.3327,,,,,,,,0,53,53,9,1,stimuli/objects/measuringtape01.jpg,right,new,10,,,,,,,,
,,,,,,,,22,2021-11-22_18h37.16.818,premceCat2_ses-02_part-02_label-phase2,2020.2.10,Win32,60,,,,,left,0.923,4,0.2829,right,4.8814,0,0,0,0,1,,,,,,,,,,,,,,,,,
,,,,,,,,22,2021-11-22_18h37.16.818,premceCat2_ses-02_part-02_label-phase2,2020.2.10,Win32,60,,,,,,,,,,,,,,,,0,54,54,70,1,stimuli/objects/hourglass.jpg,left,old,71,,,,,,,,
,,,,,,,,22,2021-11-22_18h37.16.818,premceCat2_ses-02_part-02_label-phase2,2020.2.10,Win32,60,,,,,right,1.5884,2,0.2498,,,,,,,,0,55,55,106,1,stimuli/objects/minifridge.jpg,right,new,107,,,,,,,,
,,,,,,,,22,2021-11-22_18h37.16.818,premceCat2_ses-02_part-02_label-phase2,2020.2.10,Win32,60,,,,,right,1.1263,3,0.5586,,,,,,,,0,56,56,54,1,stimuli/objects/pda.jpg,right,new,55,,,,,,,,
,,,,,,,,22,2021-11-22_18h37.16.818,premceCat2_ses-02_part-02_label-phase2,2020.2.10,Win32,60,,,,,right,1.1935,3,0.2638,,,,,,,,0,57,57,138,1,stimuli/objects/taperecorder.jpg,right,new,139,,,,,,,,
,,,,,,,,22,2021-11-22_18h37.16.818,premceCat2_ses-02_part-02_label-phase2,2020.2.10,Win32,60,,,,,left,2.7183,3,0.5595,left,0.9193,0,0,0,0,1,,,,,,,,,,,,,,,,,
,,,,,,,,22,2021-11-22_18h37.16.818,premceCat2_ses-02_part-02_label-phase2,2020.2.10,Win32,60,,,,,,,,,,,,,,,,0,58,58,85,1,stimuli/objects/golfball.jpg,right,new,86,,,,,,,,
,,,,,,,,22,2021-11-22_18h37.16.818,premceCat2_ses-02_part-02_label-phase2,2020.2.10,Win32,60,,,,,left,0.9727,4,0.2327,left,0.3304,0,0,0,0,1,,,,,,,,,,,,,,,,,
,,,,,,,,22,2021-11-22_18h37.16.818,premceCat2_ses-02_part-02_label-phase2,2020.2.10,Win32,60,,,,,,,,,,,,,,,,0,59,59,127,1,stimuli/objects/hockeygoaliepad.jpg,left,old,128,,,,,,,,
,,,,,,,,22,2021-11-22_18h37.16.818,premceCat2_ses-02_part-02_label-phase2,2020.2.10,Win32,60,,,,,left,1.5392,4,0.3493,left,0.581,0,0,0,0,1,,,,,,,,,,,,,,,,,
,,,,,,,,22,2021-11-22_18h37.16.818,premceCat2_ses-02_part-02_label-phase2,2020.2.10,Win32,60,,,,,,,,,,,,,,,,0,60,60,124,1,stimuli/objects/bikepump01.jpg,left,old,125,,,,,,,,
,,,,,,,,22,2021-11-22_18h37.16.818,premceCat2_ses-02_part-02_label-phase2,2020.2.10,Win32,60,,,,,right,1.6039,3,0.2343,,,,,,,,0,61,61,130,1,stimuli/objects/bikewheel.jpg,left,old,131,,,,,,,,
,,,,,,,,22,2021-11-22_18h37.16.818,premceCat2_ses-02_part-02_label-phase2,2020.2.10,Win32,60,,,,,right,0.6825,4,0.3055,,,,,,,,0,62,62,14,1,stimuli/objects/aircompressor.jpg,left,old,15,,,,,,,,
,,,,,,,,22,2021-11-22_18h37.16.818,premceCat2_ses-02_part-02_label-phase2,2020.2.10,Win32,60,,,,,left,0.9237,4,0.2559,right,0.6882,0,0,0,0,1,,,,,,,,,,,,,,,,,
,,,,,,,,22,2021-11-22_18h37.16.818,premceCat2_ses-02_part-02_label-phase2,2020.2.10,Win32,60,,,,,,,,,,,,,,,,0,63,63,123,1,stimuli/objects/cowbell.jpg,left,old,124,,,,,,,,
,,,,,,,,22,2021-11-22_18h37.16.818,premceCat2_ses-02_part-02_label-phase2,2020.2.10,Win32,60,,,,,left,1.1563,4,0.2714,right,0.4465,0,0,0,0,1,,,,,,,,,,,,,,,,,
,,,,,,,,22,2021-11-22_18h37.16.818,premceCat2_ses-02_part-02_label-phase2,2020.2.10,Win32,60,,,,,,,,,,,,,,,,0,64,64,0,1,stimuli/objects/electricoutlet.jpg,left,old,1,,,,,,,,
,,,,,,,,22,2021-11-22_18h37.16.818,premceCat2_ses-02_part-02_label-phase2,2020.2.10,Win32,60,,,,,right,4.0867,2,0.3462,,,,,,,,0,65,65,45,1,stimuli/objects/measuringcup01.jpg,left,old,46,,,,,,,,
,,,,,,,,22,2021-11-22_18h37.16.818,premceCat2_ses-02_part-02_label-phase2,2020.2.10,Win32,60,,,,,left,0.8368,4,0.6487,left,0.3416,0,0,0,0,1,,,,,,,,,,,,,,,,,
,,,,,,,,22,2021-11-22_18h37.16.818,premceCat2_ses-02_part-02_label-phase2,2020.2.10,Win32,60,,,,,,,,,,,,,,,,0,66,66,137,1,stimuli/objects/iceskate.jpg,left,old,138,,,,,,,,
,,,,,,,,22,2021-11-22_18h37.16.818,premceCat2_ses-02_part-02_label-phase2,2020.2.10,Win32,60,,,,,right,1.763,3,0.3301,,,,,,,,0,67,67,81,1,stimuli/objects/avcable.jpg,right,new,82,,,,,,,,
,,,,,,,,22,2021-11-22_18h37.16.818,premceCat2_ses-02_part-02_label-phase2,2020.2.10,Win32,60,,,,,left,0.9131,4,0.31,left,0.3125,0,0,0,0,1,,,,,,,,,,,,,,,,,
,,,,,,,,22,2021-11-22_18h37.16.818,premceCat2_ses-02_part-02_label-phase2,2020.2.10,Win32,60,,,,,,,,,,,,,,,,0,68,68,15,1,stimuli/objects/spicerack.jpg,left,old,16,,,,,,,,
,,,,,,,,22,2021-11-22_18h37.16.818,premceCat2_ses-02_part-02_label-phase2,2020.2.10,Win32,60,,,,,right,0.9517,2,0.3348,,,,,,,,0,69,69,7,1,stimuli/objects/jigsaw.jpg,left,old,8,,,,,,,,
,,,,,,,,22,2021-11-22_18h37.16.818,premceCat2_ses-02_part-02_label-phase2,2020.2.10,Win32,60,,,,,right,1.8306,2,0.2392,,,,,,,,0,70,70,24,1,stimuli/objects/skateboard.jpg,right,new,25,,,,,,,,
,,,,,,,,22,2021-11-22_18h37.16.818,premceCat2_ses-02_part-02_label-phase2,2020.2.10,Win32,60,,,,,right,0.8593,2,6.3612,,,,,,,,0,71,71,79,1,stimuli/objects/wire.jpg,left,old,80,,,,,,,,
,,,,,,,,22,2021-11-22_18h37.16.818,premceCat2_ses-02_part-02_label-phase2,2020.2.10,Win32,60,,,,,right,0.9773,3,0.692,,,,,,,,0,72,72,63,1,stimuli/objects/butterdish.jpg,right,new,64,,,,,,,,
,,,,,,,,22,2021-11-22_18h37.16.818,premceCat2_ses-02_part-02_label-phase2,2020.2.10,Win32,60,,,,,right,1.1743,3,0.3063,,,,,,,,0,73,73,83,1,stimuli/objects/kitchenscale01a.jpg,right,new,84,,,,,,,,
,,,,,,,,22,2021-11-22_18h37.16.818,premceCat2_ses-02_part-02_label-phase2,2020.2.10,Win32,60,,,,,right,0.8294,4,0.3043,,,,,,,,0,74,74,109,1,stimuli/objects/winerack.jpg,right,new,110,,,,,,,,
,,,,,,,,22,2021-11-22_18h37.16.818,premceCat2_ses-02_part-02_label-phase2,2020.2.10,Win32,60,,,,,right,0.9121,3,0.5008,,,,,,,,0,75,75,41,1,stimuli/objects/pylon01.jpg,right,new,42,,,,,,,,
,,,,,,,,22,2021-11-22_18h37.16.818,premceCat2_ses-02_part-02_label-phase2,2020.2.10,Win32,60,,,,,right,0.7474,4,0.3096,,,,,,,,0,76,76,36,1,stimuli/objects/antenna.jpg,left,old,37,,,,,,,,
,,,,,,,,22,2021-11-22_18h37.16.818,premceCat2_ses-02_part-02_label-phase2,2020.2.10,Win32,60,,,,,right,0.9743,3,1.257,,,,,,,,0,77,77,111,1,stimuli/objects/speaker04.jpg,right,new,112,,,,,,,,
,,,,,,,,22,2021-11-22_18h37.16.818,premceCat2_ses-02_part-02_label-phase2,2020.2.10,Win32,60,,,,,left,1.2786,2,1.2862,right,1.9274,0,0,0,0,1,,,,,,,,,,,,,,,,,
,,,,,,,,22,2021-11-22_18h37.16.818,premceCat2_ses-02_part-02_label-phase2,2020.2.10,Win32,60,,,,,,,,,,,,,,,,0,78,78,103,1,stimuli/objects/oven.jpg,left,old,104,,,,,,,,
,,,,,,,,22,2021-11-22_18h37.16.818,premceCat2_ses-02_part-02_label-phase2,2020.2.10,Win32,60,,,,,right,0.7754,4,0.2746,,,,,,,,0,79,79,112,1,stimuli/objects/gymnasticring.jpg,right,new,113,,,,,,,,
,,,,,,,,22,2021-11-22_18h37.16.818,premceCat2_ses-02_part-02_label-phase2,2020.2.10,Win32,60,,,,,right,1.5064,3,0.3338,,,,,,,,0,80,80,119,1,stimuli/objects/tongs01b.jpg,right,new,120,,,,,,,,
,,,,,,,,22,2021-11-22_18h37.16.818,premceCat2_ses-02_part-02_label-phase2,2020.2.10,Win32,60,,,,,right,1.4002,3,0.1327,,,,,,,,0,81,81,4,1,stimuli/objects/microphone01.jpg,right,new,5,,,,,,,,
,,,,,,,,22,2021-11-22_18h37.16.818,premceCat2_ses-02_part-02_label-phase2,2020.2.10,Win32,60,,,,,right,1.1749,2,0.2323,,,,,,,,0,82,82,13,1,stimuli/objects/bastingbrush.jpg,right,new,14,,,,,,,,
,,,,,,,,22,2021-11-22_18h37.16.818,premceCat2_ses-02_part-02_label-phase2,2020.2.10,Win32,60,,,,,right,1.0924,3,0.2932,,,,,,,,0,83,83,59,1,stimuli/objects/studiolight.jpg,right,new,60,,,,,,,,
,,,,,,,,22,2021-11-22_18h37.16.818,premceCat2_ses-02_part-02_label-phase2,2020.2.10,Win32,60,,,,,right,0.9031,3,0.4942,,,,,,,,0,84,84,108,1,stimuli/objects/metalscissors.jpg,right,new,109,,,,,,,,
,,,,,,,,22,2021-11-22_18h37.16.818,premceCat2_ses-02_part-02_label-phase2,2020.2.10,Win32,60,,,,,right,0.7679,3,0.2655,,,,,,,,0,85,85,39,1,stimuli/objects/sippycup.jpg,right,new,40,,,,,,,,
,,,,,,,,22,2021-11-22_18h37.16.818,premceCat2_ses-02_part-02_label-phase2,2020.2.10,Win32,60,,,,,right,1.2281,4,0.5668,,,,,,,,0,86,86,126,1,stimuli/objects/tableknife02.jpg,right,new,127,,,,,,,,
,,,,,,,,22,2021-11-22_18h37.16.818,premceCat2_ses-02_part-02_label-phase2,2020.2.10,Win32,60,,,,,right,1.117,4,0.2399,,,,,,,,0,87,87,20,1,stimuli/objects/laptop01a.jpg,right,new,21,,,,,,,,
,,,,,,,,22,2021-11-22_18h37.16.818,premceCat2_ses-02_part-02_label-phase2,2020.2.10,Win32,60,,,,,right,0.9288,3,1.3415,,,,,,,,0,88,88,117,1,stimuli/objects/videotape01b.jpg,right,new,118,,,,,,,,
,,,,,,,,22,2021-11-22_18h37.16.818,premceCat2_ses-02_part-02_label-phase2,2020.2.10,Win32,60,,,,,left,1.0417,4,0.2983,right,0.7543,0,0,0,0,1,,,,,,,,,,,,,,,,,
,,,,,,,,22,2021-11-22_18h37.16.818,premceCat2_ses-02_part-02_label-phase2,2020.2.10,Win32,60,,,,,,,,,,,,,,,,0,89,89,2,1,stimuli/objects/dvdcase01.jpg,left,old,3,,,,,,,,
,,,,,,,,22,2021-11-22_18h37.16.818,premceCat2_ses-02_part-02_label-phase2,2020.2.10,Win32,60,,,,,left,1.1948,3,0.3502,left,0.3378,0,0,0,0,1,,,,,,,,,,,,,,,,,
,,,,,,,,22,2021-11-22_18h37.16.818,premceCat2_ses-02_part-02_label-phase2,2020.2.10,Win32,60,,,,,,,,,,,,,,,,0,90,90,5,1,stimuli/objects/lamp04a.jpg,left,old,6,,,,,,,,
,,,,,,,,22,2021-11-22_18h37.16.818,premceCat2_ses-02_part-02_label-phase2,2020.2.10,Win32,60,,,,,left,1.1742,3,0.5859,left,0.2807,0,0,0,0,1,,,,,,,,,,,,,,,,,
,,,,,,,,22,2021-11-22_18h37.16.818,premceCat2_ses-02_part-02_label-phase2,2020.2.10,Win32,60,,,,,,,,,,,,,,,,0,91,91,84,1,stimuli/objects/catchermask.jpg,left,old,85,,,,,,,,
,,,,,,,,22,2021-11-22_18h37.16.818,premceCat2_ses-02_part-02_label-phase2,2020.2.10,Win32,60,,,,,right,2.3379,2,1.424,,,,,,,,0,92,92,78,1,stimuli/objects/handmixer01d.jpg,left,old,79,,,,,,,,
,,,,,,,,22,2021-11-22_18h37.16.818,premceCat2_ses-02_part-02_label-phase2,2020.2.10,Win32,60,,,,,right,0.8069,4,0.2019,,,,,,,,0,93,93,51,1,stimuli/objects/webcam.jpg,right,new,52,,,,,,,,
,,,,,,,,22,2021-11-22_18h37.16.818,premceCat2_ses-02_part-02_label-phase2,2020.2.10,Win32,60,,,,,right,1.104,3,0.2275,,,,,,,,0,94,94,92,1,stimuli/objects/carjack.jpg,right,new,93,,,,,,,,
,,,,,,,,22,2021-11-22_18h37.16.818,premceCat2_ses-02_part-02_label-phase2,2020.2.10,Win32,60,,,,,right,1.156,2,2.8989,,,,,,,,0,95,95,25,1,stimuli/objects/bowlingball.jpg,right,new,26,,,,,,,,
,,,,,,,,22,2021-11-22_18h37.16.818,premceCat2_ses-02_part-02_label-phase2,2020.2.10,Win32,60,,,,,right,0.8896,3,0.2656,,,,,,,,0,96,96,71,1,stimuli/objects/faxmachine.jpg,right,new,72,,,,,,,,
,,,,,,,,22,2021-11-22_18h37.16.818,premceCat2_ses-02_part-02_label-phase2,2020.2.10,Win32,60,,,,,right,1.0424,3,0.2558,,,,,,,,0,97,97,50,1,stimuli/objects/chisel02b.jpg,right,new,51,,,,,,,,
,,,,,,,,22,2021-11-22_18h37.16.818,premceCat2_ses-02_part-02_label-phase2,2020.2.10,Win32,60,,,,,left,0.8106,4,0.2754,left,0.3203,0,0,0,0,1,,,,,,,,,,,,,,,,,
,,,,,,,,22,2021-11-22_18h37.16.818,premceCat2_ses-02_part-02_label-phase2,2020.2.10,Win32,60,,,,,,,,,,,,,,,,0,98,98,34,1,stimuli/objects/treadmill.jpg,left,old,35,,,,,,,,
,,,,,,,,22,2021-11-22_18h37.16.818,premceCat2_ses-02_part-02_label-phase2,2020.2.10,Win32,60,,,,,left,0.9609,4,0.1968,right,0.2356,0,0,0,0,1,,,,,,,,,,,,,,,,,
,,,,,,,,22,2021-11-22_18h37.16.818,premceCat2_ses-02_part-02_label-phase2,2020.2.10,Win32,60,,,,,,,,,,,,,,,,0,99,99,67,1,stimuli/objects/cooler01.jpg,left,old,68,,,,,,,,
,,,,,,,,22,2021-11-22_18h37.16.818,premceCat2_ses-02_part-02_label-phase2,2020.2.10,Win32,60,,,,,left,0.8974,4,0.3843,left,0.5707,0,0,0,0,1,,,,,,,,,,,,,,,,,
,,,,,,,,22,2021-11-22_18h37.16.818,premceCat2_ses-02_part-02_label-phase2,2020.2.10,Win32,60,,,,,,,,,,,,,,,,0,100,100,69,1,stimuli/objects/cellphone.jpg,left,old,70,,,,,,,,
,,,,,,,,22,2021-11-22_18h37.16.818,premceCat2_ses-02_part-02_label-phase2,2020.2.10,Win32,60,,,,,right,0.7713,3,0.241,,,,,,,,0,101,101,12,1,stimuli/objects/garlicpress02a.jpg,right,new,13,,,,,,,,
,,,,,,,,22,2021-11-22_18h37.16.818,premceCat2_ses-02_part-02_label-phase2,2020.2.10,Win32,60,,,,,left,1.6504,4,0.4715,left,0.219,0,0,0,0,1,,,,,,,,,,,,,,,,,
,,,,,,,,22,2021-11-22_18h37.16.818,premceCat2_ses-02_part-02_label-phase2,2020.2.10,Win32,60,,,,,,,,,,,,,,,,0,102,102,23,1,stimuli/objects/football.jpg,right,new,24,,,,,,,,
,,,,,,,,22,2021-11-22_18h37.16.818,premceCat2_ses-02_part-02_label-phase2,2020.2.10,Win32,60,,,,,left,0.9786,4,0.1839,left,1.5859,0,0,0,0,1,,,,,,,,,,,,,,,,,
,,,,,,,,22,2021-11-22_18h37.16.818,premceCat2_ses-02_part-02_label-phase2,2020.2.10,Win32,60,,,,,,,,,,,,,,,,0,103,103,114,1,stimuli/objects/espressomachine.jpg,left,old,115,,,,,,,,
,,,,,,,,22,2021-11-22_18h37.16.818,premceCat2_ses-02_part-02_label-phase2,2020.2.10,Win32,60,,,,,right,0.8914,3,0.2016,,,,,,,,0,104,104,87,1,stimuli/objects/dvdplayer.jpg,left,old,88,,,,,,,,
,,,,,,,,22,2021-11-22_18h37.16.818,premceCat2_ses-02_part-02_label-phase2,2020.2.10,Win32,60,,,,,right,2.7031,3,0.1344,,,,,,,,0,105,105,30,1,stimuli/objects/printer02.jpg,right,new,31,,,,,,,,
,,,,,,,,22,2021-11-22_18h37.16.818,premceCat2_ses-02_part-02_label-phase2,2020.2.10,Win32,60,,,,,left,0.7554,4,0.1915,left,0.1911,0,0,0,0,1,,,,,,,,,,,,,,,,,
,,,,,,,,22,2021-11-22_18h37.16.818,premceCat2_ses-02_part-02_label-phase2,2020.2.10,Win32,60,,,,,,,,,,,,,,,,0,106,106,142,1,stimuli/objects/funnel.jpg,left,old,143,,,,,,,,
,,,,,,,,22,2021-11-22_18h37.16.818,premceCat2_ses-02_part-02_label-phase2,2020.2.10,Win32,60,,,,,right,0.9288,4,0.1796,,,,,,,,0,107,107,22,1,stimuli/objects/umbrella04.jpg,right,new,23,,,,,,,,
,,,,,,,,22,2021-11-22_18h37.16.818,premceCat2_ses-02_part-02_label-phase2,2020.2.10,Win32,60,,,,,right,1.4076,3,0.1699,,,,,,,,0,108,108,33,1,stimuli/objects/microwave.jpg,right,new,34,,,,,,,,
,,,,,,,,22,2021-11-22_18h37.16.818,premceCat2_ses-02_part-02_label-phase2,2020.2.10,Win32,60,,,,,left,0.8988,3,0.2032,left,1.1326,0,0,0,0,1,,,,,,,,,,,,,,,,,
,,,,,,,,22,2021-11-22_18h37.16.818,premceCat2_ses-02_part-02_label-phase2,2020.2.10,Win32,60,,,,,,,,,,,,,,,,0,109,109,58,1,stimuli/objects/rope03.jpg,left,old,59,,,,,,,,
,,,,,,,,22,2021-11-22_18h37.16.818,premceCat2_ses-02_part-02_label-phase2,2020.2.10,Win32,60,,,,,left,1.6284,4,0.1554,right,0.2062,0,0,0,0,1,,,,,,,,,,,,,,,,,
,,,,,,,,22,2021-11-22_18h37.16.818,premceCat2_ses-02_part-02_label-phase2,2020.2.10,Win32,60,,,,,,,,,,,,,,,,0,110,110,140,1,stimuli/objects/anchor.jpg,left,old,141,,,,,,,,
,,,,,,,,22,2021-11-22_18h37.16.818,premceCat2_ses-02_part-02_label-phase2,2020.2.10,Win32,60,,,,,right,1.1886,3,0.3148,,,,,,,,0,111,111,91,1,stimuli/objects/snowblower.jpg,left,old,92,,,,,,,,
,,,,,,,,22,2021-11-22_18h37.16.818,premceCat2_ses-02_part-02_label-phase2,2020.2.10,Win32,60,,,,,right,0.8907,4,0.1982,,,,,,,,0,112,112,116,1,stimuli/objects/radio01.jpg,right,new,117,,,,,,,,
,,,,,,,,22,2021-11-22_18h37.16.818,premceCat2_ses-02_part-02_label-phase2,2020.2.10,Win32,60,,,,,left,0.9408,4,0.1646,left,0.1941,0,0,0,0,1,,,,,,,,,,,,,,,,,
,,,,,,,,22,2021-11-22_18h37.16.818,premceCat2_ses-02_part-02_label-phase2,2020.2.10,Win32,60,,,,,,,,,,,,,,,,0,113,113,120,1,stimuli/objects/martiniglass01b.jpg,left,old,121,,,,,,,,
,,,,,,,,22,2021-11-22_18h37.16.818,premceCat2_ses-02_part-02_label-phase2,2020.2.10,Win32,60,,,,,right,1.4705,3,0.1663,,,,,,,,0,114,114,133,1,stimuli/objects/icebucket.jpg,right,new,134,,,,,,,,
,,,,,,,,22,2021-11-22_18h37.16.818,premceCat2_ses-02_part-02_label-phase2,2020.2.10,Win32,60,,,,,right,1.0496,2,0.6838,,,,,,,,0,115,115,76,1,stimuli/objects/megaphone.jpg,right,new,77,,,,,,,,
,,,,,,,,22,2021-11-22_18h37.16.818,premceCat2_ses-02_part-02_label-phase2,2020.2.10,Win32,60,,,,,right,0.7082,3,0.3514,,,,,,,,0,116,116,90,1,stimuli/objects/carlighter02.jpg,right,new,91,,,,,,,,
,,,,,,,,22,2021-11-22_18h37.16.818,premceCat2_ses-02_part-02_label-phase2,2020.2.10,Win32,60,,,,,right,0.9048,3,0.1625,,,,,,,,0,117,117,66,1,stimuli/objects/nailgun.jpg,right,new,67,,,,,,,,
,,,,,,,,22,2021-11-22_18h37.16.818,premceCat2_ses-02_part-02_label-phase2,2020.2.10,Win32,60,,,,,right,0.8784,2,1.3415,,,,,,,,0,118,118,26,1,stimuli/objects/boogieboard.jpg,right,new,27,,,,,,,,
,,,,,,,,22,2021-11-22_18h37.16.818,premceCat2_ses-02_part-02_label-phase2,2020.2.10,Win32,60,,,,,left,1.2175,4,0.649,left,0.2162,0,0,0,0,1,,,,,,,,,,,,,,,,,
,,,,,,,,22,2021-11-22_18h37.16.818,premceCat2_ses-02_part-02_label-phase2,2020.2.10,Win32,60,,,,,,,,,,,,,,,,0,119,119,27,1,stimuli/objects/downhillski.jpg,left,old,28,,,,,,,,
,,,,,,,,22,2021-11-22_18h37.16.818,premceCat2_ses-02_part-02_label-phase2,2020.2.10,Win32,60,,,,,left,0.9903,4,0.3078,right,0.3488,0,0,0,0,1,,,,,,,,,,,,,,,,,
,,,,,,,,22,2021-11-22_18h37.16.818,premceCat2_ses-02_part-02_label-phase2,2020.2.10,Win32,60,,,,,,,,,,,,,,,,0,120,120,115,1,stimuli/objects/boltcutter.jpg,left,old,116,,,,,,,,
,,,,,,,,22,2021-11-22_18h37.16.818,premceCat2_ses-02_part-02_label-phase2,2020.2.10,Win32,60,,,,,left,0.9163,4,0.208,right,0.189,0,0,0,0,1,,,,,,,,,,,,,,,,,
,,,,,,,,22,2021-11-22_18h37.16.818,premceCat2_ses-02_part-02_label-phase2,2020.2.10,Win32,60,,,,,,,,,,,,,,,,0,121,121,37,1,stimuli/objects/setsquare.jpg,left,old,38,,,,,,,,
,,,,,,,,22,2021-11-22_18h37.16.818,premceCat2_ses-02_part-02_label-phase2,2020.2.10,Win32,60,,,,,left,0.992,4,0.2354,right,0.3963,0,0,0,0,1,,,,,,,,,,,,,,,,,
,,,,,,,,22,2021-11-22_18h37.16.818,premceCat2_ses-02_part-02_label-phase2,2020.2.10,Win32,60,,,,,,,,,,,,,,,,0,122,122,95,1,stimuli/objects/lectern01.jpg,left,old,96,,,,,,,,
,,,,,,,,22,2021-11-22_18h37.16.818,premceCat2_ses-02_part-02_label-phase2,2020.2.10,Win32,60,,,,,right,1.4337,3,0.2986,,,,,,,,0,123,123,118,1,stimuli/objects/toyhardhat.jpg,left,old,119,,,,,,,,
,,,,,,,,22,2021-11-22_18h37.16.818,premceCat2_ses-02_part-02_label-phase2,2020.2.10,Win32,60,,,,,right,1.1506,3,0.1591,,,,,,,,0,124,124,75,1,stimuli/objects/stepladder.jpg,right,new,76,,,,,,,,
,,,,,,,,22,2021-11-22_18h37.16.818,premceCat2_ses-02_part-02_label-phase2,2020.2.10,Win32,60,,,,,right,1.0625,3,0.1484,,,,,,,,0,125,125,57,1,stimuli/objects/audiocablesplitter.jpg,right,new,58,,,,,,,,
,,,,,,,,22,2021-11-22_18h37.16.818,premceCat2_ses-02_part-02_label-phase2,2020.2.10,Win32,60,,,,,right,0.6981,3,0.2203,,,,,,,,0,126,126,134,1,stimuli/objects/screwdriver04b.jpg,right,new,135,,,,,,,,
,,,,,,,,22,2021-11-22_18h37.16.818,premceCat2_ses-02_part-02_label-phase2,2020.2.10,Win32,60,,,,,right,0.7836,3,0.4413,,,,,,,,0,127,127,128,1,stimuli/objects/tripod01.jpg,right,new,129,,,,,,,,
,,,,,,,,22,2021-11-22_18h37.16.818,premceCat2_ses-02_part-02_label-phase2,2020.2.10,Win32,60,,,,,right,1.1246,3,0.2222,,,,,,,,0,128,128,77,1,stimuli/objects/photocopier.jpg,left,old,78,,,,,,,,
,,,,,,,,22,2021-11-22_18h37.16.818,premceCat2_ses-02_part-02_label-phase2,2020.2.10,Win32,60,,,,,left,0.8687,4,0.2047,left,0.2231,0,0,0,0,1,,,,,,,,,,,,,,,,,
,,,,,,,,22,2021-11-22_18h37.16.818,premceCat2_ses-02_part-02_label-phase2,2020.2.10,Win32,60,,,,,,,,,,,,,,,,0,129,129,49,1,stimuli/objects/canoepaddle02.jpg,left,old,50,,,,,,,,
,,,,,,,,22,2021-11-22_18h37.16.818,premceCat2_ses-02_part-02_label-phase2,2020.2.10,Win32,60,,,,,left,1.9257,3,3.4071,left,0.3253,0,0,0,0,1,,,,,,,,,,,,,,,,,
,,,,,,,,22,2021-11-22_18h37.16.818,premceCat2_ses-02_part-02_label-phase2,2020.2.10,Win32,60,,,,,,,,,,,,,,,,0,130,130,96,1,stimuli/objects/golfbag.jpg,right,new,97,,,,,,,,
,,,,,,,,22,2021-11-22_18h37.16.818,premceCat2_ses-02_part-02_label-phase2,2020.2.10,Win32,60,,,,,right,0.7223,4,0.1365,,,,,,,,0,131,131,17,1,stimuli/objects/exercisebench.jpg,right,new,18,,,,,,,,
,,,,,,,,22,2021-11-22_18h37.16.818,premceCat2_ses-02_part-02_label-phase2,2020.2.10,Win32,60,,,,,right,1.3915,3,0.3142,,,,,,,,0,132,132,6,1,stimuli/objects/saladspinner.jpg,left,old,7,,,,,,,,
,,,,,,,,22,2021-11-22_18h37.16.818,premceCat2_ses-02_part-02_label-phase2,2020.2.10,Win32,60,,,,,right,1.1765,4,0.1354,,,,,,,,0,133,133,48,1,stimuli/objects/woodenspoon.jpg,left,old,49,,,,,,,,
,,,,,,,,22,2021-11-22_18h37.16.818,premceCat2_ses-02_part-02_label-phase2,2020.2.10,Win32,60,,,,,left,0.857,3,0.1659,left,2.175,0,0,0,0,1,,,,,,,,,,,,,,,,,
,,,,,,,,22,2021-11-22_18h37.16.818,premceCat2_ses-02_part-02_label-phase2,2020.2.10,Win32,60,,,,,,,,,,,,,,,,0,134,134,56,1,stimuli/objects/cookingpot.jpg,left,old,57,,,,,,,,
,,,,,,,,22,2021-11-22_18h37.16.818,premceCat2_ses-02_part-02_label-phase2,2020.2.10,Win32,60,,,,,right,0.7578,4,0.1692,,,,,,,,0,135,135,141,1,stimuli/objects/generator.jpg,right,new,142,,,,,,,,
,,,,,,,,22,2021-11-22_18h37.16.818,premceCat2_ses-02_part-02_label-phase2,2020.2.10,Win32,60,,,,,right,0.8742,3,0.2232,,,,,,,,0,136,136,55,1,stimuli/objects/toolbox02.jpg,right,new,56,,,,,,,,
,,,,,,,,22,2021-11-22_18h37.16.818,premceCat2_ses-02_part-02_label-phase2,2020.2.10,Win32,60,,,,,right,1.1252,4,0.2162,,,,,,,,0,137,137,19,1,stimuli/objects/peppermill02b.jpg,right,new,20,,,,,,,,
,,,,,,,,22,2021-11-22_18h37.16.818,premceCat2_ses-02_part-02_label-phase2,2020.2.10,Win32,60,,,,,left,2.8231,2,0.1645,right,1.6657,0,0,0,0,1,,,,,,,,,,,,,,,,,
,,,,,,,,22,2021-11-22_18h37.16.818,premceCat2_ses-02_part-02_label-phase2,2020.2.10,Win32,60,,,,,,,,,,,,,,,,0,138,138,105,1,stimuli/objects/fanblades.jpg,left,old,106,,,,,,,,
,,,,,,,,22,2021-11-22_18h37.16.818,premceCat2_ses-02_part-02_label-phase2,2020.2.10,Win32,60,,,,,right,1.4242,4,0.8326,,,,,,,,0,139,139,38,1,stimuli/objects/soundmixer.jpg,right,new,39,,,,,,,,
,,,,,,,,22,2021-11-22_18h37.16.818,premceCat2_ses-02_part-02_label-phase2,2020.2.10,Win32,60,,,,,left,0.8279,4,0.163,right,0.999,0,0,0,0,1,,,,,,,,,,,,,,,,,
,,,,,,,,22,2021-11-22_18h37.16.818,premceCat2_ses-02_part-02_label-phase2,2020.2.10,Win32,60,,,,,,,,,,,,,,,,0,140,140,65,1,stimuli/objects/pipewrench.jpg,left,old,66,,,,,,,,
,,,,,,,,22,2021-11-22_18h37.16.818,premceCat2_ses-02_part-02_label-phase2,2020.2.10,Win32,60,,,,,right,1.6002,4,0.249,,,,,,,,0,141,141,32,1,stimuli/objects/mitresaw.jpg,right,new,33,,,,,,,,
,,,,,,,,22,2021-11-22_18h37.16.818,premceCat2_ses-02_part-02_label-phase2,2020.2.10,Win32,60,,,,,left,1.1266,3,0.1343,left,1.3098,0,0,0,0,1,,,,,,,,,,,,,,,,,
,,,,,,,,22,2021-11-22_18h37.16.818,premceCat2_ses-02_part-02_label-phase2,2020.2.10,Win32,60,,,,,,,,,,,,,,,,0,142,142,21,1,stimuli/objects/paintbrush01.jpg,right,new,22,,,,,,,,
,,,,,,,,22,2021-11-22_18h37.16.818,premceCat2_ses-02_part-02_label-phase2,2020.2.10,Win32,60,,,,,,,,,,,,,,,,,,,,,,,,,space,12.7891,0,0,0,0,1,condition_files/ImagesforRecog3_1.csv
,,,,,,,,22,2021-11-22_18h37.16.818,premceCat2_ses-02_part-02_label-phase2,2020.2.10,Win32,60,,,,,left,2.3516,4,0.2673,right,0.6185,0,0,0,0,1,,,,,,,,,,,,,,,,,
,,,,,,,,22,2021-11-22_18h37.16.818,premceCat2_ses-02_part-02_label-phase2,2020.2.10,Win32,60,,,,,,,,,,,,,,,,0,0,0,96,1,stimuli/objects/wateringcan.jpg,left,old,240,,,,,,,,
,,,,,,,,22,2021-11-22_18h37.16.818,premceCat2_ses-02_part-02_label-phase2,2020.2.10,Win32,60,,,,,right,0.932,3,1.2715,,,,,,,,0,1,1,26,1,stimuli/objects/flashlight02b.jpg,right,new,170,,,,,,,,
,,,,,,,,22,2021-11-22_18h37.16.818,premceCat2_ses-02_part-02_label-phase2,2020.2.10,Win32,60,,,,,right,0.8544,3,0.1937,,,,,,,,0,2,2,15,1,stimuli/objects/computermouse06.jpg,right,new,159,,,,,,,,
,,,,,,,,22,2021-11-22_18h37.16.818,premceCat2_ses-02_part-02_label-phase2,2020.2.10,Win32,60,,,,,right,0.5528,4,0.2574,,,,,,,,0,3,3,112,1,stimuli/objects/slidetray.jpg,left,old,256,,,,,,,,
,,,,,,,,22,2021-11-22_18h37.16.818,premceCat2_ses-02_part-02_label-phase2,2020.2.10,Win32,60,,,,,right,0.6642,3,0.1944,,,,,,,,0,4,4,141,1,stimuli/objects/travelmug.jpg,left,old,285,,,,,,,,
,,,,,,,,22,2021-11-22_18h37.16.818,premceCat2_ses-02_part-02_label-phase2,2020.2.10,Win32,60,,,,,left,0.7589,3,0.1373,right,0.2074,0,0,0,0,1,,,,,,,,,,,,,,,,,
,,,,,,,,22,2021-11-22_18h37.16.818,premceCat2_ses-02_part-02_label-phase2,2020.2.10,Win32,60,,,,,,,,,,,,,,,,0,5,5,25,1,stimuli/objects/shotglass.jpg,left,old,169,,,,,,,,
,,,,,,,,22,2021-11-22_18h37.16.818,premceCat2_ses-02_part-02_label-phase2,2020.2.10,Win32,60,,,,,left,0.9558,4,0.2269,left,0.3152,0,0,0,0,1,,,,,,,,,,,,,,,,,
,,,,,,,,22,2021-11-22_18h37.16.818,premceCat2_ses-02_part-02_label-phase2,2020.2.10,Win32,60,,,,,,,,,,,,,,,,0,6,6,19,1,stimuli/objects/mug01.jpg,right,new,163,,,,,,,,
,,,,,,,,22,2021-11-22_18h37.16.818,premceCat2_ses-02_part-02_label-phase2,2020.2.10,Win32,60,,,,,left,1.6087,4,0.1631,left,1.5342,0,0,0,0,1,,,,,,,,,,,,,,,,,
,,,,,,,,22,2021-11-22_18h37.16.818,premceCat2_ses-02_part-02_label-phase2,2020.2.10,Win32,60,,,,,,,,,,,,,,,,0,7,7,128,1,stimuli/objects/spoon01.jpg,left,old,272,,,,,,,,
,,,,,,,,22,2021-11-22_18h37.16.818,premceCat2_ses-02_part-02_label-phase2,2020.2.10,Win32,60,,,,,left,1.3787,2,0.1914,right,0.576,0,0,0,0,1,,,,,,,,,,,,,,,,,
,,,,,,,,22,2021-11-22_18h37.16.818,premceCat2_ses-02_part-02_label-phase2,2020.2.10,Win32,60,,,,,,,,,,,,,,,,0,8,8,65,1,stimuli/objects/bucket02.jpg,left,old,209,,,,,,,,
,,,,,,,,22,2021-11-22_18h37.16.818,premceCat2_ses-02_part-02_label-phase2,2020.2.10,Win32,60,,,,,left,1.3001,4,0.4149,left,0.0974,0,0,0,0,1,,,,,,,,,,,,,,,,,
,,,,,,,,22,2021-11-22_18h37.16.818,premceCat2_ses-02_part-02_label-phase2,2020.2.10,Win32,60,,,,,,,,,,,,,,,,0,9,9,70,1,stimuli/objects/shovel01.jpg,right,new,214,,,,,,,,
,,,,,,,,22,2021-11-22_18h37.16.818,premceCat2_ses-02_part-02_label-phase2,2020.2.10,Win32,60,,,,,left,0.9943,4,0.1662,right,0.2374,0,0,0,0,1,,,,,,,,,,,,,,,,,
,,,,,,,,22,2021-11-22_18h37.16.818,premceCat2_ses-02_part-02_label-phase2,2020.2.10,Win32,60,,,,,,,,,,,,,,,,0,10,10,71,1,stimuli/objects/handgripper.jpg,left,old,215,,,,,,,,
,,,,,,,,22,2021-11-22_18h37.16.818,premceCat2_ses-02_part-02_label-phase2,2020.2.10,Win32,60,,,,,right,0.7346,4,0.1201,,,,,,,,0,11,11,101,1,stimuli/objects/lifejacket.jpg,right,new,245,,,,,,,,
,,,,,,,,22,2021-11-22_18h37.16.818,premceCat2_ses-02_part-02_label-phase2,2020.2.10,Win32,60,,,,,right,1.1534,3,0.208,,,,,,,,0,12,12,95,1,stimuli/objects/tennisball01b.jpg,right,new,239,,,,,,,,
,,,,,,,,22,2021-11-22_18h37.16.818,premceCat2_ses-02_part-02_label-phase2,2020.2.10,Win32,60,,,,,right,0.7072,4,0.1613,,,,,,,,0,13,13,102,1,stimuli/objects/beachumbrella01.jpg,right,new,246,,,,,,,,
,,,,,,,,22,2021-11-22_18h37.16.818,premceCat2_ses-02_part-02_label-phase2,2020.2.10,Win32,60,,,,,left,1.1723,3,0.2366,left,0.7885,0,0,0,0,1,,,,,,,,,,,,,,,,,
,,,,,,,,22,2021-11-22_18h37.16.818,premceCat2_ses-02_part-02_label-phase2,2020.2.10,Win32,60,,,,,,,,,,,,,,,,0,14,14,79,1,stimuli/objects/boatmotor.jpg,left,old,223,,,,,,,,
,,,,,,,,22,2021-11-22_18h37.16.818,premceCat2_ses-02_part-02_label-phase2,2020.2.10,Win32,60,,,,,right,1.7942,4,0.52,,,,,,,,0,15,15,131,1,stimuli/objects/handblender.jpg,right,new,275,,,,,,,,
,,,,,,,,22,2021-11-22_18h37.16.818,premceCat2_ses-02_part-02_label-phase2,2020.2.10,Win32,60,,,,,right,1.3056,4,0.272,,,,,,,,0,16,16,61,1,stimuli/objects/jumpercables.jpg,left,old,205,,,,,,,,
,,,,,,,,22,2021-11-22_18h37.16.818,premceCat2_ses-02_part-02_label-phase2,2020.2.10,Win32,60,,,,,right,0.7794,3,0.1522,,,,,,,,0,17,17,40,1,stimuli/objects/tablesaw.jpg,right,new,184,,,,,,,,
,,,,,,,,22,2021-11-22_18h37.16.818,premceCat2_ses-02_part-02_label-phase2,2020.2.10,Win32,60,,,,,right,0.7722,2,1.2529,,,,,,,,0,18,18,18,1,stimuli/objects/fluorescentlightbulb.jpg,left,old,162,,,,,,,,
,,,,,,,,22,2021-11-22_18h37.16.818,premceCat2_ses-02_part-02_label-phase2,2020.2.10,Win32,60,,,,,left,0.8239,4,0.3711,left,0.238,0,0,0,0,1,,,,,,,,,,,,,,,,,
,,,,,,,,22,2021-11-22_18h37.16.818,premceCat2_ses-02_part-02_label-phase2,2020.2.10,Win32,60,,,,,,,,,,,,,,,,0,19,19,50,1,stimuli/objects/hockeygoaliemask.jpg,left,old,194,,,,,,,,
,,,,,,,,22,2021-11-22_18h37.16.818,premceCat2_ses-02_part-02_label-phase2,2020.2.10,Win32,60,,,,,left,1.1277,4,0.7372,left,0.5147,0,0,0,0,1,,,,,,,,,,,,,,,,,
,,,,,,,,22,2021-11-22_18h37.16.818,premceCat2_ses-02_part-02_label-phase2,2020.2.10,Win32,60,,,,,,,,,,,,,,,,0,20,20,122,1,stimuli/objects/hockeystick.jpg,right,new,266,,,,,,,,
,,,,,,,,22,2021-11-22_18h37.16.818,premceCat2_ses-02_part-02_label-phase2,2020.2.10,Win32,60,,,,,left,1.4352,3,0.1685,right,0.3351,0,0,0,0,1,,,,,,,,,,,,,,,,,
,,,,,,,,22,2021-11-22_18h37.16.818,premceCat2_ses-02_part-02_label-phase2,2020.2.10,Win32,60,,,,,,,,,,,,,,,,0,21,21,4,1,stimuli/objects/cassettetape01a.jpg,right,new,148,,,,,,,,
,,,,,,,,22,2021-11-22_18h37.16.818,premceCat2_ses-02_part-02_label-phase2,2020.2.10,Win32,60,,,,,right,0.8773,3,0.2382,,,,,,,,0,22,22,105,1,stimuli/objects/pitcher02b.jpg,left,old,249,,,,,,,,
,,,,,,,,22,2021-11-22_18h37.16.818,premceCat2_ses-02_part-02_label-phase2,2020.2.10,Win32,60,,,,,right,0.9655,3,0.1547,,,,,,,,0,23,23,51,1,stimuli/objects/cheeseknife01.jpg,right,new,195,,,,,,,,
,,,,,,,,22,2021-11-22_18h37.16.818,premceCat2_ses-02_part-02_label-phase2,2020.2.10,Win32,60,,,,,left,0.8711,3,0.2556,right,0.6684,0,0,0,0,1,,,,,,,,,,,,,,,,,
,,,,,,,,22,2021-11-22_18h37.16.818,premceCat2_ses-02_part-02_label-phase2,2020.2.10,Win32,60,,,,,,,,,,,,,,,,0,24,24,21,1,stimuli/objects/drill01b.jpg,left,old,165,,,,,,,,
,,,,,,,,22,2021-11-22_18h37.16.818,premceCat2_ses-02_part-02_label-phase2,2020.2.10,Win32,60,,,,,right,1.0462,2,0.2246,,,,,,,,0,25,25,49,1,stimuli/objects/cakeplatter.jpg,right,new,193,,,,,,,,
,,,,,,,,22,2021-11-22_18h37.16.818,premceCat2_ses-02_part-02_label-phase2,2020.2.10,Win32,60,,,,,left,0.8244,4,0.1493,left,0.2161,0,0,0,0,1,,,,,,,,,,,,,,,,,
,,,,,,,,22,2021-11-22_18h37.16.818,premceCat2_ses-02_part-02_label-phase2,2020.2.10,Win32,60,,,,,,,,,,,,,,,,0,26,26,110,1,stimuli/objects/skiboot01a.jpg,left,old,254,,,,,,,,
,,,,,,,,22,2021-11-22_18h37.16.818,premceCat2_ses-02_part-02_label-phase2,2020.2.10,Win32,60,,,,,right,0.771,3,0.1914,,,,,,,,0,27,27,48,1,stimuli/objects/eggslicer.jpg,right,new,192,,,,,,,,
,,,,,,,,22,2021-11-22_18h37.16.818,premceCat2_ses-02_part-02_label-phase2,2020.2.10,Win32,60,,,,,left,0.8449,4,0.1931,left,0.2144,0,0,0,0,1,,,,,,,,,,,,,,,,,
,,,,,,,,22,2021-11-22_18h37.16.818,premceCat2_ses-02_part-02_label-phase2,2020.2.10,Win32,60,,,,,,,,,,,,,,,,0,28,28,109,1,stimuli/objects/toothpick02.jpg,left,old,253,,,,,,,,
,,,,,,,,22,2021-11-22_18h37.16.818,premceCat2_ses-02_part-02_label-phase2,2020.2.10,Win32,60,,,,,right,0.6767,3,0.1482,,,,,,,,0,29,29,81,1,stimuli/objects/grill.jpg,right,new,225,,,,,,,,
,,,,,,,,22,2021-11-22_18h37.16.818,premceCat2_ses-02_part-02_label-phase2,2020.2.10,Win32,60,,,,,right,2.018,3,0.6893,,,,,,,,0,30,30,137,1,stimuli/objects/nutcracker01.jpg,right,new,281,,,,,,,,
,,,,,,,,22,2021-11-22_18h37.16.818,premceCat2_ses-02_part-02_label-phase2,2020.2.10,Win32,60,,,,,left,0.7225,4,0.133,right,0.3668,0,0,0,0,1,,,,,,,,,,,,,,,,,
,,,,,,,,22,2021-11-22_18h37.16.818,premceCat2_ses-02_part-02_label-phase2,2020.2.10,Win32,60,,,,,,,,,,,,,,,,0,31,31,139,1,stimuli/objects/corkscrew03a.jpg,left,old,283,,,,,,,,
,,,,,,,,22,2021-11-22_18h37.16.818,premceCat2_ses-02_part-02_label-phase2,2020.2.10,Win32,60,,,,,right,1.174,4,0.0894,,,,,,,,0,32,32,69,1,stimuli/objects/straw.jpg,right,new,213,,,,,,,,
,,,,,,,,22,2021-11-22_18h37.16.818,premceCat2_ses-02_part-02_label-phase2,2020.2.10,Win32,60,,,,,left,2.268,2,0.0703,left,0.7817,0,0,0,0,1,,,,,,,,,,,,,,,,,
,,,,,,,,22,2021-11-22_18h37.16.818,premceCat2_ses-02_part-02_label-phase2,2020.2.10,Win32,60,,,,,,,,,,,,,,,,0,33,33,38,1,stimuli/objects/breadknife.jpg,left,old,182,,,,,,,,
,,,,,,,,22,2021-11-22_18h37.16.818,premceCat2_ses-02_part-02_label-phase2,2020.2.10,Win32,60,,,,,right,0.6799,4,0.3477,,,,,,,,0,34,34,130,1,stimuli/objects/fuse.jpg,left,old,274,,,,,,,,
,,,,,,,,22,2021-11-22_18h37.16.818,premceCat2_ses-02_part-02_label-phase2,2020.2.10,Win32,60,,,,,left,0.7879,4,0.1302,left,0.2416,0,0,0,0,1,,,,,,,,,,,,,,,,,
,,,,,,,,22,2021-11-22_18h37.16.818,premceCat2_ses-02_part-02_label-phase2,2020.2.10,Win32,60,,,,,,,,,,,,,,,,0,35,35,32,1,stimuli/objects/rollingpin01a.jpg,left,old,176,,,,,,,,
,,,,,,,,22,2021-11-22_18h37.16.818,premceCat2_ses-02_part-02_label-phase2,2020.2.10,Win32,60,,,,,right,0.5873,2,0.5238,,,,,,,,0,36,36,56,1,stimuli/objects/thermos.jpg,left,old,200,,,,,,,,
,,,,,,,,22,2021-11-22_18h37.16.818,premceCat2_ses-02_part-02_label-phase2,2020.2.10,Win32,60,,,,,right,0.9701,3,0.1319,,,,,,,,0,37,37,138,1,stimuli/objects/beermug01a.jpg,right,new,282,,,,,,,,
,,,,,,,,22,2021-11-22_18h37.16.818,premceCat2_ses-02_part-02_label-phase2,2020.2.10,Win32,60,,,,,right,0.778,4,0.0452,,,,,,,,0,38,38,60,1,stimuli/objects/kite.jpg,right,new,204,,,,,,,,
,,,,,,,,22,2021-11-22_18h37.16.818,premceCat2_ses-02_part-02_label-phase2,2020.2.10,Win32,60,,,,,left,0.8388,4,1.4824,left,0.8861,0,0,0,0,1,,,,,,,,,,,,,,,,,
,,,,,,,,22,2021-11-22_18h37.16.818,premceCat2_ses-02_part-02_label-phase2,2020.2.10,Win32,60,,,,,,,,,,,,,,,,0,39,39,29,1,stimuli/objects/chandelier.jpg,left,old,173,,,,,,,,
,,,,,,,,22,2021-11-22_18h37.16.818,premceCat2_ses-02_part-02_label-phase2,2020.2.10,Win32,60,,,,,right,0.7599,4,0.3148,,,,,,,,0,40,40,66,1,stimuli/objects/heatpump.jpg,right,new,210,,,,,,,,
,,,,,,,,22,2021-11-22_18h37.16.818,premceCat2_ses-02_part-02_label-phase2,2020.2.10,Win32,60,,,,,left,0.9105,4,1.152,left,0.2511,0,0,0,0,1,,,,,,,,,,,,,,,,,
,,,,,,,,22,2021-11-22_18h37.16.818,premceCat2_ses-02_part-02_label-phase2,2020.2.10,Win32,60,,,,,,,,,,,,,,,,0,41,41,97,1,stimuli/objects/tupperware03a.jpg,left,old,241,,,,,,,,
,,,,,,,,22,2021-11-22_18h37.16.818,premceCat2_ses-02_part-02_label-phase2,2020.2.10,Win32,60,,,,,right,0.8319,4,0.1589,,,,,,,,0,42,42,83,1,stimuli/objects/icecubetray01a.jpg,right,new,227,,,,,,,,
,,,,,,,,22,2021-11-22_18h37.16.818,premceCat2_ses-02_part-02_label-phase2,2020.2.10,Win32,60,,,,,right,0.8734,4,0.2354,,,,,,,,0,43,43,0,1,stimuli/objects/smokedetector02.jpg,right,new,144,,,,,,,,
,,,,,,,,22,2021-11-22_18h37.16.818,premceCat2_ses-02_part-02_label-phase2,2020.2.10,Win32,60,,,,,left,0.9103,4,0.4791,left,0.2659,0,0,0,0,1,,,,,,,,,,,,,,,,,
,,,,,,,,22,2021-11-22_18h37.16.818,premceCat2_ses-02_part-02_label-phase2,2020.2.10,Win32,60,,,,,,,,,,,,,,,,0,44,44,129,1,stimuli/objects/hoe.jpg,left,old,273,,,,,,,,
,,,,,,,,22,2021-11-22_18h37.16.818,premceCat2_ses-02_part-02_label-phase2,2020.2.10,Win32,60,,,,,left,2.4826,3,0.8893,left,0.0481,0,0,0,0,1,,,,,,,,,,,,,,,,,
,,,,,,,,22,2021-11-22_18h37.16.818,premceCat2_ses-02_part-02_label-phase2,2020.2.10,Win32,60,,,,,,,,,,,,,,,,0,45,45,31,1,stimuli/objects/soccerball.jpg,left,old,175,,,,,,,,
,,,,,,,,22,2021-11-22_18h37.16.818,premceCat2_ses-02_part-02_label-phase2,2020.2.10,Win32,60,,,,,right,0.8049,4,0.5649,,,,,,,,0,46,46,90,1,stimuli/objects/toyhockeystick01.jpg,left,old,234,,,,,,,,
,,,,,,,,22,2021-11-22_18h37.16.818,premceCat2_ses-02_part-02_label-phase2,2020.2.10,Win32,60,,,,,right,0.8934,4,0.3832,,,,,,,,0,47,47,2,1,stimuli/objects/wetfloorsign.jpg,right,new,146,,,,,,,,
,,,,,,,,22,2021-11-22_18h37.16.818,premceCat2_ses-02_part-02_label-phase2,2020.2.10,Win32,60,,,,,right,0.7677,2,0.3773,,,,,,,,0,48,48,113,1,stimuli/objects/hedgeshears.jpg,left,old,257,,,,,,,,
,,,,,,,,22,2021-11-22_18h37.16.818,premceCat2_ses-02_part-02_label-phase2,2020.2.10,Win32,60,,,,,left,1.5686,4,0.3533,left,0.1416,0,0,0,0,1,,,,,,,,,,,,,,,,,
,,,,,,,,22,2021-11-22_18h37.16.818,premceCat2_ses-02_part-02_label-phase2,2020.2.10,Win32,60,,,,,,,,,,,,,,,,0,49,49,58,1,stimuli/objects/volleyball.jpg,left,old,202,,,,,,,,
,,,,,,,,22,2021-11-22_18h37.16.818,premceCat2_ses-02_part-02_label-phase2,2020.2.10,Win32,60,,,,,right,0.9003,2,0.2159,,,,,,,,0,50,50,37,1,stimuli/objects/computerkeyboard02.jpg,left,old,181,,,,,,,,
,,,,,,,,22,2021-11-22_18h37.16.818,premceCat2_ses-02_part-02_label-phase2,2020.2.10,Win32,60,,,,,right,0.8289,3,0.1385,,,,,,,,0,51,51,35,1,stimuli/objects/stroller.jpg,right,new,179,,,,,,,,
,,,,,,,,22,2021-11-22_18h37.16.818,premceCat2_ses-02_part-02_label-phase2,2020.2.10,Win32,60,,,,,right,0.5908,4,0.2064,,,,,,,,0,52,52,108,1,stimuli/objects/telephone01b.jpg,left,old,252,,,,,,,,
,,,,,,,,22,2021-11-22_18h37.16.818,premceCat2_ses-02_part-02_label-phase2,2020.2.10,Win32,60,,,,,right,0.8466,3,0.2652,,,,,,,,0,53,53,124,1,stimuli/objects/basketball01.jpg,right,new,268,,,,,,,,
,,,,,,,,22,2021-11-22_18h37.16.818,premceCat2_ses-02_part-02_label-phase2,2020.2.10,Win32,60,,,,,right,1.0457,4,0.251,,,,,,,,0,54,54,59,1,stimuli/objects/speedball.jpg,right,new,203,,,,,,,,
,,,,,,,,22,2021-11-22_18h37.16.818,premceCat2_ses-02_part-02_label-phase2,2020.2.10,Win32,60,,,,,right,0.8152,2,1.4233,,,,,,,,0,55,55,42,1,stimuli/objects/tennisracket.jpg,right,new,186,,,,,,,,
,,,,,,,,22,2021-11-22_18h37.16.818,premceCat2_ses-02_part-02_label-phase2,2020.2.10,Win32,60,,,,,right,0.7634,3,0.1521,,,,,,,,0,56,56,78,1,stimuli/objects/lightswitch01.jpg,right,new,222,,,,,,,,
,,,,,,,,22,2021-11-22_18h37.16.818,premceCat2_ses-02_part-02_label-phase2,2020.2.10,Win32,60,,,,,left,1.0102,4,0.1698,right,1.0322,0,0,0,0,1,,,,,,,,,,,,,,,,,
,,,,,,,,22,2021-11-22_18h37.16.818,premceCat2_ses-02_part-02_label-phase2,2020.2.10,Win32,60,,,,,,,,,,,,,,,,0,57,57,72,1,stimuli/objects/wheel01.jpg,left,old,216,,,,,,,,
,,,,,,,,22,2021-11-22_18h37.16.818,premceCat2_ses-02_part-02_label-phase2,2020.2.10,Win32,60,,,,,right,0.6939,4,0.1383,,,,,,,,0,58,58,30,1,stimuli/objects/halogenlightbulb.jpg,right,new,174,,,,,,,,
,,,,,,,,22,2021-11-22_18h37.16.818,premceCat2_ses-02_part-02_label-phase2,2020.2.10,Win32,60,,,,,left,1.9096,2,0.1335,right,1.5639,0,0,0,0,1,,,,,,,,,,,,,,,,,
,,,,,,,,22,2021-11-22_18h37.16.818,premceCat2_ses-02_part-02_label-phase2,2020.2.10,Win32,60,,,,,,,,,,,,,,,,0,59,59,118,1,stimuli/objects/pliers02b.jpg,left,old,262,,,,,,,,
,,,,,,,,22,2021-11-22_18h37.16.818,premceCat2_ses-02_part-02_label-phase2,2020.2.10,Win32,60,,,,,right,0.9119,2,1.7645,,,,,,,,0,60,60,104,1,stimuli/objects/alarmclock01.jpg,left,old,248,,,,,,,,
,,,,,,,,22,2021-11-22_18h37.16.818,premceCat2_ses-02_part-02_label-phase2,2020.2.10,Win32,60,,,,,left,1.2914,3,0.156,right,0.5864,0,0,0,0,1,,,,,,,,,,,,,,,,,
,,,,,,,,22,2021-11-22_18h37.16.818,premceCat2_ses-02_part-02_label-phase2,2020.2.10,Win32,60,,,,,,,,,,,,,,,,0,61,61,22,1,stimuli/objects/paintroller01.jpg,left,old,166,,,,,,,,
,,,,,,,,22,2021-11-22_18h37.16.818,premceCat2_ses-02_part-02_label-phase2,2020.2.10,Win32,60,,,,,right,1.5579,3,0.2827,,,,,,,,0,62,62,106,1,stimuli/objects/extensioncord.jpg,left,old,250,,,,,,,,
,,,,,,,,22,2021-11-22_18h37.16.818,premceCat2_ses-02_part-02_label-phase2,2020.2.10,Win32,60,,,,,left,1.4759,2,0.0967,left,0.1865,0,0,0,0,1,,,,,,,,,,,,,,,,,
,,,,,,,,22,2021-11-22_18h37.16.818,premceCat2_ses-02_part-02_label-phase2,2020.2.10,Win32,60,,,,,,,,,,,,,,,,0,63,63,14,1,stimuli/objects/fishingrod.jpg,left,old,158,,,,,,,,
,,,,,,,,22,2021-11-22_18h37.16.818,premceCat2_ses-02_part-02_label-phase2,2020.2.10,Win32,60,,,,,right,1.0578,3,0.1669,,,,,,,,0,64,64,47,1,stimuli/objects/plate01b.jpg,right,new,191,,,,,,,,
,,,,,,,,22,2021-11-22_18h37.16.818,premceCat2_ses-02_part-02_label-phase2,2020.2.10,Win32,60,,,,,left,0.9143,3,0.1742,left,0.2898,0,0,0,0,1,,,,,,,,,,,,,,,,,
,,,,,,,,22,2021-11-22_18h37.16.818,premceCat2_ses-02_part-02_label-phase2,2020.2.10,Win32,60,,,,,,,,,,,,,,,,0,65,65,45,1,stimuli/objects/charcoalbarbecue.jpg,left,old,189,,,,,,,,
,,,,,,,,22,2021-11-22_18h37.16.818,premceCat2_ses-02_part-02_label-phase2,2020.2.10,Win32,60,,,,,right,1.2739,2,0.152,,,,,,,,0,66,66,3,1,stimuli/objects/boxingglove01.jpg,right,new,147,,,,,,,,
,,,,,,,,22,2021-11-22_18h37.16.818,premceCat2_ses-02_part-02_label-phase2,2020.2.10,Win32,60,,,,,left,1.3767,2,0.1723,left,0.39,0,0,0,0,1,,,,,,,,,,,,,,,,,
,,,,,,,,22,2021-11-22_18h37.16.818,premceCat2_ses-02_part-02_label-phase2,2020.2.10,Win32,60,,,,,,,,,,,,,,,,0,67,67,1,1,stimuli/objects/crocodileclips.jpg,left,old,145,,,,,,,,
,,,,,,,,22,2021-11-22_18h37.16.818,premceCat2_ses-02_part-02_label-phase2,2020.2.10,Win32,60,,,,,right,0.9804,3,0.2316,,,,,,,,0,68,68,17,1,stimuli/objects/backpack01a.jpg,left,old,161,,,,,,,,
,,,,,,,,22,2021-11-22_18h37.16.818,premceCat2_ses-02_part-02_label-phase2,2020.2.10,Win32,60,,,,,right,0.6943,3,0.1508,,,,,,,,0,69,69,12,1,stimuli/objects/fanheater.jpg,right,new,156,,,,,,,,
,,,,,,,,22,2021-11-22_18h37.16.818,premceCat2_ses-02_part-02_label-phase2,2020.2.10,Win32,60,,,,,right,0.7317,3,0.071,,,,,,,,0,70,70,44,1,stimuli/objects/toaster01.jpg,right,new,188,,,,,,,,
,,,,,,,,22,2021-11-22_18h37.16.818,premceCat2_ses-02_part-02_label-phase2,2020.2.10,Win32,60,,,,,left,0.9779,3,0.0841,right,0.9265,0,0,0,0,1,,,,,,,,,,,,,,,,,
,,,,,,,,22,2021-11-22_18h37.16.818,premceCat2_ses-02_part-02_label-phase2,2020.2.10,Win32,60,,,,,,,,,,,,,,,,0,71,71,11,1,stimuli/objects/vhstape.jpg,left,old,155,,,,,,,,
,,,,,,,,22,2021-11-22_18h37.16.818,premceCat2_ses-02_part-02_label-phase2,2020.2.10,Win32,60,,,,,right,1.6172,4,0.1822,,,,,,,,0,72,72,41,1,stimuli/objects/flask.jpg,right,new,185,,,,,,,,
,,,,,,,,22,2021-11-22_18h37.16.818,premceCat2_ses-02_part-02_label-phase2,2020.2.10,Win32,60,,,,,right,1.1544,3,0.2325,,,,,,,,0,73,73,123,1,stimuli/objects/jackhammer.jpg,right,new,267,,,,,,,,
,,,,,,,,22,2021-11-22_18h37.16.818,premceCat2_ses-02_part-02_label-phase2,2020.2.10,Win32,60,,,,,left,1.4437,2,0.1852,right,1.9936,0,0,0,0,1,,,,,,,,,,,,,,,,,
,,,,,,,,22,2021-11-22_18h37.16.818,premceCat2_ses-02_part-02_label-phase2,2020.2.10,Win32,60,,,,,,,,,,,,,,,,0,74,74,142,1,stimuli/objects/needlenosepliers01.jpg,right,new,286,,,,,,,,
,,,,,,,,22,2021-11-22_18h37.16.818,premceCat2_ses-02_part-02_label-phase2,2020.2.10,Win32,60,,,,,right,2.9424,2,0.4515,,,,,,,,0,75,75,23,1,stimuli/objects/snowboard.jpg,left,old,167,,,,,,,,
,,,,,,,,22,2021-11-22_18h37.16.818,premceCat2_ses-02_part-02_label-phase2,2020.2.10,Win32,60,,,,,right,0.6742,4,0.1867,,,,,,,,0,76,76,68,1,stimuli/objects/ladle02a.jpg,right,new,212,,,,,,,,
,,,,,,,,22,2021-11-22_18h37.16.818,premceCat2_ses-02_part-02_label-phase2,2020.2.10,Win32,60,,,,,right,0.6717,4,0.1431,,,,,,,,0,77,77,126,1,stimuli/objects/reflector.jpg,left,old,270,,,,,,,,
,,,,,,,,22,2021-11-22_18h37.16.818,premceCat2_ses-02_part-02_label-phase2,2020.2.10,Win32,60,,,,,left,1.3163,3,0.46,left,0.4405,0,0,0,0,1,,,,,,,,,,,,,,,,,
,,,,,,,,22,2021-11-22_18h37.16.818,premceCat2_ses-02_part-02_label-phase2,2020.2.10,Win32,60,,,,,,,,,,,,,,,,0,78,78,136,1,stimuli/objects/hockeypuck.jpg,left,old,280,,,,,,,,
,,,,,,,,22,2021-11-22_18h37.16.818,premceCat2_ses-02_part-02_label-phase2,2020.2.10,Win32,60,,,,,left,2.1121,4,0.3007,left,0.1172,0,0,0,0,1,,,,,,,,,,,,,,,,,
,,,,,,,,22,2021-11-22_18h37.16.818,premceCat2_ses-02_part-02_label-phase2,2020.2.10,Win32,60,,,,,,,,,,,,,,,,0,79,79,93,1,stimuli/objects/chainsaw.jpg,left,old,237,,,,,,,,
,,,,,,,,22,2021-11-22_18h37.16.818,premceCat2_ses-02_part-02_label-phase2,2020.2.10,Win32,60,,,,,right,0.7177,2,0.6814,,,,,,,,0,80,80,13,1,stimuli/objects/bungeecord02.jpg,left,old,157,,,,,,,,
,,,,,,,,22,2021-11-22_18h37.16.818,premceCat2_ses-02_part-02_label-phase2,2020.2.10,Win32,60,,,,,left,0.9738,4,0.1866,left,0.393,0,0,0,0,1,,,,,,,,,,,,,,,,,
,,,,,,,,22,2021-11-22_18h37.16.818,premceCat2_ses-02_part-02_label-phase2,2020.2.10,Win32,60,,,,,,,,,,,,,,,,0,81,81,125,1,stimuli/objects/sewingmachine01a.jpg,left,old,269,,,,,,,,
,,,,,,,,22,2021-11-22_18h37.16.818,premceCat2_ses-02_part-02_label-phase2,2020.2.10,Win32,60,,,,,right,0.7078,4,0.6308,,,,,,,,0,82,82,82,1,stimuli/objects/shopvac.jpg,right,new,226,,,,,,,,
,,,,,,,,22,2021-11-22_18h37.16.818,premceCat2_ses-02_part-02_label-phase2,2020.2.10,Win32,60,,,,,right,0.8826,4,0.259,,,,,,,,0,83,83,115,1,stimuli/objects/tray.jpg,left,old,259,,,,,,,,
,,,,,,,,22,2021-11-22_18h37.16.818,premceCat2_ses-02_part-02_label-phase2,2020.2.10,Win32,60,,,,,right,0.5952,3,0.3017,,,,,,,,0,84,84,84,1,stimuli/objects/patioumbrella.jpg,left,old,228,,,,,,,,
,,,,,,,,22,2021-11-22_18h37.16.818,premceCat2_ses-02_part-02_label-phase2,2020.2.10,Win32,60,,,,,left,1.3814,3,0.165,left,0.2583,0,0,0,0,1,,,,,,,,,,,,,,,,,
,,,,,,,,22,2021-11-22_18h37.16.818,premceCat2_ses-02_part-02_label-phase2,2020.2.10,Win32,60,,,,,,,,,,,,,,,,0,85,85,43,1,stimuli/objects/bowrake.jpg,right,new,187,,,,,,,,
,,,,,,,,22,2021-11-22_18h37.16.818,premceCat2_ses-02_part-02_label-phase2,2020.2.10,Win32,60,,,,,right,1.5621,3,0.1562,,,,,,,,0,86,86,33,1,stimuli/objects/ipod.jpg,left,old,177,,,,,,,,
,,,,,,,,22,2021-11-22_18h37.16.818,premceCat2_ses-02_part-02_label-phase2,2020.2.10,Win32,60,,,,,left,1.2319,4,0.3165,left,0.2653,0,0,0,0,1,,,,,,,,,,,,,,,,,
,,,,,,,,22,2021-11-22_18h37.16.818,premceCat2_ses-02_part-02_label-phase2,2020.2.10,Win32,60,,,,,,,,,,,,,,,,0,87,87,76,1,stimuli/objects/headphones02b.jpg,left,old,220,,,,,,,,
,,,,,,,,22,2021-11-22_18h37.16.818,premceCat2_ses-02_part-02_label-phase2,2020.2.10,Win32,60,,,,,right,1.5586,3,0.1008,,,,,,,,0,88,88,100,1,stimuli/objects/caulking.jpg,left,old,244,,,,,,,,
,,,,,,,,22,2021-11-22_18h37.16.818,premceCat2_ses-02_part-02_label-phase2,2020.2.10,Win32,60,,,,,right,1.0619,4,0.1758,,,,,,,,0,89,89,103,1,stimuli/objects/swissarmyknife01a.jpg,right,new,247,,,,,,,,
,,,,,,,,22,2021-11-22_18h37.16.818,premceCat2_ses-02_part-02_label-phase2,2020.2.10,Win32,60,,,,,left,1.0139,4,0.1669,left,0.1913,0,0,0,0,1,,,,,,,,,,,,,,,,,
,,,,,,,,22,2021-11-22_18h37.16.818,premceCat2_ses-02_part-02_label-phase2,2020.2.10,Win32,60,,,,,,,,,,,,,,,,0,90,90,10,1,stimuli/objects/skihelmet01.jpg,left,old,154,,,,,,,,
,,,,,,,,22,2021-11-22_18h37.16.818,premceCat2_ses-02_part-02_label-phase2,2020.2.10,Win32,60,,,,,right,1.1913,3,0.119,,,,,,,,0,91,91,64,1,stimuli/objects/surfboard.jpg,left,old,208,,,,,,,,
,,,,,,,,22,2021-11-22_18h37.16.818,premceCat2_ses-02_part-02_label-phase2,2020.2.10,Win32,60,,,,,right,0.8769,3,0.1881,,,,,,,,0,92,92,34,1,stimuli/objects/kneepad01c.jpg,right,new,178,,,,,,,,
,,,,,,,,22,2021-11-22_18h37.16.818,premceCat2_ses-02_part-02_label-phase2,2020.2.10,Win32,60,,,,,left,0.8916,4,0.1856,left,0.2435,0,0,0,0,1,,,,,,,,,,,,,,,,,
,,,,,,,,22,2021-11-22_18h37.16.818,premceCat2_ses-02_part-02_label-phase2,2020.2.10,Win32,60,,,,,,,,,,,,,,,,0,93,93,73,1,stimuli/objects/baseballglove.jpg,left,old,217,,,,,,,,
,,,,,,,,22,2021-11-22_18h37.16.818,premceCat2_ses-02_part-02_label-phase2,2020.2.10,Win32,60,,,,,left,0.9128,4,0.1974,right,0.2811,0,0,0,0,1,,,,,,,,,,,,,,,,,
,,,,,,,,22,2021-11-22_18h37.16.818,premceCat2_ses-02_part-02_label-phase2,2020.2.10,Win32,60,,,,,,,,,,,,,,,,0,94,94,63,1,stimuli/objects/towel01.jpg,left,old,207,,,,,,,,
,,,,,,,,22,2021-11-22_18h37.16.818,premceCat2_ses-02_part-02_label-phase2,2020.2.10,Win32,60,,,,,right,2.9163,4,0.1038,,,,,,,,0,95,95,75,1,stimuli/objects/mallet01b.jpg,left,old,219,,,,,,,,
,,,,,,,,22,2021-11-22_18h37.16.818,premceCat2_ses-02_part-02_label-phase2,2020.2.10,Win32,60,,,,,right,0.9268,4,0.062,,,,,,,,0,96,96,98,1,stimuli/objects/cameracase01a.jpg,right,new,242,,,,,,,,
,,,,,,,,22,2021-11-22_18h37.16.818,premceCat2_ses-02_part-02_label-phase2,2020.2.10,Win32,60,,,,,right,0.7567,4,0.0601,,,,,,,,0,97,97,24,1,stimuli/objects/monitor.jpg,right,new,168,,,,,,,,
,,,,,,,,22,2021-11-22_18h37.16.818,premceCat2_ses-02_part-02_label-phase2,2020.2.10,Win32,60,,,,,right,0.7194,3,0.1067,,,,,,,,0,98,98,120,1,stimuli/objects/tent.jpg,right,new,264,,,,,,,,
,,,,,,,,22,2021-11-22_18h37.16.818,premceCat2_ses-02_part-02_label-phase2,2020.2.10,Win32,60,,,,,right,2.007,2,0.109,,,,,,,,0,99,99,91,1,stimuli/objects/cuttingpliers02.jpg,right,new,235,,,,,,,,
,,,,,,,,22,2021-11-22_18h37.16.818,premceCat2_ses-02_part-02_label-phase2,2020.2.10,Win32,60,,,,,right,1.791,4,0.2099,,,,,,,,0,100,100,80,1,stimuli/objects/barbecue03.jpg,right,new,224,,,,,,,,
,,,,,,,,22,2021-11-22_18h37.16.818,premceCat2_ses-02_part-02_label-phase2,2020.2.10,Win32,60,,,,,right,0.9574,4,0.3656,,,,,,,,0,101,101,111,1,stimuli/objects/diaperbag.jpg,right,new,255,,,,,,,,
,,,,,,,,22,2021-11-22_18h37.16.818,premceCat2_ses-02_part-02_label-phase2,2020.2.10,Win32,60,,,,,right,0.6465,4,0.1382,,,,,,,,0,102,102,127,1,stimuli/objects/skigoggles01.jpg,right,new,271,,,,,,,,
,,,,,,,,22,2021-11-22_18h37.16.818,premceCat2_ses-02_part-02_label-phase2,2020.2.10,Win32,60,,,,,right,0.6333,2,0.9008,,,,,,,,0,103,103,121,1,stimuli/objects/parachute.jpg,right,new,265,,,,,,,,
,,,,,,,,22,2021-11-22_18h37.16.818,premceCat2_ses-02_part-02_label-phase2,2020.2.10,Win32,60,,,,,right,1.5263,3,0.1146,,,,,,,,0,104,104,77,1,stimuli/objects/contactlens.jpg,left,old,221,,,,,,,,
,,,,,,,,22,2021-11-22_18h37.16.818,premceCat2_ses-02_part-02_label-phase2,2020.2.10,Win32,60,,,,,left,0.8326,4,0.199,left,0.218,0,0,0,0,1,,,,,,,,,,,,,,,,,
,,,,,,,,22,2021-11-22_18h37.16.818,premceCat2_ses-02_part-02_label-phase2,2020.2.10,Win32,60,,,,,,,,,,,,,,,,0,105,105,89,1,stimuli/objects/cleaver01.jpg,left,old,233,,,,,,,,
,,,,,,,,22,2021-11-22_18h37.16.818,premceCat2_ses-02_part-02_label-phase2,2020.2.10,Win32,60,,,,,right,1.2523,4,0.0783,,,,,,,,0,106,106,94,1,stimuli/objects/file.jpg,right,new,238,,,,,,,,
,,,,,,,,22,2021-11-22_18h37.16.818,premceCat2_ses-02_part-02_label-phase2,2020.2.10,Win32,60,,,,,left,1.0434,4,0.198,left,0.3883,0,0,0,0,1,,,,,,,,,,,,,,,,,
,,,,,,,,22,2021-11-22_18h37.16.818,premceCat2_ses-02_part-02_label-phase2,2020.2.10,Win32,60,,,,,,,,,,,,,,,,0,107,107,134,1,stimuli/objects/carantenna.jpg,left,old,278,,,,,,,,
,,,,,,,,22,2021-11-22_18h37.16.818,premceCat2_ses-02_part-02_label-phase2,2020.2.10,Win32,60,,,,,right,0.7381,3,0.1329,,,,,,,,0,108,108,55,1,stimuli/objects/fonduefork01.jpg,right,new,199,,,,,,,,
,,,,,,,,22,2021-11-22_18h37.16.818,premceCat2_ses-02_part-02_label-phase2,2020.2.10,Win32,60,,,,,left,0.7116,4,0.1555,left,0.9344,0,0,0,0,1,,,,,,,,,,,,,,,,,
,,,,,,,,22,2021-11-22_18h37.16.818,premceCat2_ses-02_part-02_label-phase2,2020.2.10,Win32,60,,,,,,,,,,,,,,,,0,109,109,85,1,stimuli/objects/filmnegative.jpg,left,old,229,,,,,,,,
,,,,,,,,22,2021-11-22_18h37.16.818,premceCat2_ses-02_part-02_label-phase2,2020.2.10,Win32,60,,,,,right,0.8277,3,0.148,,,,,,,,0,110,110,140,1,stimuli/objects/wineglass01.jpg,right,new,284,,,,,,,,
,,,,,,,,22,2021-11-22_18h37.16.818,premceCat2_ses-02_part-02_label-phase2,2020.2.10,Win32,60,,,,,left,0.8109,3,0.2516,left,0.254,0,0,0,0,1,,,,,,,,,,,,,,,,,
,,,,,,,,22,2021-11-22_18h37.16.818,premceCat2_ses-02_part-02_label-phase2,2020.2.10,Win32,60,,,,,,,,,,,,,,,,0,111,111,27,1,stimuli/objects/saw02b.jpg,left,old,171,,,,,,,,
,,,,,,,,22,2021-11-22_18h37.16.818,premceCat2_ses-02_part-02_label-phase2,2020.2.10,Win32,60,,,,,left,1.2955,4,0.2386,left,0.2526,0,0,0,0,1,,,,,,,,,,,,,,,,,
,,,,,,,,22,2021-11-22_18h37.16.818,premceCat2_ses-02_part-02_label-phase2,2020.2.10,Win32,60,,,,,,,,,,,,,,,,0,112,112,20,1,stimuli/objects/bikehelmet.jpg,left,old,164,,,,,,,,
,,,,,,,,22,2021-11-22_18h37.16.818,premceCat2_ses-02_part-02_label-phase2,2020.2.10,Win32,60,,,,,right,1.3754,2,0.166,,,,,,,,0,113,113,39,1,stimuli/objects/wafflemaker.jpg,right,new,183,,,,,,,,
,,,,,,,,22,2021-11-22_18h37.16.818,premceCat2_ses-02_part-02_label-phase2,2020.2.10,Win32,60,,,,,left,0.7469,4,0.1655,left,0.2661,0,0,0,0,1,,,,,,,,,,,,,,,,,
,,,,,,,,22,2021-11-22_18h37.16.818,premceCat2_ses-02_part-02_label-phase2,2020.2.10,Win32,60,,,,,,,,,,,,,,,,0,114,114,57,1,stimuli/objects/swimgoggles.jpg,left,old,201,,,,,,,,
,,,,,,,,22,2021-11-22_18h37.16.818,premceCat2_ses-02_part-02_label-phase2,2020.2.10,Win32,60,,,,,right,1.1008,2,1.5882,,,,,,,,0,115,115,88,1,stimuli/objects/magneticcompass.jpg,left,old,232,,,,,,,,
,,,,,,,,22,2021-11-22_18h37.16.818,premceCat2_ses-02_part-02_label-phase2,2020.2.10,Win32,60,,,,,right,0.7677,4,0.258,,,,,,,,0,116,116,46,1,stimuli/objects/waterbottleholder.jpg,right,new,190,,,,,,,,
,,,,,,,,22,2021-11-22_18h37.16.818,premceCat2_ses-02_part-02_label-phase2,2020.2.10,Win32,60,,,,,right,0.6954,4,0.2304,,,,,,,,0,117,117,99,1,stimuli/objects/floodlight.jpg,right,new,243,,,,,,,,
,,,,,,,,22,2021-11-22_18h37.16.818,premceCat2_ses-02_part-02_label-phase2,2020.2.10,Win32,60,,,,,left,0.8716,4,0.1999,left,0.318,0,0,0,0,1,,,,,,,,,,,,,,,,,
,,,,,,,,22,2021-11-22_18h37.16.818,premceCat2_ses-02_part-02_label-phase2,2020.2.10,Win32,60,,,,,,,,,,,,,,,,0,118,118,117,1,stimuli/objects/poolnet.jpg,left,old,261,,,,,,,,
,,,,,,,,22,2021-11-22_18h37.16.818,premceCat2_ses-02_part-02_label-phase2,2020.2.10,Win32,60,,,,,right,0.7175,3,0.419,,,,,,,,0,119,119,16,1,stimuli/objects/bottleopener01.jpg,right,new,160,,,,,,,,
,,,,,,,,22,2021-11-22_18h37.16.818,premceCat2_ses-02_part-02_label-phase2,2020.2.10,Win32,60,,,,,right,1.0811,4,0.1656,,,,,,,,0,120,120,132,1,stimuli/objects/wirestripper.jpg,right,new,276,,,,,,,,
,,,,,,,,22,2021-11-22_18h37.16.818,premceCat2_ses-02_part-02_label-phase2,2020.2.10,Win32,60,,,,,left,0.7958,4,0.1513,left,0.3421,0,0,0,0,1,,,,,,,,,,,,,,,,,
,,,,,,,,22,2021-11-22_18h37.16.818,premceCat2_ses-02_part-02_label-phase2,2020.2.10,Win32,60,,,,,,,,,,,,,,,,0,121,121,52,1,stimuli/objects/securitycamera.jpg,left,old,196,,,,,,,,
,,,,,,,,22,2021-11-22_18h37.16.818,premceCat2_ses-02_part-02_label-phase2,2020.2.10,Win32,60,,,,,right,0.8616,4,0.1325,,,,,,,,0,122,122,53,1,stimuli/objects/metalbrush.jpg,left,old,197,,,,,,,,
,,,,,,,,22,2021-11-22_18h37.16.818,premceCat2_ses-02_part-02_label-phase2,2020.2.10,Win32,60,,,,,right,0.7578,4,0.1695,,,,,,,,0,123,123,116,1,stimuli/objects/lockingplier.jpg,right,new,260,,,,,,,,
,,,,,,,,22,2021-11-22_18h37.16.818,premceCat2_ses-02_part-02_label-phase2,2020.2.10,Win32,60,,,,,right,0.5412,2,0.6748,,,,,,,,0,124,124,107,1,stimuli/objects/dolly01.jpg,right,new,251,,,,,,,,
,,,,,,,,22,2021-11-22_18h37.16.818,premceCat2_ses-02_part-02_label-phase2,2020.2.10,Win32,60,,,,,left,1.5094,2,0.0997,right,2.0006,0,0,0,0,1,,,,,,,,,,,,,,,,,
,,,,,,,,22,2021-11-22_18h37.16.818,premceCat2_ses-02_part-02_label-phase2,2020.2.10,Win32,60,,,,,,,,,,,,,,,,0,125,125,7,1,stimuli/objects/butterknife.jpg,left,old,151,,,,,,,,
,,,,,,,,22,2021-11-22_18h37.16.818,premceCat2_ses-02_part-02_label-phase2,2020.2.10,Win32,60,,,,,left,1.4243,2,0.0841,right,0.2138,0,0,0,0,1,,,,,,,,,,,,,,,,,
,,,,,,,,22,2021-11-22_18h37.16.818,premceCat2_ses-02_part-02_label-phase2,2020.2.10,Win32,60,,,,,,,,,,,,,,,,0,126,126,6,1,stimuli/objects/solderingwire.jpg,right,new,150,,,,,,,,
,,,,,,,,22,2021-11-22_18h37.16.818,premceCat2_ses-02_part-02_label-phase2,2020.2.10,Win32,60,,,,,left,1.4944,3,0.1072,left,0.1702,0,0,0,0,1,,,,,,,,,,,,,,,,,
,,,,,,,,22,2021-11-22_18h37.16.818,premceCat2_ses-02_part-02_label-phase2,2020.2.10,Win32,60,,,,,,,,,,,,,,,,0,127,127,92,1,stimuli/objects/snowshovel.jpg,left,old,236,,,,,,,,
,,,,,,,,22,2021-11-22_18h37.16.818,premceCat2_ses-02_part-02_label-phase2,2020.2.10,Win32,60,,,,,left,0.8819,3,0.2933,left,0.3417,0,0,0,0,1,,,,,,,,,,,,,,,,,
,,,,,,,,22,2021-11-22_18h37.16.818,premceCat2_ses-02_part-02_label-phase2,2020.2.10,Win32,60,,,,,,,,,,,,,,,,0,128,128,54,1,stimuli/objects/stubbywrench01a.jpg,left,old,198,,,,,,,,
,,,,,,,,22,2021-11-22_18h37.16.818,premceCat2_ses-02_part-02_label-phase2,2020.2.10,Win32,60,,,,,right,0.7448,3,0.1371,,,,,,,,0,129,129,86,1,stimuli/objects/trampoline.jpg,right,new,230,,,,,,,,
,,,,,,,,22,2021-11-22_18h37.16.818,premceCat2_ses-02_part-02_label-phase2,2020.2.10,Win32,60,,,,,right,0.6808,4,0.0819,,,,,,,,0,130,130,133,1,stimuli/objects/birdie.jpg,right,new,277,,,,,,,,
,,,,,,,,22,2021-11-22_18h37.16.818,premceCat2_ses-02_part-02_label-phase2,2020.2.10,Win32,60,,,,,right,0.7575,4,0.0833,,,,,,,,0,131,131,62,1,stimuli/objects/pot01.jpg,left,old,206,,,,,,,,
,,,,,,,,22,2021-11-22_18h37.16.818,premceCat2_ses-02_part-02_label-phase2,2020.2.10,Win32,60,,,,,right,0.642,4,0.148,,,,,,,,0,132,132,5,1,stimuli/objects/pickaxe02.jpg,right,new,149,,,,,,,,
,,,,,,,,22,2021-11-22_18h37.16.818,premceCat2_ses-02_part-02_label-phase2,2020.2.10,Win32,60,,,,,right,0.6671,4,0.156,,,,,,,,0,133,133,9,1,stimuli/objects/alarmsystem.jpg,right,new,153,,,,,,,,
,,,,,,,,22,2021-11-22_18h37.16.818,premceCat2_ses-02_part-02_label-phase2,2020.2.10,Win32,60,,,,,right,0.6131,4,0.2004,,,,,,,,0,134,134,114,1,stimuli/objects/drinkshaker.jpg,right,new,258,,,,,,,,
,,,,,,,,22,2021-11-22_18h37.16.818,premceCat2_ses-02_part-02_label-phase2,2020.2.10,Win32,60,,,,,right,0.883,2,0.3599,,,,,,,,0,135,135,74,1,stimuli/objects/shinpad.jpg,left,old,218,,,,,,,,
,,,,,,,,22,2021-11-22_18h37.16.818,premceCat2_ses-02_part-02_label-phase2,2020.2.10,Win32,60,,,,,left,0.9418,4,0.1668,left,0.22,0,0,0,0,1,,,,,,,,,,,,,,,,,
,,,,,,,,22,2021-11-22_18h37.16.818,premceCat2_ses-02_part-02_label-phase2,2020.2.10,Win32,60,,,,,,,,,,,,,,,,0,136,136,67,1,stimuli/objects/fan.jpg,left,old,211,,,,,,,,
,,,,,,,,22,2021-11-22_18h37.16.818,premceCat2_ses-02_part-02_label-phase2,2020.2.10,Win32,60,,,,,right,1.3073,3,0.5466,,,,,,,,0,137,137,36,1,stimuli/objects/loppingshears.jpg,right,new,180,,,,,,,,
,,,,,,,,22,2021-11-22_18h37.16.818,premceCat2_ses-02_part-02_label-phase2,2020.2.10,Win32,60,,,,,right,2.0336,3,0.2064,,,,,,,,0,138,138,8,1,stimuli/objects/hammer01.jpg,left,old,152,,,,,,,,
,,,,,,,,22,2021-11-22_18h37.16.818,premceCat2_ses-02_part-02_label-phase2,2020.2.10,Win32,60,,,,,right,0.7411,2,0.2139,,,,,,,,0,139,139,119,1,stimuli/objects/muffintray01.jpg,left,old,263,,,,,,,,
,,,,,,,,22,2021-11-22_18h37.16.818,premceCat2_ses-02_part-02_label-phase2,2020.2.10,Win32,60,,,,,right,0.5487,4,0.1882,,,,,,,,0,140,140,28,1,stimuli/objects/canister.jpg,left,old,172,,,,,,,,
,,,,,,,,22,2021-11-22_18h37.16.818,premceCat2_ses-02_part-02_label-phase2,2020.2.10,Win32,60,,,,,right,0.7301,4,0.1853,,,,,,,,0,141,141,135,1,stimuli/objects/mortarandpestle.jpg,right,new,279,,,,,,,,
,,,,,,,,22,2021-11-22_18h37.16.818,premceCat2_ses-02_part-02_label-phase2,2020.2.10,Win32,60,,,,,right,0.6768,4,0.1337,,,,,,,,0,142,142,87,1,stimuli/objects/wiicontroller.jpg,right,new,231,,,,,,,,
,,,,,,,,22,2021-11-22_18h37.16.818,premceCat2_ses-02_part-02_label-phase2,2020.2.10,Win32,60,,,,,,,,,,,,,,,,,,,,,,,,,space,5.9861,0,1,1,1,1,condition_files/ImagesforRecog3_2.csv
