instructions_loop.thisRepN,instructions_loop.thisTrialN,instructions_loop.thisN,instructions_loop.thisIndex,instructions_loop.ran,text1,text2,text3,participant,date,expName,psychopyVersion,OS,frameRate,key_resp_2.keys,key_resp_2.rt,key_resp_3.keys,key_resp_3.rt,recog_resp.keys,recog_resp.rt,conf_resp.keys,conf_resp.rt,recog_loop.thisRepN,recog_loop.thisTrialN,recog_loop.thisN,recog_loop.thisIndex,recog_loop.ran,images,corr_ans,type,order,resp_assoc.keys,resp_assoc.rt,assoc_loop.thisRepN,assoc_loop.thisTrialN,assoc_loop.thisN,assoc_loop.thisIndex,assoc_loop.ran,key_resp_break.keys,key_resp_break.rt,list_loop.thisRepN,list_loop.thisTrialN,list_loop.thisN,list_loop.thisIndex,list_loop.ran,recog_list
0,0,0,0,1,Welcome to the last phase of this experiment!,.,Please press the space bar to continue,23,2021-11-26_10h33.16.110,premceCat2_ses-02_part-02_label-phase2,2020.2.10,MacIntel,60,,,,,,,,,,,,,,,,,,,,,,,,,,,,,,,,
0,1,1,1,1,.,"In this phase, you will see some objects. 

For each object, you should indicate whether you have seen it before during the experiment.

Press LEFT ARROW for YES
Press RIGHT ARROW for NO

",Please press the space bar to continue ,23,2021-11-26_10h33.16.110,premceCat2_ses-02_part-02_label-phase2,2020.2.10,MacIntel,60,,,,,,,,,,,,,,,,,,,,,,,,,,,,,,,,
0,2,2,2,1,.,"After that, you will be asked how confident you are of your choice.

Please rate the confidence in your choice with the numbers from 1 to 4 of your keyboard. 

The numbers correspond to:

1 = Very unsure
2 = Unsure
3 = Sure
4 = Very Sure",Please press the space bar to continue,23,2021-11-26_10h33.16.110,premceCat2_ses-02_part-02_label-phase2,2020.2.10,MacIntel,60,,,,,,,,,,,,,,,,,,,,,,,,,,,,,,,,
,,,,,,,,23,2021-11-26_10h33.16.110,premceCat2_ses-02_part-02_label-phase2,2020.2.10,MacIntel,60,space,11.336,space,15.5975,right,8.4748,2,1.1455,0,0,0,86,1,stimuli/objects/trampoline.jpg,right,new,230,,,,,,,,,,,,,,,
,,,,,,,,23,2021-11-26_10h33.16.110,premceCat2_ses-02_part-02_label-phase2,2020.2.10,MacIntel,60,,,,,right,2.6975,3,0.9617,0,1,1,127,1,stimuli/objects/skigoggles01.jpg,right,new,271,,,,,,,,,,,,,,,
,,,,,,,,23,2021-11-26_10h33.16.110,premceCat2_ses-02_part-02_label-phase2,2020.2.10,MacIntel,60,,,,,left,3.5541,3,0.6086,,,,,,,,,,right,4.1884,0,0,0,0,1,,,,,,,,
,,,,,,,,23,2021-11-26_10h33.16.110,premceCat2_ses-02_part-02_label-phase2,2020.2.10,MacIntel,60,,,,,,,,,0,2,2,24,1,stimuli/objects/monitor.jpg,right,new,168,,,,,,,,,,,,,,,
,,,,,,,,23,2021-11-26_10h33.16.110,premceCat2_ses-02_part-02_label-phase2,2020.2.10,MacIntel,60,,,,,left,1.579,4,1.531,,,,,,,,,,left,1.8054,0,0,0,0,1,,,,,,,,
,,,,,,,,23,2021-11-26_10h33.16.110,premceCat2_ses-02_part-02_label-phase2,2020.2.10,MacIntel,60,,,,,,,,,0,3,3,42,1,stimuli/objects/tennisracket.jpg,right,new,186,,,,,,,,,,,,,,,
,,,,,,,,23,2021-11-26_10h33.16.110,premceCat2_ses-02_part-02_label-phase2,2020.2.10,MacIntel,60,,,,,left,1.6741,4,1.6972,,,,,,,,,,right,0.9594,0,0,0,0,1,,,,,,,,
,,,,,,,,23,2021-11-26_10h33.16.110,premceCat2_ses-02_part-02_label-phase2,2020.2.10,MacIntel,60,,,,,,,,,0,4,4,108,1,stimuli/objects/outletadapter.jpg,left,old,252,,,,,,,,,,,,,,,
,,,,,,,,23,2021-11-26_10h33.16.110,premceCat2_ses-02_part-02_label-phase2,2020.2.10,MacIntel,60,,,,,left,1.2263,4,1.3622,,,,,,,,,,left,3.8789,0,0,0,0,1,,,,,,,,
,,,,,,,,23,2021-11-26_10h33.16.110,premceCat2_ses-02_part-02_label-phase2,2020.2.10,MacIntel,60,,,,,,,,,0,5,5,88,1,stimuli/objects/iceskate.jpg,left,old,232,,,,,,,,,,,,,,,
,,,,,,,,23,2021-11-26_10h33.16.110,premceCat2_ses-02_part-02_label-phase2,2020.2.10,MacIntel,60,,,,,left,5.846,2,3.4602,,,,,,,,,,right,0.7096,0,0,0,0,1,,,,,,,,
,,,,,,,,23,2021-11-26_10h33.16.110,premceCat2_ses-02_part-02_label-phase2,2020.2.10,MacIntel,60,,,,,,,,,0,6,6,81,1,stimuli/objects/grill.jpg,right,new,225,,,,,,,,,,,,,,,
,,,,,,,,23,2021-11-26_10h33.16.110,premceCat2_ses-02_part-02_label-phase2,2020.2.10,MacIntel,60,,,,,left,1.596,4,0.7282,,,,,,,,,,right,0.9609,0,0,0,0,1,,,,,,,,
,,,,,,,,23,2021-11-26_10h33.16.110,premceCat2_ses-02_part-02_label-phase2,2020.2.10,MacIntel,60,,,,,,,,,0,7,7,123,1,stimuli/objects/jackhammer.jpg,right,new,267,,,,,,,,,,,,,,,
,,,,,,,,23,2021-11-26_10h33.16.110,premceCat2_ses-02_part-02_label-phase2,2020.2.10,MacIntel,60,,,,,left,2.1917,4,0.8469,,,,,,,,,,left,2.1092,0,0,0,0,1,,,,,,,,
,,,,,,,,23,2021-11-26_10h33.16.110,premceCat2_ses-02_part-02_label-phase2,2020.2.10,MacIntel,60,,,,,,,,,0,8,8,139,1,stimuli/objects/pitcher02b.jpg,left,old,283,,,,,,,,,,,,,,,
,,,,,,,,23,2021-11-26_10h33.16.110,premceCat2_ses-02_part-02_label-phase2,2020.2.10,MacIntel,60,,,,,left,1.3243,3,0.5072,,,,,,,,,,left,3.4102,0,0,0,0,1,,,,,,,,
,,,,,,,,23,2021-11-26_10h33.16.110,premceCat2_ses-02_part-02_label-phase2,2020.2.10,MacIntel,60,,,,,,,,,0,9,9,44,1,stimuli/objects/toaster01.jpg,right,new,188,,,,,,,,,,,,,,,
,,,,,,,,23,2021-11-26_10h33.16.110,premceCat2_ses-02_part-02_label-phase2,2020.2.10,MacIntel,60,,,,,left,2.9422,2,0.6972,,,,,,,,,,right,5.6863,0,0,0,0,1,,,,,,,,
,,,,,,,,23,2021-11-26_10h33.16.110,premceCat2_ses-02_part-02_label-phase2,2020.2.10,MacIntel,60,,,,,,,,,0,10,10,138,1,stimuli/objects/beermug01a.jpg,right,new,282,,,,,,,,,,,,,,,
,,,,,,,,23,2021-11-26_10h33.16.110,premceCat2_ses-02_part-02_label-phase2,2020.2.10,MacIntel,60,,,,,left,1.4762,3,1.8252,,,,,,,,,,right,1.1257,0,0,0,0,1,,,,,,,,
,,,,,,,,23,2021-11-26_10h33.16.110,premceCat2_ses-02_part-02_label-phase2,2020.2.10,MacIntel,60,,,,,,,,,0,11,11,107,1,stimuli/objects/dolly01.jpg,right,new,251,,,,,,,,,,,,,,,
,,,,,,,,23,2021-11-26_10h33.16.110,premceCat2_ses-02_part-02_label-phase2,2020.2.10,MacIntel,60,,,,,right,2.5079,3,1.3127,0,12,12,33,1,stimuli/objects/scanner.jpg,left,old,177,,,,,,,,,,,,,,,
,,,,,,,,23,2021-11-26_10h33.16.110,premceCat2_ses-02_part-02_label-phase2,2020.2.10,MacIntel,60,,,,,left,1.4795,4,1.0617,,,,,,,,,,left,1.1928,0,0,0,0,1,,,,,,,,
,,,,,,,,23,2021-11-26_10h33.16.110,premceCat2_ses-02_part-02_label-phase2,2020.2.10,MacIntel,60,,,,,,,,,0,13,13,50,1,stimuli/objects/boatmotor.jpg,left,old,194,,,,,,,,,,,,,,,
,,,,,,,,23,2021-11-26_10h33.16.110,premceCat2_ses-02_part-02_label-phase2,2020.2.10,MacIntel,60,,,,,left,8.5523,1,0.5094,,,,,,,,,,left,2.3536,0,0,0,0,1,,,,,,,,
,,,,,,,,23,2021-11-26_10h33.16.110,premceCat2_ses-02_part-02_label-phase2,2020.2.10,MacIntel,60,,,,,,,,,0,14,14,26,1,stimuli/objects/flashlight02b.jpg,right,new,170,,,,,,,,,,,,,,,
,,,,,,,,23,2021-11-26_10h33.16.110,premceCat2_ses-02_part-02_label-phase2,2020.2.10,MacIntel,60,,,,,left,2.0063,2,1.0295,,,,,,,,,,right,0.4252,0,0,0,0,1,,,,,,,,
,,,,,,,,23,2021-11-26_10h33.16.110,premceCat2_ses-02_part-02_label-phase2,2020.2.10,MacIntel,60,,,,,,,,,0,15,15,48,1,stimuli/objects/eggslicer.jpg,right,new,192,,,,,,,,,,,,,,,
,,,,,,,,23,2021-11-26_10h33.16.110,premceCat2_ses-02_part-02_label-phase2,2020.2.10,MacIntel,60,,,,,left,2.5276,4,0.5706,,,,,,,,,,right,0.9441,0,0,0,0,1,,,,,,,,
,,,,,,,,23,2021-11-26_10h33.16.110,premceCat2_ses-02_part-02_label-phase2,2020.2.10,MacIntel,60,,,,,,,,,0,16,16,76,1,stimuli/objects/papershredder.jpg,left,old,220,,,,,,,,,,,,,,,
,,,,,,,,23,2021-11-26_10h33.16.110,premceCat2_ses-02_part-02_label-phase2,2020.2.10,MacIntel,60,,,,,left,2.3062,3,0.3948,,,,,,,,,,right,1.0789,0,0,0,0,1,,,,,,,,
,,,,,,,,23,2021-11-26_10h33.16.110,premceCat2_ses-02_part-02_label-phase2,2020.2.10,MacIntel,60,,,,,,,,,0,17,17,91,1,stimuli/objects/cuttingpliers02.jpg,right,new,235,,,,,,,,,,,,,,,
,,,,,,,,23,2021-11-26_10h33.16.110,premceCat2_ses-02_part-02_label-phase2,2020.2.10,MacIntel,60,,,,,left,1.425,4,0.5621,,,,,,,,,,right,2.4102,0,0,0,0,1,,,,,,,,
,,,,,,,,23,2021-11-26_10h33.16.110,premceCat2_ses-02_part-02_label-phase2,2020.2.10,MacIntel,60,,,,,,,,,0,18,18,100,1,stimuli/objects/setsquare.jpg,left,old,244,,,,,,,,,,,,,,,
,,,,,,,,23,2021-11-26_10h33.16.110,premceCat2_ses-02_part-02_label-phase2,2020.2.10,MacIntel,60,,,,,left,1.426,4,0.693,,,,,,,,,,left,0.4445,0,0,0,0,1,,,,,,,,
,,,,,,,,23,2021-11-26_10h33.16.110,premceCat2_ses-02_part-02_label-phase2,2020.2.10,MacIntel,60,,,,,,,,,0,19,19,32,1,stimuli/objects/travelmug.jpg,left,old,176,,,,,,,,,,,,,,,
,,,,,,,,23,2021-11-26_10h33.16.110,premceCat2_ses-02_part-02_label-phase2,2020.2.10,MacIntel,60,,,,,left,2.9929,4,0.7285,,,,,,,,,,right,1.6251,0,0,0,0,1,,,,,,,,
,,,,,,,,23,2021-11-26_10h33.16.110,premceCat2_ses-02_part-02_label-phase2,2020.2.10,MacIntel,60,,,,,,,,,0,20,20,52,1,stimuli/objects/usbkey.jpg,left,old,196,,,,,,,,,,,,,,,
,,,,,,,,23,2021-11-26_10h33.16.110,premceCat2_ses-02_part-02_label-phase2,2020.2.10,MacIntel,60,,,,,left,1.5012,3,0.2963,,,,,,,,,,left,2.6911,0,0,0,0,1,,,,,,,,
,,,,,,,,23,2021-11-26_10h33.16.110,premceCat2_ses-02_part-02_label-phase2,2020.2.10,MacIntel,60,,,,,,,,,0,21,21,141,1,stimuli/objects/waterbottle03.jpg,left,old,285,,,,,,,,,,,,,,,
,,,,,,,,23,2021-11-26_10h33.16.110,premceCat2_ses-02_part-02_label-phase2,2020.2.10,MacIntel,60,,,,,left,1.6421,3,0.3266,,,,,,,,,,left,0.3736,0,0,0,0,1,,,,,,,,
,,,,,,,,23,2021-11-26_10h33.16.110,premceCat2_ses-02_part-02_label-phase2,2020.2.10,MacIntel,60,,,,,,,,,0,22,22,46,1,stimuli/objects/waterbottleholder.jpg,right,new,190,,,,,,,,,,,,,,,
,,,,,,,,23,2021-11-26_10h33.16.110,premceCat2_ses-02_part-02_label-phase2,2020.2.10,MacIntel,60,,,,,right,2.7079,2,0.9436,0,23,23,126,1,stimuli/objects/bikewheel.jpg,left,old,270,,,,,,,,,,,,,,,
,,,,,,,,23,2021-11-26_10h33.16.110,premceCat2_ses-02_part-02_label-phase2,2020.2.10,MacIntel,60,,,,,right,2.9589,4,0.5083,0,24,24,9,1,stimuli/objects/alarmsystem.jpg,right,new,153,,,,,,,,,,,,,,,
,,,,,,,,23,2021-11-26_10h33.16.110,premceCat2_ses-02_part-02_label-phase2,2020.2.10,MacIntel,60,,,,,left,1.184,4,0.5593,,,,,,,,,,left,2.0425,0,0,0,0,1,,,,,,,,
,,,,,,,,23,2021-11-26_10h33.16.110,premceCat2_ses-02_part-02_label-phase2,2020.2.10,MacIntel,60,,,,,,,,,0,25,25,73,1,stimuli/objects/shinpad.jpg,left,old,217,,,,,,,,,,,,,,,
,,,,,,,,23,2021-11-26_10h33.16.110,premceCat2_ses-02_part-02_label-phase2,2020.2.10,MacIntel,60,,,,,left,1.1274,4,0.4919,,,,,,,,,,right,0.2917,0,0,0,0,1,,,,,,,,
,,,,,,,,23,2021-11-26_10h33.16.110,premceCat2_ses-02_part-02_label-phase2,2020.2.10,MacIntel,60,,,,,,,,,0,26,26,104,1,stimuli/objects/securitycamera.jpg,left,old,248,,,,,,,,,,,,,,,
,,,,,,,,23,2021-11-26_10h33.16.110,premceCat2_ses-02_part-02_label-phase2,2020.2.10,MacIntel,60,,,,,left,2.1247,4,0.9234,,,,,,,,,,right,2.0781,0,0,0,0,1,,,,,,,,
,,,,,,,,23,2021-11-26_10h33.16.110,premceCat2_ses-02_part-02_label-phase2,2020.2.10,MacIntel,60,,,,,,,,,0,27,27,29,1,stimuli/objects/slidetray.jpg,left,old,173,,,,,,,,,,,,,,,
,,,,,,,,23,2021-11-26_10h33.16.110,premceCat2_ses-02_part-02_label-phase2,2020.2.10,MacIntel,60,,,,,left,2.205,4,0.2946,,,,,,,,,,left,2.0089,0,0,0,0,1,,,,,,,,
,,,,,,,,23,2021-11-26_10h33.16.110,premceCat2_ses-02_part-02_label-phase2,2020.2.10,MacIntel,60,,,,,,,,,0,28,28,38,1,stimuli/objects/contactlens.jpg,left,old,182,,,,,,,,,,,,,,,
,,,,,,,,23,2021-11-26_10h33.16.110,premceCat2_ses-02_part-02_label-phase2,2020.2.10,MacIntel,60,,,,,left,1.325,4,0.3917,,,,,,,,,,left,0.4065,0,0,0,0,1,,,,,,,,
,,,,,,,,23,2021-11-26_10h33.16.110,premceCat2_ses-02_part-02_label-phase2,2020.2.10,MacIntel,60,,,,,,,,,0,29,29,90,1,stimuli/objects/fishinghook03.jpg,left,old,234,,,,,,,,,,,,,,,
,,,,,,,,23,2021-11-26_10h33.16.110,premceCat2_ses-02_part-02_label-phase2,2020.2.10,MacIntel,60,,,,,left,1.01,4,0.2783,,,,,,,,,,left,0.3112,0,0,0,0,1,,,,,,,,
,,,,,,,,23,2021-11-26_10h33.16.110,premceCat2_ses-02_part-02_label-phase2,2020.2.10,MacIntel,60,,,,,,,,,0,30,30,122,1,stimuli/objects/hockeystick.jpg,right,new,266,,,,,,,,,,,,,,,
,,,,,,,,23,2021-11-26_10h33.16.110,premceCat2_ses-02_part-02_label-phase2,2020.2.10,MacIntel,60,,,,,left,1.6536,3,1.0072,,,,,,,,,,left,0.3723,0,0,0,0,1,,,,,,,,
,,,,,,,,23,2021-11-26_10h33.16.110,premceCat2_ses-02_part-02_label-phase2,2020.2.10,MacIntel,60,,,,,,,,,0,31,31,98,1,stimuli/objects/cameracase01a.jpg,right,new,242,,,,,,,,,,,,,,,
,,,,,,,,23,2021-11-26_10h33.16.110,premceCat2_ses-02_part-02_label-phase2,2020.2.10,MacIntel,60,,,,,left,0.9573,4,0.3748,,,,,,,,,,right,0.3115,0,0,0,0,1,,,,,,,,
,,,,,,,,23,2021-11-26_10h33.16.110,premceCat2_ses-02_part-02_label-phase2,2020.2.10,MacIntel,60,,,,,,,,,0,32,32,89,1,stimuli/objects/rollingpin01a.jpg,left,old,233,,,,,,,,,,,,,,,
,,,,,,,,23,2021-11-26_10h33.16.110,premceCat2_ses-02_part-02_label-phase2,2020.2.10,MacIntel,60,,,,,left,1.0917,4,0.3615,,,,,,,,,,left,4.71,0,0,0,0,1,,,,,,,,
,,,,,,,,23,2021-11-26_10h33.16.110,premceCat2_ses-02_part-02_label-phase2,2020.2.10,MacIntel,60,,,,,,,,,0,33,33,1,1,stimuli/objects/satellitedish01.jpg,left,old,145,,,,,,,,,,,,,,,
,,,,,,,,23,2021-11-26_10h33.16.110,premceCat2_ses-02_part-02_label-phase2,2020.2.10,MacIntel,60,,,,,left,0.9404,4,0.1779,,,,,,,,,,left,0.3033,0,0,0,0,1,,,,,,,,
,,,,,,,,23,2021-11-26_10h33.16.110,premceCat2_ses-02_part-02_label-phase2,2020.2.10,MacIntel,60,,,,,,,,,0,34,34,79,1,stimuli/objects/bikehelmet.jpg,left,old,223,,,,,,,,,,,,,,,
,,,,,,,,23,2021-11-26_10h33.16.110,premceCat2_ses-02_part-02_label-phase2,2020.2.10,MacIntel,60,,,,,left,0.9585,4,0.4283,,,,,,,,,,right,0.7429,0,0,0,0,1,,,,,,,,
,,,,,,,,23,2021-11-26_10h33.16.110,premceCat2_ses-02_part-02_label-phase2,2020.2.10,MacIntel,60,,,,,,,,,0,35,35,92,1,stimuli/objects/axe01.jpg,left,old,236,,,,,,,,,,,,,,,
,,,,,,,,23,2021-11-26_10h33.16.110,premceCat2_ses-02_part-02_label-phase2,2020.2.10,MacIntel,60,,,,,left,1.2833,3,0.1142,,,,,,,,,,right,0.2092,0,0,0,0,1,,,,,,,,
,,,,,,,,23,2021-11-26_10h33.16.110,premceCat2_ses-02_part-02_label-phase2,2020.2.10,MacIntel,60,,,,,,,,,0,36,36,135,1,stimuli/objects/mortarandpestle.jpg,right,new,279,,,,,,,,,,,,,,,
,,,,,,,,23,2021-11-26_10h33.16.110,premceCat2_ses-02_part-02_label-phase2,2020.2.10,MacIntel,60,,,,,left,1.5751,3,2.6922,,,,,,,,,,left,0.291,0,0,0,0,1,,,,,,,,
,,,,,,,,23,2021-11-26_10h33.16.110,premceCat2_ses-02_part-02_label-phase2,2020.2.10,MacIntel,60,,,,,,,,,0,37,37,140,1,stimuli/objects/wineglass01.jpg,right,new,284,,,,,,,,,,,,,,,
,,,,,,,,23,2021-11-26_10h33.16.110,premceCat2_ses-02_part-02_label-phase2,2020.2.10,MacIntel,60,,,,,right,1.4094,2,0.5603,0,38,38,120,1,stimuli/objects/tent.jpg,right,new,264,,,,,,,,,,,,,,,
,,,,,,,,23,2021-11-26_10h33.16.110,premceCat2_ses-02_part-02_label-phase2,2020.2.10,MacIntel,60,,,,,right,2.7732,2,0.3089,0,39,39,83,1,stimuli/objects/icecubetray01a.jpg,right,new,227,,,,,,,,,,,,,,,
,,,,,,,,23,2021-11-26_10h33.16.110,premceCat2_ses-02_part-02_label-phase2,2020.2.10,MacIntel,60,,,,,left,1.1885,4,0.3953,,,,,,,,,,right,0.5144,0,0,0,0,1,,,,,,,,
,,,,,,,,23,2021-11-26_10h33.16.110,premceCat2_ses-02_part-02_label-phase2,2020.2.10,MacIntel,60,,,,,,,,,0,40,40,21,1,stimuli/objects/gluetube.jpg,left,old,165,,,,,,,,,,,,,,,
,,,,,,,,23,2021-11-26_10h33.16.110,premceCat2_ses-02_part-02_label-phase2,2020.2.10,MacIntel,60,,,,,left,1.919,4,0.7281,,,,,,,,,,left,0.3073,0,0,0,0,1,,,,,,,,
,,,,,,,,23,2021-11-26_10h33.16.110,premceCat2_ses-02_part-02_label-phase2,2020.2.10,MacIntel,60,,,,,,,,,0,41,41,64,1,stimuli/objects/exercisemachine.jpg,left,old,208,,,,,,,,,,,,,,,
,,,,,,,,23,2021-11-26_10h33.16.110,premceCat2_ses-02_part-02_label-phase2,2020.2.10,MacIntel,60,,,,,left,1.8582,4,0.5254,,,,,,,,,,left,0.9085,0,0,0,0,1,,,,,,,,
,,,,,,,,23,2021-11-26_10h33.16.110,premceCat2_ses-02_part-02_label-phase2,2020.2.10,MacIntel,60,,,,,,,,,0,42,42,18,1,stimuli/objects/fanblades.jpg,left,old,162,,,,,,,,,,,,,,,
,,,,,,,,23,2021-11-26_10h33.16.110,premceCat2_ses-02_part-02_label-phase2,2020.2.10,MacIntel,60,,,,,left,1.2051,4,0.7089,,,,,,,,,,right,0.3234,0,0,0,0,1,,,,,,,,
,,,,,,,,23,2021-11-26_10h33.16.110,premceCat2_ses-02_part-02_label-phase2,2020.2.10,MacIntel,60,,,,,,,,,0,43,43,125,1,stimuli/objects/leafrake.jpg,left,old,269,,,,,,,,,,,,,,,
,,,,,,,,23,2021-11-26_10h33.16.110,premceCat2_ses-02_part-02_label-phase2,2020.2.10,MacIntel,60,,,,,left,0.9048,4,0.4673,,,,,,,,,,left,0.5949,0,0,0,0,1,,,,,,,,
,,,,,,,,23,2021-11-26_10h33.16.110,premceCat2_ses-02_part-02_label-phase2,2020.2.10,MacIntel,60,,,,,,,,,0,44,44,110,1,stimuli/objects/fishingrod.jpg,left,old,254,,,,,,,,,,,,,,,
,,,,,,,,23,2021-11-26_10h33.16.110,premceCat2_ses-02_part-02_label-phase2,2020.2.10,MacIntel,60,,,,,left,2.7391,3,0.2969,,,,,,,,,,right,2.6224,0,0,0,0,1,,,,,,,,
,,,,,,,,23,2021-11-26_10h33.16.110,premceCat2_ses-02_part-02_label-phase2,2020.2.10,MacIntel,60,,,,,,,,,0,45,45,49,1,stimuli/objects/cakeplatter.jpg,right,new,193,,,,,,,,,,,,,,,
,,,,,,,,23,2021-11-26_10h33.16.110,premceCat2_ses-02_part-02_label-phase2,2020.2.10,MacIntel,60,,,,,left,2.8557,3,0.6107,,,,,,,,,,right,0.424,0,0,0,0,1,,,,,,,,
,,,,,,,,23,2021-11-26_10h33.16.110,premceCat2_ses-02_part-02_label-phase2,2020.2.10,MacIntel,60,,,,,,,,,0,46,46,66,1,stimuli/objects/heatpump.jpg,right,new,210,,,,,,,,,,,,,,,
,,,,,,,,23,2021-11-26_10h33.16.110,premceCat2_ses-02_part-02_label-phase2,2020.2.10,MacIntel,60,,,,,left,1.691,4,0.3106,,,,,,,,,,left,0.2447,0,0,0,0,1,,,,,,,,
,,,,,,,,23,2021-11-26_10h33.16.110,premceCat2_ses-02_part-02_label-phase2,2020.2.10,MacIntel,60,,,,,,,,,0,47,47,14,1,stimuli/objects/weight01.jpg,left,old,158,,,,,,,,,,,,,,,
,,,,,,,,23,2021-11-26_10h33.16.110,premceCat2_ses-02_part-02_label-phase2,2020.2.10,MacIntel,60,,,,,right,6.6084,1,0.8588,0,48,48,51,1,stimuli/objects/cheeseknife01.jpg,right,new,195,,,,,,,,,,,,,,,
,,,,,,,,23,2021-11-26_10h33.16.110,premceCat2_ses-02_part-02_label-phase2,2020.2.10,MacIntel,60,,,,,left,2.6572,2,0.3273,,,,,,,,,,right,0.0131,0,0,0,0,1,,,,,,,,
,,,,,,,,23,2021-11-26_10h33.16.110,premceCat2_ses-02_part-02_label-phase2,2020.2.10,MacIntel,60,,,,,,,,,0,49,49,4,1,stimuli/objects/cassettetape01a.jpg,right,new,148,,,,,,,,,,,,,,,
,,,,,,,,23,2021-11-26_10h33.16.110,premceCat2_ses-02_part-02_label-phase2,2020.2.10,MacIntel,60,,,,,left,1.4222,3,2.3611,,,,,,,,,,right,0.4424,0,0,0,0,1,,,,,,,,
,,,,,,,,23,2021-11-26_10h33.16.110,premceCat2_ses-02_part-02_label-phase2,2020.2.10,MacIntel,60,,,,,,,,,0,50,50,114,1,stimuli/objects/drinkshaker.jpg,right,new,258,,,,,,,,,,,,,,,
,,,,,,,,23,2021-11-26_10h33.16.110,premceCat2_ses-02_part-02_label-phase2,2020.2.10,MacIntel,60,,,,,left,2.5379,4,0.5618,,,,,,,,,,right,1.6949,0,0,0,0,1,,,,,,,,
,,,,,,,,23,2021-11-26_10h33.16.110,premceCat2_ses-02_part-02_label-phase2,2020.2.10,MacIntel,60,,,,,,,,,0,51,51,134,1,stimuli/objects/electricoutlet.jpg,left,old,278,,,,,,,,,,,,,,,
,,,,,,,,23,2021-11-26_10h33.16.110,premceCat2_ses-02_part-02_label-phase2,2020.2.10,MacIntel,60,,,,,left,1.4216,4,1.6433,,,,,,,,,,left,0.426,0,0,0,0,1,,,,,,,,
,,,,,,,,23,2021-11-26_10h33.16.110,premceCat2_ses-02_part-02_label-phase2,2020.2.10,MacIntel,60,,,,,,,,,0,52,52,56,1,stimuli/objects/cork02.jpg,left,old,200,,,,,,,,,,,,,,,
,,,,,,,,23,2021-11-26_10h33.16.110,premceCat2_ses-02_part-02_label-phase2,2020.2.10,MacIntel,60,,,,,left,1.3937,4,0.8106,,,,,,,,,,right,0.2938,0,0,0,0,1,,,,,,,,
,,,,,,,,23,2021-11-26_10h33.16.110,premceCat2_ses-02_part-02_label-phase2,2020.2.10,MacIntel,60,,,,,,,,,0,53,53,40,1,stimuli/objects/tablesaw.jpg,right,new,184,,,,,,,,,,,,,,,
,,,,,,,,23,2021-11-26_10h33.16.110,premceCat2_ses-02_part-02_label-phase2,2020.2.10,MacIntel,60,,,,,left,1.3646,3,1.9535,,,,,,,,,,left,0.8735,0,0,0,0,1,,,,,,,,
,,,,,,,,23,2021-11-26_10h33.16.110,premceCat2_ses-02_part-02_label-phase2,2020.2.10,MacIntel,60,,,,,,,,,0,54,54,95,1,stimuli/objects/tennisball01b.jpg,right,new,239,,,,,,,,,,,,,,,
,,,,,,,,23,2021-11-26_10h33.16.110,premceCat2_ses-02_part-02_label-phase2,2020.2.10,MacIntel,60,,,,,left,2.4922,4,0.6117,,,,,,,,,,left,2.5113,0,0,0,0,1,,,,,,,,
,,,,,,,,23,2021-11-26_10h33.16.110,premceCat2_ses-02_part-02_label-phase2,2020.2.10,MacIntel,60,,,,,,,,,0,55,55,61,1,stimuli/objects/flooringstapler.jpg,left,old,205,,,,,,,,,,,,,,,
,,,,,,,,23,2021-11-26_10h33.16.110,premceCat2_ses-02_part-02_label-phase2,2020.2.10,MacIntel,60,,,,,left,1.5143,4,1.929,,,,,,,,,,right,0.9571,0,0,0,0,1,,,,,,,,
,,,,,,,,23,2021-11-26_10h33.16.110,premceCat2_ses-02_part-02_label-phase2,2020.2.10,MacIntel,60,,,,,,,,,0,56,56,53,1,stimuli/objects/staplegun.jpg,left,old,197,,,,,,,,,,,,,,,
,,,,,,,,23,2021-11-26_10h33.16.110,premceCat2_ses-02_part-02_label-phase2,2020.2.10,MacIntel,60,,,,,left,2.2382,3,0.435,,,,,,,,,,left,0.6288,0,0,0,0,1,,,,,,,,
,,,,,,,,23,2021-11-26_10h33.16.110,premceCat2_ses-02_part-02_label-phase2,2020.2.10,MacIntel,60,,,,,,,,,0,57,57,124,1,stimuli/objects/basketball01.jpg,right,new,268,,,,,,,,,,,,,,,
,,,,,,,,23,2021-11-26_10h33.16.110,premceCat2_ses-02_part-02_label-phase2,2020.2.10,MacIntel,60,,,,,right,6.3723,1,1.564,0,58,58,35,1,stimuli/objects/stroller.jpg,right,new,179,,,,,,,,,,,,,,,
,,,,,,,,23,2021-11-26_10h33.16.110,premceCat2_ses-02_part-02_label-phase2,2020.2.10,MacIntel,60,,,,,left,1.0381,4,0.5113,,,,,,,,,,right,0.2634,0,0,0,0,1,,,,,,,,
,,,,,,,,23,2021-11-26_10h33.16.110,premceCat2_ses-02_part-02_label-phase2,2020.2.10,MacIntel,60,,,,,,,,,0,59,59,8,1,stimuli/objects/tape02a.jpg,left,old,152,,,,,,,,,,,,,,,
,,,,,,,,23,2021-11-26_10h33.16.110,premceCat2_ses-02_part-02_label-phase2,2020.2.10,MacIntel,60,,,,,left,1.9582,4,0.511,,,,,,,,,,right,0.4925,0,0,0,0,1,,,,,,,,
,,,,,,,,23,2021-11-26_10h33.16.110,premceCat2_ses-02_part-02_label-phase2,2020.2.10,MacIntel,60,,,,,,,,,0,60,60,118,1,stimuli/objects/caulking.jpg,left,old,262,,,,,,,,,,,,,,,
,,,,,,,,23,2021-11-26_10h33.16.110,premceCat2_ses-02_part-02_label-phase2,2020.2.10,MacIntel,60,,,,,left,1.0384,4,0.8118,,,,,,,,,,right,0.3774,0,0,0,0,1,,,,,,,,
,,,,,,,,23,2021-11-26_10h33.16.110,premceCat2_ses-02_part-02_label-phase2,2020.2.10,MacIntel,60,,,,,,,,,0,61,61,22,1,stimuli/objects/aircompressor.jpg,left,old,166,,,,,,,,,,,,,,,
,,,,,,,,23,2021-11-26_10h33.16.110,premceCat2_ses-02_part-02_label-phase2,2020.2.10,MacIntel,60,,,,,left,1.0402,4,0.9427,,,,,,,,,,left,0.5434,0,0,0,0,1,,,,,,,,
,,,,,,,,23,2021-11-26_10h33.16.110,premceCat2_ses-02_part-02_label-phase2,2020.2.10,MacIntel,60,,,,,,,,,0,62,62,136,1,stimuli/objects/skihelmet01.jpg,left,old,280,,,,,,,,,,,,,,,
,,,,,,,,23,2021-11-26_10h33.16.110,premceCat2_ses-02_part-02_label-phase2,2020.2.10,MacIntel,60,,,,,right,4.371,2,0.5127,0,63,63,39,1,stimuli/objects/wafflemaker.jpg,right,new,183,,,,,,,,,,,,,,,
,,,,,,,,23,2021-11-26_10h33.16.110,premceCat2_ses-02_part-02_label-phase2,2020.2.10,MacIntel,60,,,,,right,0.6089,2,4.1962,0,64,64,45,1,stimuli/objects/charcoalbarbecue.jpg,left,old,189,,,,,,,,,,,,,,,
,,,,,,,,23,2021-11-26_10h33.16.110,premceCat2_ses-02_part-02_label-phase2,2020.2.10,MacIntel,60,,,,,left,1.2397,4,0.8533,,,,,,,,,,right,0.5591,0,0,0,0,1,,,,,,,,
,,,,,,,,23,2021-11-26_10h33.16.110,premceCat2_ses-02_part-02_label-phase2,2020.2.10,MacIntel,60,,,,,,,,,0,65,65,67,1,stimuli/objects/desktopcomputer.jpg,left,old,211,,,,,,,,,,,,,,,
,,,,,,,,23,2021-11-26_10h33.16.110,premceCat2_ses-02_part-02_label-phase2,2020.2.10,MacIntel,60,,,,,left,1.3912,4,0.3442,,,,,,,,,,left,1.2185,0,0,0,0,1,,,,,,,,
,,,,,,,,23,2021-11-26_10h33.16.110,premceCat2_ses-02_part-02_label-phase2,2020.2.10,MacIntel,60,,,,,,,,,0,66,66,112,1,stimuli/objects/wire.jpg,left,old,256,,,,,,,,,,,,,,,
,,,,,,,,23,2021-11-26_10h33.16.110,premceCat2_ses-02_part-02_label-phase2,2020.2.10,MacIntel,60,,,,,right,2.3377,3,0.7642,0,67,67,103,1,stimuli/objects/swissarmyknife01a.jpg,right,new,247,,,,,,,,,,,,,,,
,,,,,,,,23,2021-11-26_10h33.16.110,premceCat2_ses-02_part-02_label-phase2,2020.2.10,MacIntel,60,,,,,left,1.3087,4,0.3212,,,,,,,,,,left,2.3758,0,0,0,0,1,,,,,,,,
,,,,,,,,23,2021-11-26_10h33.16.110,premceCat2_ses-02_part-02_label-phase2,2020.2.10,MacIntel,60,,,,,,,,,0,68,68,37,1,stimuli/objects/expansioncard.jpg,left,old,181,,,,,,,,,,,,,,,
,,,,,,,,23,2021-11-26_10h33.16.110,premceCat2_ses-02_part-02_label-phase2,2020.2.10,MacIntel,60,,,,,left,1.2234,4,0.8451,,,,,,,,,,right,0.8119,0,0,0,0,1,,,,,,,,
,,,,,,,,23,2021-11-26_10h33.16.110,premceCat2_ses-02_part-02_label-phase2,2020.2.10,MacIntel,60,,,,,,,,,0,69,69,72,1,stimuli/objects/paintroller01.jpg,left,old,216,,,,,,,,,,,,,,,
,,,,,,,,23,2021-11-26_10h33.16.110,premceCat2_ses-02_part-02_label-phase2,2020.2.10,MacIntel,60,,,,,left,1.3071,4,0.3386,,,,,,,,,,left,1.7071,0,0,0,0,1,,,,,,,,
,,,,,,,,23,2021-11-26_10h33.16.110,premceCat2_ses-02_part-02_label-phase2,2020.2.10,MacIntel,60,,,,,,,,,0,70,70,47,1,stimuli/objects/plate01b.jpg,right,new,191,,,,,,,,,,,,,,,
,,,,,,,,23,2021-11-26_10h33.16.110,premceCat2_ses-02_part-02_label-phase2,2020.2.10,MacIntel,60,,,,,left,1.059,4,0.3601,,,,,,,,,,right,0.8937,0,0,0,0,1,,,,,,,,
,,,,,,,,23,2021-11-26_10h33.16.110,premceCat2_ses-02_part-02_label-phase2,2020.2.10,MacIntel,60,,,,,,,,,0,71,71,54,1,stimuli/objects/ladder.jpg,left,old,198,,,,,,,,,,,,,,,
,,,,,,,,23,2021-11-26_10h33.16.110,premceCat2_ses-02_part-02_label-phase2,2020.2.10,MacIntel,60,,,,,left,0.9714,4,0.6928,,,,,,,,,,left,0.4204,0,0,0,0,1,,,,,,,,
,,,,,,,,23,2021-11-26_10h33.16.110,premceCat2_ses-02_part-02_label-phase2,2020.2.10,MacIntel,60,,,,,,,,,0,72,72,68,1,stimuli/objects/ladle02a.jpg,right,new,212,,,,,,,,,,,,,,,
,,,,,,,,23,2021-11-26_10h33.16.110,premceCat2_ses-02_part-02_label-phase2,2020.2.10,MacIntel,60,,,,,left,1.6229,3,0.375,,,,,,,,,,right,1.5101,0,0,0,0,1,,,,,,,,
,,,,,,,,23,2021-11-26_10h33.16.110,premceCat2_ses-02_part-02_label-phase2,2020.2.10,MacIntel,60,,,,,,,,,0,73,73,15,1,stimuli/objects/computermouse06.jpg,right,new,159,,,,,,,,,,,,,,,
,,,,,,,,23,2021-11-26_10h33.16.110,premceCat2_ses-02_part-02_label-phase2,2020.2.10,MacIntel,60,,,,,left,1.2213,4,0.3206,,,,,,,,,,left,0.3429,0,0,0,0,1,,,,,,,,
,,,,,,,,23,2021-11-26_10h33.16.110,premceCat2_ses-02_part-02_label-phase2,2020.2.10,MacIntel,60,,,,,,,,,0,74,74,23,1,stimuli/objects/surfboard.jpg,left,old,167,,,,,,,,,,,,,,,
,,,,,,,,23,2021-11-26_10h33.16.110,premceCat2_ses-02_part-02_label-phase2,2020.2.10,MacIntel,60,,,,,left,2.159,4,0.4308,,,,,,,,,,right,0.5307,0,0,0,0,1,,,,,,,,
,,,,,,,,23,2021-11-26_10h33.16.110,premceCat2_ses-02_part-02_label-phase2,2020.2.10,MacIntel,60,,,,,,,,,0,75,75,43,1,stimuli/objects/bowrake.jpg,right,new,187,,,,,,,,,,,,,,,
,,,,,,,,23,2021-11-26_10h33.16.110,premceCat2_ses-02_part-02_label-phase2,2020.2.10,MacIntel,60,,,,,left,1.0881,3,0.6602,,,,,,,,,,right,1.0765,0,0,0,0,1,,,,,,,,
,,,,,,,,23,2021-11-26_10h33.16.110,premceCat2_ses-02_part-02_label-phase2,2020.2.10,MacIntel,60,,,,,,,,,0,76,76,82,1,stimuli/objects/shopvac.jpg,right,new,226,,,,,,,,,,,,,,,
,,,,,,,,23,2021-11-26_10h33.16.110,premceCat2_ses-02_part-02_label-phase2,2020.2.10,MacIntel,60,,,,,right,3.5719,3,1.7108,0,77,77,133,1,stimuli/objects/birdie.jpg,right,new,277,,,,,,,,,,,,,,,
,,,,,,,,23,2021-11-26_10h33.16.110,premceCat2_ses-02_part-02_label-phase2,2020.2.10,MacIntel,60,,,,,left,1.1222,4,0.3427,,,,,,,,,,left,0.8443,0,0,0,0,1,,,,,,,,
,,,,,,,,23,2021-11-26_10h33.16.110,premceCat2_ses-02_part-02_label-phase2,2020.2.10,MacIntel,60,,,,,,,,,0,78,78,63,1,stimuli/objects/coffeepot03a.jpg,left,old,207,,,,,,,,,,,,,,,
,,,,,,,,23,2021-11-26_10h33.16.110,premceCat2_ses-02_part-02_label-phase2,2020.2.10,MacIntel,60,,,,,left,2.3502,3,0.3039,,,,,,,,,,left,1.2421,0,0,0,0,1,,,,,,,,
,,,,,,,,23,2021-11-26_10h33.16.110,premceCat2_ses-02_part-02_label-phase2,2020.2.10,MacIntel,60,,,,,,,,,0,79,79,28,1,stimuli/objects/oven.jpg,left,old,172,,,,,,,,,,,,,,,
,,,,,,,,23,2021-11-26_10h33.16.110,premceCat2_ses-02_part-02_label-phase2,2020.2.10,MacIntel,60,,,,,left,1.0045,4,0.3048,,,,,,,,,,right,1.3951,0,0,0,0,1,,,,,,,,
,,,,,,,,23,2021-11-26_10h33.16.110,premceCat2_ses-02_part-02_label-phase2,2020.2.10,MacIntel,60,,,,,,,,,0,80,80,119,1,stimuli/objects/servingspoon01.jpg,left,old,263,,,,,,,,,,,,,,,
,,,,,,,,23,2021-11-26_10h33.16.110,premceCat2_ses-02_part-02_label-phase2,2020.2.10,MacIntel,60,,,,,right,4.3888,2,1.2932,0,81,81,87,1,stimuli/objects/wiicontroller.jpg,right,new,231,,,,,,,,,,,,,,,
,,,,,,,,23,2021-11-26_10h33.16.110,premceCat2_ses-02_part-02_label-phase2,2020.2.10,MacIntel,60,,,,,right,1.1405,3,0.3957,0,82,82,131,1,stimuli/objects/handblender.jpg,right,new,275,,,,,,,,,,,,,,,
,,,,,,,,23,2021-11-26_10h33.16.110,premceCat2_ses-02_part-02_label-phase2,2020.2.10,MacIntel,60,,,,,left,1.0409,3,0.4318,,,,,,,,,,left,0.6783,0,0,0,0,1,,,,,,,,
,,,,,,,,23,2021-11-26_10h33.16.110,premceCat2_ses-02_part-02_label-phase2,2020.2.10,MacIntel,60,,,,,,,,,0,83,83,19,1,stimuli/objects/mug01.jpg,right,new,163,,,,,,,,,,,,,,,
,,,,,,,,23,2021-11-26_10h33.16.110,premceCat2_ses-02_part-02_label-phase2,2020.2.10,MacIntel,60,,,,,left,1.3576,3,1.5624,,,,,,,,,,right,2.3766,0,0,0,0,1,,,,,,,,
,,,,,,,,23,2021-11-26_10h33.16.110,premceCat2_ses-02_part-02_label-phase2,2020.2.10,MacIntel,60,,,,,,,,,0,84,84,5,1,stimuli/objects/pickaxe02.jpg,right,new,149,,,,,,,,,,,,,,,
,,,,,,,,23,2021-11-26_10h33.16.110,premceCat2_ses-02_part-02_label-phase2,2020.2.10,MacIntel,60,,,,,right,5.5708,2,1.745,0,85,85,12,1,stimuli/objects/fanheater.jpg,right,new,156,,,,,,,,,,,,,,,
,,,,,,,,23,2021-11-26_10h33.16.110,premceCat2_ses-02_part-02_label-phase2,2020.2.10,MacIntel,60,,,,,right,2.7258,2,0.2633,0,86,86,55,1,stimuli/objects/fonduefork01.jpg,right,new,199,,,,,,,,,,,,,,,
,,,,,,,,23,2021-11-26_10h33.16.110,premceCat2_ses-02_part-02_label-phase2,2020.2.10,MacIntel,60,,,,,left,2.0715,2,0.4306,,,,,,,,,,right,0.2384,0,0,0,0,1,,,,,,,,
,,,,,,,,23,2021-11-26_10h33.16.110,premceCat2_ses-02_part-02_label-phase2,2020.2.10,MacIntel,60,,,,,,,,,0,87,87,78,1,stimuli/objects/lightswitch01.jpg,right,new,222,,,,,,,,,,,,,,,
,,,,,,,,23,2021-11-26_10h33.16.110,premceCat2_ses-02_part-02_label-phase2,2020.2.10,MacIntel,60,,,,,left,1.423,4,0.3121,,,,,,,,,,right,4.8793,0,0,0,0,1,,,,,,,,
,,,,,,,,23,2021-11-26_10h33.16.110,premceCat2_ses-02_part-02_label-phase2,2020.2.10,MacIntel,60,,,,,,,,,0,88,88,115,1,stimuli/objects/toothpick02.jpg,left,old,259,,,,,,,,,,,,,,,
,,,,,,,,23,2021-11-26_10h33.16.110,premceCat2_ses-02_part-02_label-phase2,2020.2.10,MacIntel,60,,,,,left,1.7057,4,1.1467,,,,,,,,,,left,0.6612,0,0,0,0,1,,,,,,,,
,,,,,,,,23,2021-11-26_10h33.16.110,premceCat2_ses-02_part-02_label-phase2,2020.2.10,MacIntel,60,,,,,,,,,0,89,89,80,1,stimuli/objects/barbecue03.jpg,right,new,224,,,,,,,,,,,,,,,
,,,,,,,,23,2021-11-26_10h33.16.110,premceCat2_ses-02_part-02_label-phase2,2020.2.10,MacIntel,60,,,,,left,1.1915,4,0.7438,,,,,,,,,,right,0.311,0,0,0,0,1,,,,,,,,
,,,,,,,,23,2021-11-26_10h33.16.110,premceCat2_ses-02_part-02_label-phase2,2020.2.10,MacIntel,60,,,,,,,,,0,90,90,142,1,stimuli/objects/needlenosepliers01.jpg,right,new,286,,,,,,,,,,,,,,,
,,,,,,,,23,2021-11-26_10h33.16.110,premceCat2_ses-02_part-02_label-phase2,2020.2.10,MacIntel,60,,,,,left,1.4922,2,2.0773,,,,,,,,,,right,2.9792,0,0,0,0,1,,,,,,,,
,,,,,,,,23,2021-11-26_10h33.16.110,premceCat2_ses-02_part-02_label-phase2,2020.2.10,MacIntel,60,,,,,,,,,0,91,91,99,1,stimuli/objects/floodlight.jpg,right,new,243,,,,,,,,,,,,,,,
,,,,,,,,23,2021-11-26_10h33.16.110,premceCat2_ses-02_part-02_label-phase2,2020.2.10,MacIntel,60,,,,,left,1.6081,3,0.2747,,,,,,,,,,right,0.894,0,0,0,0,1,,,,,,,,
,,,,,,,,23,2021-11-26_10h33.16.110,premceCat2_ses-02_part-02_label-phase2,2020.2.10,MacIntel,60,,,,,,,,,0,92,92,93,1,stimuli/objects/lawnmower.jpg,left,old,237,,,,,,,,,,,,,,,
,,,,,,,,23,2021-11-26_10h33.16.110,premceCat2_ses-02_part-02_label-phase2,2020.2.10,MacIntel,60,,,,,left,1.5342,4,0.4953,,,,,,,,,,right,4.9101,0,0,0,0,1,,,,,,,,
,,,,,,,,23,2021-11-26_10h33.16.110,premceCat2_ses-02_part-02_label-phase2,2020.2.10,MacIntel,60,,,,,,,,,0,93,93,25,1,stimuli/objects/cowbell.jpg,left,old,169,,,,,,,,,,,,,,,
,,,,,,,,23,2021-11-26_10h33.16.110,premceCat2_ses-02_part-02_label-phase2,2020.2.10,MacIntel,60,,,,,right,2.0203,3,0.4615,0,94,94,0,1,stimuli/objects/smokedetector02.jpg,right,new,144,,,,,,,,,,,,,,,
,,,,,,,,23,2021-11-26_10h33.16.110,premceCat2_ses-02_part-02_label-phase2,2020.2.10,MacIntel,60,,,,,left,3.1415,3,0.9462,,,,,,,,,,right,0.8447,0,0,0,0,1,,,,,,,,
,,,,,,,,23,2021-11-26_10h33.16.110,premceCat2_ses-02_part-02_label-phase2,2020.2.10,MacIntel,60,,,,,,,,,0,95,95,75,1,stimuli/objects/painttray.jpg,left,old,219,,,,,,,,,,,,,,,
,,,,,,,,23,2021-11-26_10h33.16.110,premceCat2_ses-02_part-02_label-phase2,2020.2.10,MacIntel,60,,,,,right,3.1569,1,0.038,0,96,96,41,1,stimuli/objects/flask.jpg,right,new,185,,,,,,,,,,,,,,,
,,,,,,,,23,2021-11-26_10h33.16.110,premceCat2_ses-02_part-02_label-phase2,2020.2.10,MacIntel,60,,,,,left,1.2094,4,0.31,,,,,,,,,,left,0.3443,0,0,0,0,1,,,,,,,,
,,,,,,,,23,2021-11-26_10h33.16.110,premceCat2_ses-02_part-02_label-phase2,2020.2.10,MacIntel,60,,,,,,,,,0,97,97,20,1,stimuli/objects/treadmill.jpg,left,old,164,,,,,,,,,,,,,,,
,,,,,,,,23,2021-11-26_10h33.16.110,premceCat2_ses-02_part-02_label-phase2,2020.2.10,MacIntel,60,,,,,left,1.1902,3,0.8625,,,,,,,,,,right,0.279,0,0,0,0,1,,,,,,,,
,,,,,,,,23,2021-11-26_10h33.16.110,premceCat2_ses-02_part-02_label-phase2,2020.2.10,MacIntel,60,,,,,,,,,0,98,98,132,1,stimuli/objects/wirestripper.jpg,right,new,276,,,,,,,,,,,,,,,
,,,,,,,,23,2021-11-26_10h33.16.110,premceCat2_ses-02_part-02_label-phase2,2020.2.10,MacIntel,60,,,,,left,1.2752,3,1.1546,,,,,,,,,,right,0.2955,0,0,0,0,1,,,,,,,,
,,,,,,,,23,2021-11-26_10h33.16.110,premceCat2_ses-02_part-02_label-phase2,2020.2.10,MacIntel,60,,,,,,,,,0,99,99,116,1,stimuli/objects/lockingplier.jpg,right,new,260,,,,,,,,,,,,,,,
,,,,,,,,23,2021-11-26_10h33.16.110,premceCat2_ses-02_part-02_label-phase2,2020.2.10,MacIntel,60,,,,,left,1.2423,3,0.8604,,,,,,,,,,left,0.2785,0,0,0,0,1,,,,,,,,
,,,,,,,,23,2021-11-26_10h33.16.110,premceCat2_ses-02_part-02_label-phase2,2020.2.10,MacIntel,60,,,,,,,,,0,100,100,3,1,stimuli/objects/boxingglove01.jpg,right,new,147,,,,,,,,,,,,,,,
,,,,,,,,23,2021-11-26_10h33.16.110,premceCat2_ses-02_part-02_label-phase2,2020.2.10,MacIntel,60,,,,,left,1.4344,3,3.0207,,,,,,,,,,right,1.5108,0,0,0,0,1,,,,,,,,
,,,,,,,,23,2021-11-26_10h33.16.110,premceCat2_ses-02_part-02_label-phase2,2020.2.10,MacIntel,60,,,,,,,,,0,101,101,70,1,stimuli/objects/shovel01.jpg,right,new,214,,,,,,,,,,,,,,,
,,,,,,,,23,2021-11-26_10h33.16.110,premceCat2_ses-02_part-02_label-phase2,2020.2.10,MacIntel,60,,,,,right,1.4229,3,0.9937,0,102,102,6,1,stimuli/objects/solderingwire.jpg,right,new,150,,,,,,,,,,,,,,,
,,,,,,,,23,2021-11-26_10h33.16.110,premceCat2_ses-02_part-02_label-phase2,2020.2.10,MacIntel,60,,,,,left,1.0888,4,0.2916,,,,,,,,,,left,0.5618,0,0,0,0,1,,,,,,,,
,,,,,,,,23,2021-11-26_10h33.16.110,premceCat2_ses-02_part-02_label-phase2,2020.2.10,MacIntel,60,,,,,,,,,0,103,103,117,1,stimuli/objects/snowboard.jpg,left,old,261,,,,,,,,,,,,,,,
,,,,,,,,23,2021-11-26_10h33.16.110,premceCat2_ses-02_part-02_label-phase2,2020.2.10,MacIntel,60,,,,,left,1.0698,4,0.912,,,,,,,,,,left,0.6922,0,0,0,0,1,,,,,,,,
,,,,,,,,23,2021-11-26_10h33.16.110,premceCat2_ses-02_part-02_label-phase2,2020.2.10,MacIntel,60,,,,,,,,,0,104,104,17,1,stimuli/objects/baseball01a.jpg,left,old,161,,,,,,,,,,,,,,,
,,,,,,,,23,2021-11-26_10h33.16.110,premceCat2_ses-02_part-02_label-phase2,2020.2.10,MacIntel,60,,,,,left,2.9067,3,0.829,,,,,,,,,,right,0.2933,0,0,0,0,1,,,,,,,,
,,,,,,,,23,2021-11-26_10h33.16.110,premceCat2_ses-02_part-02_label-phase2,2020.2.10,MacIntel,60,,,,,,,,,0,105,105,65,1,stimuli/objects/gastank.jpg,left,old,209,,,,,,,,,,,,,,,
,,,,,,,,23,2021-11-26_10h33.16.110,premceCat2_ses-02_part-02_label-phase2,2020.2.10,MacIntel,60,,,,,right,2.0311,2,1.0749,0,106,106,137,1,stimuli/objects/nutcracker01.jpg,right,new,281,,,,,,,,,,,,,,,
,,,,,,,,23,2021-11-26_10h33.16.110,premceCat2_ses-02_part-02_label-phase2,2020.2.10,MacIntel,60,,,,,left,1.1921,3,0.8919,,,,,,,,,,right,0.5097,0,0,0,0,1,,,,,,,,
,,,,,,,,23,2021-11-26_10h33.16.110,premceCat2_ses-02_part-02_label-phase2,2020.2.10,MacIntel,60,,,,,,,,,0,107,107,30,1,stimuli/objects/halogenlightbulb.jpg,right,new,174,,,,,,,,,,,,,,,
,,,,,,,,23,2021-11-26_10h33.16.110,premceCat2_ses-02_part-02_label-phase2,2020.2.10,MacIntel,60,,,,,left,1.4035,4,2.5297,,,,,,,,,,right,0.2436,0,0,0,0,1,,,,,,,,
,,,,,,,,23,2021-11-26_10h33.16.110,premceCat2_ses-02_part-02_label-phase2,2020.2.10,MacIntel,60,,,,,,,,,0,108,108,36,1,stimuli/objects/loppingshears.jpg,right,new,180,,,,,,,,,,,,,,,
,,,,,,,,23,2021-11-26_10h33.16.110,premceCat2_ses-02_part-02_label-phase2,2020.2.10,MacIntel,60,,,,,left,1.6381,4,2.4436,,,,,,,,,,right,0.4266,0,0,0,0,1,,,,,,,,
,,,,,,,,23,2021-11-26_10h33.16.110,premceCat2_ses-02_part-02_label-phase2,2020.2.10,MacIntel,60,,,,,,,,,0,109,109,96,1,stimuli/objects/boltcutter.jpg,left,old,240,,,,,,,,,,,,,,,
,,,,,,,,23,2021-11-26_10h33.16.110,premceCat2_ses-02_part-02_label-phase2,2020.2.10,MacIntel,60,,,,,right,0.5727,2,0.9636,0,110,110,102,1,stimuli/objects/beachumbrella01.jpg,right,new,246,,,,,,,,,,,,,,,
,,,,,,,,23,2021-11-26_10h33.16.110,premceCat2_ses-02_part-02_label-phase2,2020.2.10,MacIntel,60,,,,,right,1.2974,4,0.2729,0,111,111,2,1,stimuli/objects/wetfloorsign.jpg,right,new,146,,,,,,,,,,,,,,,
,,,,,,,,23,2021-11-26_10h33.16.110,premceCat2_ses-02_part-02_label-phase2,2020.2.10,MacIntel,60,,,,,right,1.4911,4,1.4436,0,112,112,16,1,stimuli/objects/bottleopener01.jpg,right,new,160,,,,,,,,,,,,,,,
,,,,,,,,23,2021-11-26_10h33.16.110,premceCat2_ses-02_part-02_label-phase2,2020.2.10,MacIntel,60,,,,,left,1.7553,3,0.262,,,,,,,,,,right,3.6426,0,0,0,0,1,,,,,,,,
,,,,,,,,23,2021-11-26_10h33.16.110,premceCat2_ses-02_part-02_label-phase2,2020.2.10,MacIntel,60,,,,,,,,,0,113,113,129,1,stimuli/objects/bucket02.jpg,left,old,273,,,,,,,,,,,,,,,
,,,,,,,,23,2021-11-26_10h33.16.110,premceCat2_ses-02_part-02_label-phase2,2020.2.10,MacIntel,60,,,,,left,2.1231,4,0.3137,,,,,,,,,,left,0.4425,0,0,0,0,1,,,,,,,,
,,,,,,,,23,2021-11-26_10h33.16.110,premceCat2_ses-02_part-02_label-phase2,2020.2.10,MacIntel,60,,,,,,,,,0,114,114,109,1,stimuli/objects/saladspinner.jpg,left,old,253,,,,,,,,,,,,,,,
,,,,,,,,23,2021-11-26_10h33.16.110,premceCat2_ses-02_part-02_label-phase2,2020.2.10,MacIntel,60,,,,,right,1.3739,4,0.2948,0,115,115,121,1,stimuli/objects/parachute.jpg,right,new,265,,,,,,,,,,,,,,,
,,,,,,,,23,2021-11-26_10h33.16.110,premceCat2_ses-02_part-02_label-phase2,2020.2.10,MacIntel,60,,,,,right,3.8899,1,3.4717,0,116,116,97,1,stimuli/objects/peeler01.jpg,left,old,241,,,,,,,,,,,,,,,
,,,,,,,,23,2021-11-26_10h33.16.110,premceCat2_ses-02_part-02_label-phase2,2020.2.10,MacIntel,60,,,,,right,5.7396,3,0.1526,0,117,117,60,1,stimuli/objects/kite.jpg,right,new,204,,,,,,,,,,,,,,,
,,,,,,,,23,2021-11-26_10h33.16.110,premceCat2_ses-02_part-02_label-phase2,2020.2.10,MacIntel,60,,,,,left,1.1584,4,0.6121,,,,,,,,,,left,0.4762,0,0,0,0,1,,,,,,,,
,,,,,,,,23,2021-11-26_10h33.16.110,premceCat2_ses-02_part-02_label-phase2,2020.2.10,MacIntel,60,,,,,,,,,0,118,118,71,1,stimuli/objects/swimgoggles.jpg,left,old,215,,,,,,,,,,,,,,,
,,,,,,,,23,2021-11-26_10h33.16.110,premceCat2_ses-02_part-02_label-phase2,2020.2.10,MacIntel,60,,,,,left,4.7825,4,0.4763,,,,,,,,,,right,0.4276,0,0,0,0,1,,,,,,,,
,,,,,,,,23,2021-11-26_10h33.16.110,premceCat2_ses-02_part-02_label-phase2,2020.2.10,MacIntel,60,,,,,,,,,0,119,119,7,1,stimuli/objects/bottlecap.jpg,left,old,151,,,,,,,,,,,,,,,
,,,,,,,,23,2021-11-26_10h33.16.110,premceCat2_ses-02_part-02_label-phase2,2020.2.10,MacIntel,60,,,,,left,1.3062,4,0.6595,,,,,,,,,,right,1.1413,0,0,0,0,1,,,,,,,,
,,,,,,,,23,2021-11-26_10h33.16.110,premceCat2_ses-02_part-02_label-phase2,2020.2.10,MacIntel,60,,,,,,,,,0,120,120,13,1,stimuli/objects/gardenshears01a.jpg,left,old,157,,,,,,,,,,,,,,,
,,,,,,,,23,2021-11-26_10h33.16.110,premceCat2_ses-02_part-02_label-phase2,2020.2.10,MacIntel,60,,,,,left,1.34,4,0.5106,,,,,,,,,,right,0.3694,0,0,0,0,1,,,,,,,,
,,,,,,,,23,2021-11-26_10h33.16.110,premceCat2_ses-02_part-02_label-phase2,2020.2.10,MacIntel,60,,,,,,,,,0,121,121,27,1,stimuli/objects/level03a.jpg,left,old,171,,,,,,,,,,,,,,,
,,,,,,,,23,2021-11-26_10h33.16.110,premceCat2_ses-02_part-02_label-phase2,2020.2.10,MacIntel,60,,,,,right,1.5538,3,0.3113,0,122,122,59,1,stimuli/objects/speedball.jpg,right,new,203,,,,,,,,,,,,,,,
,,,,,,,,23,2021-11-26_10h33.16.110,premceCat2_ses-02_part-02_label-phase2,2020.2.10,MacIntel,60,,,,,left,1.3411,4,0.3403,,,,,,,,,,left,0.3065,0,0,0,0,1,,,,,,,,
,,,,,,,,23,2021-11-26_10h33.16.110,premceCat2_ses-02_part-02_label-phase2,2020.2.10,MacIntel,60,,,,,,,,,0,123,123,84,1,stimuli/objects/hockeygoalieglove.jpg,left,old,228,,,,,,,,,,,,,,,
,,,,,,,,23,2021-11-26_10h33.16.110,premceCat2_ses-02_part-02_label-phase2,2020.2.10,MacIntel,60,,,,,left,1.037,4,0.362,,,,,,,,,,right,0.2291,0,0,0,0,1,,,,,,,,
,,,,,,,,23,2021-11-26_10h33.16.110,premceCat2_ses-02_part-02_label-phase2,2020.2.10,MacIntel,60,,,,,,,,,0,124,124,128,1,stimuli/objects/hourglass.jpg,left,old,272,,,,,,,,,,,,,,,
,,,,,,,,23,2021-11-26_10h33.16.110,premceCat2_ses-02_part-02_label-phase2,2020.2.10,MacIntel,60,,,,,left,2.0392,4,0.4142,,,,,,,,,,left,0.9132,0,0,0,0,1,,,,,,,,
,,,,,,,,23,2021-11-26_10h33.16.110,premceCat2_ses-02_part-02_label-phase2,2020.2.10,MacIntel,60,,,,,,,,,0,125,125,31,1,stimuli/objects/cooler01.jpg,left,old,175,,,,,,,,,,,,,,,
,,,,,,,,23,2021-11-26_10h33.16.110,premceCat2_ses-02_part-02_label-phase2,2020.2.10,MacIntel,60,,,,,left,2.2404,4,0.3252,,,,,,,,,,left,0.8758,0,0,0,0,1,,,,,,,,
,,,,,,,,23,2021-11-26_10h33.16.110,premceCat2_ses-02_part-02_label-phase2,2020.2.10,MacIntel,60,,,,,,,,,0,126,126,62,1,stimuli/objects/shotglass.jpg,left,old,206,,,,,,,,,,,,,,,
,,,,,,,,23,2021-11-26_10h33.16.110,premceCat2_ses-02_part-02_label-phase2,2020.2.10,MacIntel,60,,,,,left,2.254,4,0.7115,,,,,,,,,,left,0.2616,0,0,0,0,1,,,,,,,,
,,,,,,,,23,2021-11-26_10h33.16.110,premceCat2_ses-02_part-02_label-phase2,2020.2.10,MacIntel,60,,,,,,,,,0,127,127,10,1,stimuli/objects/sportbag.jpg,left,old,154,,,,,,,,,,,,,,,
,,,,,,,,23,2021-11-26_10h33.16.110,premceCat2_ses-02_part-02_label-phase2,2020.2.10,MacIntel,60,,,,,left,2.422,2,0.8603,,,,,,,,,,left,1.0943,0,0,0,0,1,,,,,,,,
,,,,,,,,23,2021-11-26_10h33.16.110,premceCat2_ses-02_part-02_label-phase2,2020.2.10,MacIntel,60,,,,,,,,,0,128,128,101,1,stimuli/objects/lifejacket.jpg,right,new,245,,,,,,,,,,,,,,,
,,,,,,,,23,2021-11-26_10h33.16.110,premceCat2_ses-02_part-02_label-phase2,2020.2.10,MacIntel,60,,,,,left,1.6575,4,0.3445,,,,,,,,,,left,0.745,0,0,0,0,1,,,,,,,,
,,,,,,,,23,2021-11-26_10h33.16.110,premceCat2_ses-02_part-02_label-phase2,2020.2.10,MacIntel,60,,,,,,,,,0,129,129,113,1,stimuli/objects/sewingmachine01a.jpg,left,old,257,,,,,,,,,,,,,,,
,,,,,,,,23,2021-11-26_10h33.16.110,premceCat2_ses-02_part-02_label-phase2,2020.2.10,MacIntel,60,,,,,left,2.5155,4,0.6215,,,,,,,,,,left,0.3121,0,0,0,0,1,,,,,,,,
,,,,,,,,23,2021-11-26_10h33.16.110,premceCat2_ses-02_part-02_label-phase2,2020.2.10,MacIntel,60,,,,,,,,,0,130,130,74,1,stimuli/objects/patioumbrella.jpg,left,old,218,,,,,,,,,,,,,,,
,,,,,,,,23,2021-11-26_10h33.16.110,premceCat2_ses-02_part-02_label-phase2,2020.2.10,MacIntel,60,,,,,left,1.6404,4,0.2209,,,,,,,,,,right,0.7119,0,0,0,0,1,,,,,,,,
,,,,,,,,23,2021-11-26_10h33.16.110,premceCat2_ses-02_part-02_label-phase2,2020.2.10,MacIntel,60,,,,,,,,,0,131,131,77,1,stimuli/objects/bowl02a.jpg,left,old,221,,,,,,,,,,,,,,,
,,,,,,,,23,2021-11-26_10h33.16.110,premceCat2_ses-02_part-02_label-phase2,2020.2.10,MacIntel,60,,,,,left,1.3383,4,0.3266,,,,,,,,,,left,0.8251,0,0,0,0,1,,,,,,,,
,,,,,,,,23,2021-11-26_10h33.16.110,premceCat2_ses-02_part-02_label-phase2,2020.2.10,MacIntel,60,,,,,,,,,0,132,132,105,1,stimuli/objects/spicerack.jpg,left,old,249,,,,,,,,,,,,,,,
,,,,,,,,23,2021-11-26_10h33.16.110,premceCat2_ses-02_part-02_label-phase2,2020.2.10,MacIntel,60,,,,,left,1.4971,4,2.8614,,,,,,,,,,right,1.6619,0,0,0,0,1,,,,,,,,
,,,,,,,,23,2021-11-26_10h33.16.110,premceCat2_ses-02_part-02_label-phase2,2020.2.10,MacIntel,60,,,,,,,,,0,133,133,106,1,stimuli/objects/phonejack.jpg,left,old,250,,,,,,,,,,,,,,,
,,,,,,,,23,2021-11-26_10h33.16.110,premceCat2_ses-02_part-02_label-phase2,2020.2.10,MacIntel,60,,,,,left,0.9213,4,0.3948,,,,,,,,,,left,0.2941,0,0,0,0,1,,,,,,,,
,,,,,,,,23,2021-11-26_10h33.16.110,premceCat2_ses-02_part-02_label-phase2,2020.2.10,MacIntel,60,,,,,,,,,0,134,134,58,1,stimuli/objects/skiboot01a.jpg,left,old,202,,,,,,,,,,,,,,,
,,,,,,,,23,2021-11-26_10h33.16.110,premceCat2_ses-02_part-02_label-phase2,2020.2.10,MacIntel,60,,,,,left,2.2571,4,0.5113,,,,,,,,,,right,0.2431,0,0,0,0,1,,,,,,,,
,,,,,,,,23,2021-11-26_10h33.16.110,premceCat2_ses-02_part-02_label-phase2,2020.2.10,MacIntel,60,,,,,,,,,0,135,135,57,1,stimuli/objects/kiddiepool.jpg,left,old,201,,,,,,,,,,,,,,,
,,,,,,,,23,2021-11-26_10h33.16.110,premceCat2_ses-02_part-02_label-phase2,2020.2.10,MacIntel,60,,,,,left,2.79,2,0.4291,,,,,,,,,,left,1.4106,0,0,0,0,1,,,,,,,,
,,,,,,,,23,2021-11-26_10h33.16.110,premceCat2_ses-02_part-02_label-phase2,2020.2.10,MacIntel,60,,,,,,,,,0,136,136,111,1,stimuli/objects/diaperbag.jpg,right,new,255,,,,,,,,,,,,,,,
,,,,,,,,23,2021-11-26_10h33.16.110,premceCat2_ses-02_part-02_label-phase2,2020.2.10,MacIntel,60,,,,,left,1.5884,4,0.3622,,,,,,,,,,left,0.3089,0,0,0,0,1,,,,,,,,
,,,,,,,,23,2021-11-26_10h33.16.110,premceCat2_ses-02_part-02_label-phase2,2020.2.10,MacIntel,60,,,,,,,,,0,137,137,34,1,stimuli/objects/kneepad01c.jpg,right,new,178,,,,,,,,,,,,,,,
,,,,,,,,23,2021-11-26_10h33.16.110,premceCat2_ses-02_part-02_label-phase2,2020.2.10,MacIntel,60,,,,,left,1.1208,4,0.4475,,,,,,,,,,right,0.2467,0,0,0,0,1,,,,,,,,
,,,,,,,,23,2021-11-26_10h33.16.110,premceCat2_ses-02_part-02_label-phase2,2020.2.10,MacIntel,60,,,,,,,,,0,138,138,11,1,stimuli/objects/airconditioner.jpg,left,old,155,,,,,,,,,,,,,,,
,,,,,,,,23,2021-11-26_10h33.16.110,premceCat2_ses-02_part-02_label-phase2,2020.2.10,MacIntel,60,,,,,left,0.975,4,0.4898,,,,,,,,,,right,0.2931,0,0,0,0,1,,,,,,,,
,,,,,,,,23,2021-11-26_10h33.16.110,premceCat2_ses-02_part-02_label-phase2,2020.2.10,MacIntel,60,,,,,,,,,0,139,139,94,1,stimuli/objects/file.jpg,right,new,238,,,,,,,,,,,,,,,
,,,,,,,,23,2021-11-26_10h33.16.110,premceCat2_ses-02_part-02_label-phase2,2020.2.10,MacIntel,60,,,,,left,1.02,4,0.3608,,,,,,,,,,left,0.9267,0,0,0,0,1,,,,,,,,
,,,,,,,,23,2021-11-26_10h33.16.110,premceCat2_ses-02_part-02_label-phase2,2020.2.10,MacIntel,60,,,,,,,,,0,140,140,85,1,stimuli/objects/lamp04a.jpg,left,old,229,,,,,,,,,,,,,,,
,,,,,,,,23,2021-11-26_10h33.16.110,premceCat2_ses-02_part-02_label-phase2,2020.2.10,MacIntel,60,,,,,left,2.786,1,0.3614,,,,,,,,,,right,0.6253,0,0,0,0,1,,,,,,,,
,,,,,,,,23,2021-11-26_10h33.16.110,premceCat2_ses-02_part-02_label-phase2,2020.2.10,MacIntel,60,,,,,,,,,0,141,141,69,1,stimuli/objects/straw.jpg,right,new,213,,,,,,,,,,,,,,,
,,,,,,,,23,2021-11-26_10h33.16.110,premceCat2_ses-02_part-02_label-phase2,2020.2.10,MacIntel,60,,,,,left,0.9105,4,0.5048,,,,,,,,,,left,0.3106,0,0,0,0,1,,,,,,,,
,,,,,,,,23,2021-11-26_10h33.16.110,premceCat2_ses-02_part-02_label-phase2,2020.2.10,MacIntel,60,,,,,,,,,0,142,142,130,1,stimuli/objects/ipad02.jpg,left,old,274,,,,,,,,,,,,,,,
,,,,,,,,23,2021-11-26_10h33.16.110,premceCat2_ses-02_part-02_label-phase2,2020.2.10,MacIntel,60,,,,,,,,,,,,,,,,,,,,,,,,,space,57.3487,0,0,0,1,1,condition_files/ImagesforRecog4_2.csv
,,,,,,,,23,2021-11-26_10h33.16.110,premceCat2_ses-02_part-02_label-phase2,2020.2.10,MacIntel,60,,,,,left,1.7443,3,1.431,,,,,,,,,,right,0.2918,0,0,0,0,1,,,,,,,,
,,,,,,,,23,2021-11-26_10h33.16.110,premceCat2_ses-02_part-02_label-phase2,2020.2.10,MacIntel,60,,,,,,,,,0,0,0,134,1,stimuli/objects/screwdriver04b.jpg,right,new,135,,,,,,,,,,,,,,,
,,,,,,,,23,2021-11-26_10h33.16.110,premceCat2_ses-02_part-02_label-phase2,2020.2.10,MacIntel,60,,,,,left,0.84,4,0.3041,,,,,,,,,,right,0.2604,0,0,0,0,1,,,,,,,,
,,,,,,,,23,2021-11-26_10h33.16.110,premceCat2_ses-02_part-02_label-phase2,2020.2.10,MacIntel,60,,,,,,,,,0,1,1,50,1,stimuli/objects/chisel02b.jpg,right,new,51,,,,,,,,,,,,,,,
,,,,,,,,23,2021-11-26_10h33.16.110,premceCat2_ses-02_part-02_label-phase2,2020.2.10,MacIntel,60,,,,,left,1.1239,4,0.8301,,,,,,,,,,left,0.2276,0,0,0,0,1,,,,,,,,
,,,,,,,,23,2021-11-26_10h33.16.110,premceCat2_ses-02_part-02_label-phase2,2020.2.10,MacIntel,60,,,,,,,,,0,2,2,142,1,stimuli/objects/spoon01.jpg,left,old,143,,,,,,,,,,,,,,,
,,,,,,,,23,2021-11-26_10h33.16.110,premceCat2_ses-02_part-02_label-phase2,2020.2.10,MacIntel,60,,,,,right,1.4861,3,0.7102,0,3,3,133,1,stimuli/objects/icebucket.jpg,right,new,134,,,,,,,,,,,,,,,
,,,,,,,,23,2021-11-26_10h33.16.110,premceCat2_ses-02_part-02_label-phase2,2020.2.10,MacIntel,60,,,,,right,2.0581,3,0.3116,0,4,4,25,1,stimuli/objects/bowlingball.jpg,right,new,26,,,,,,,,,,,,,,,
,,,,,,,,23,2021-11-26_10h33.16.110,premceCat2_ses-02_part-02_label-phase2,2020.2.10,MacIntel,60,,,,,left,1.0908,4,0.3065,,,,,,,,,,left,0.2287,0,0,0,0,1,,,,,,,,
,,,,,,,,23,2021-11-26_10h33.16.110,premceCat2_ses-02_part-02_label-phase2,2020.2.10,MacIntel,60,,,,,,,,,0,5,5,3,1,stimuli/objects/dishrack.jpg,left,old,4,,,,,,,,,,,,,,,
,,,,,,,,23,2021-11-26_10h33.16.110,premceCat2_ses-02_part-02_label-phase2,2020.2.10,MacIntel,60,,,,,right,1.1542,3,0.295,0,6,6,41,1,stimuli/objects/pylon01.jpg,right,new,42,,,,,,,,,,,,,,,
,,,,,,,,23,2021-11-26_10h33.16.110,premceCat2_ses-02_part-02_label-phase2,2020.2.10,MacIntel,60,,,,,left,1.5604,3,0.328,,,,,,,,,,left,0.2421,0,0,0,0,1,,,,,,,,
,,,,,,,,23,2021-11-26_10h33.16.110,premceCat2_ses-02_part-02_label-phase2,2020.2.10,MacIntel,60,,,,,,,,,0,7,7,23,1,stimuli/objects/football.jpg,right,new,24,,,,,,,,,,,,,,,
,,,,,,,,23,2021-11-26_10h33.16.110,premceCat2_ses-02_part-02_label-phase2,2020.2.10,MacIntel,60,,,,,left,1.8545,4,0.5953,,,,,,,,,,left,0.4955,0,0,0,0,1,,,,,,,,
,,,,,,,,23,2021-11-26_10h33.16.110,premceCat2_ses-02_part-02_label-phase2,2020.2.10,MacIntel,60,,,,,,,,,0,8,8,127,1,stimuli/objects/badmintonracket.jpg,left,old,128,,,,,,,,,,,,,,,
,,,,,,,,23,2021-11-26_10h33.16.110,premceCat2_ses-02_part-02_label-phase2,2020.2.10,MacIntel,60,,,,,left,1.015,4,0.7577,,,,,,,,,,left,0.3186,0,0,0,0,1,,,,,,,,
,,,,,,,,23,2021-11-26_10h33.16.110,premceCat2_ses-02_part-02_label-phase2,2020.2.10,MacIntel,60,,,,,,,,,0,9,9,28,1,stimuli/objects/anchor.jpg,left,old,29,,,,,,,,,,,,,,,
,,,,,,,,23,2021-11-26_10h33.16.110,premceCat2_ses-02_part-02_label-phase2,2020.2.10,MacIntel,60,,,,,right,1.2216,2,1.6446,0,10,10,80,1,stimuli/objects/snowman.jpg,right,new,81,,,,,,,,,,,,,,,
,,,,,,,,23,2021-11-26_10h33.16.110,premceCat2_ses-02_part-02_label-phase2,2020.2.10,MacIntel,60,,,,,left,1.0202,4,0.3863,,,,,,,,,,right,0.2725,0,0,0,0,1,,,,,,,,
,,,,,,,,23,2021-11-26_10h33.16.110,premceCat2_ses-02_part-02_label-phase2,2020.2.10,MacIntel,60,,,,,,,,,0,11,11,0,1,stimuli/objects/ethernetcable02.jpg,left,old,1,,,,,,,,,,,,,,,
,,,,,,,,23,2021-11-26_10h33.16.110,premceCat2_ses-02_part-02_label-phase2,2020.2.10,MacIntel,60,,,,,left,0.8902,2,0.577,,,,,,,,,,right,0.1971,0,0,0,0,1,,,,,,,,
,,,,,,,,23,2021-11-26_10h33.16.110,premceCat2_ses-02_part-02_label-phase2,2020.2.10,MacIntel,60,,,,,,,,,0,12,12,86,1,stimuli/objects/toasteroven.jpg,right,new,87,,,,,,,,,,,,,,,
,,,,,,,,23,2021-11-26_10h33.16.110,premceCat2_ses-02_part-02_label-phase2,2020.2.10,MacIntel,60,,,,,left,1.0215,4,0.6042,,,,,,,,,,right,0.1942,0,0,0,0,1,,,,,,,,
,,,,,,,,23,2021-11-26_10h33.16.110,premceCat2_ses-02_part-02_label-phase2,2020.2.10,MacIntel,60,,,,,,,,,0,13,13,61,1,stimuli/objects/metalbrush.jpg,left,old,62,,,,,,,,,,,,,,,
,,,,,,,,23,2021-11-26_10h33.16.110,premceCat2_ses-02_part-02_label-phase2,2020.2.10,MacIntel,60,,,,,right,1.3243,3,0.2767,0,14,14,111,1,stimuli/objects/speaker04.jpg,right,new,112,,,,,,,,,,,,,,,
,,,,,,,,23,2021-11-26_10h33.16.110,premceCat2_ses-02_part-02_label-phase2,2020.2.10,MacIntel,60,,,,,left,1.9756,4,0.2776,,,,,,,,,,right,0.1872,0,0,0,0,1,,,,,,,,
,,,,,,,,23,2021-11-26_10h33.16.110,premceCat2_ses-02_part-02_label-phase2,2020.2.10,MacIntel,60,,,,,,,,,0,15,15,63,1,stimuli/objects/butterdish.jpg,right,new,64,,,,,,,,,,,,,,,
,,,,,,,,23,2021-11-26_10h33.16.110,premceCat2_ses-02_part-02_label-phase2,2020.2.10,MacIntel,60,,,,,left,3.2724,4,0.8275,,,,,,,,,,right,1.0237,0,0,0,0,1,,,,,,,,
,,,,,,,,23,2021-11-26_10h33.16.110,premceCat2_ses-02_part-02_label-phase2,2020.2.10,MacIntel,60,,,,,,,,,0,16,16,124,1,stimuli/objects/reflector.jpg,left,old,125,,,,,,,,,,,,,,,
,,,,,,,,23,2021-11-26_10h33.16.110,premceCat2_ses-02_part-02_label-phase2,2020.2.10,MacIntel,60,,,,,left,1.7764,4,0.1626,,,,,,,,,,right,0.4188,0,0,0,0,1,,,,,,,,
,,,,,,,,23,2021-11-26_10h33.16.110,premceCat2_ses-02_part-02_label-phase2,2020.2.10,MacIntel,60,,,,,,,,,0,17,17,132,1,stimuli/objects/djmixer02.jpg,left,old,133,,,,,,,,,,,,,,,
,,,,,,,,23,2021-11-26_10h33.16.110,premceCat2_ses-02_part-02_label-phase2,2020.2.10,MacIntel,60,,,,,left,1.1981,4,0.3132,,,,,,,,,,left,0.329,0,0,0,0,1,,,,,,,,
,,,,,,,,23,2021-11-26_10h33.16.110,premceCat2_ses-02_part-02_label-phase2,2020.2.10,MacIntel,60,,,,,,,,,0,18,18,36,1,stimuli/objects/gps.jpg,left,old,37,,,,,,,,,,,,,,,
,,,,,,,,23,2021-11-26_10h33.16.110,premceCat2_ses-02_part-02_label-phase2,2020.2.10,MacIntel,60,,,,,left,1.5908,4,0.3294,,,,,,,,,,left,0.244,0,0,0,0,1,,,,,,,,
,,,,,,,,23,2021-11-26_10h33.16.110,premceCat2_ses-02_part-02_label-phase2,2020.2.10,MacIntel,60,,,,,,,,,0,19,19,114,1,stimuli/objects/butterknife.jpg,left,old,115,,,,,,,,,,,,,,,
,,,,,,,,23,2021-11-26_10h33.16.110,premceCat2_ses-02_part-02_label-phase2,2020.2.10,MacIntel,60,,,,,right,1.2052,2,0.2932,0,20,20,136,1,stimuli/objects/battery02b.jpg,right,new,137,,,,,,,,,,,,,,,
,,,,,,,,23,2021-11-26_10h33.16.110,premceCat2_ses-02_part-02_label-phase2,2020.2.10,MacIntel,60,,,,,left,1.3728,4,0.3093,,,,,,,,,,left,0.9788,0,0,0,0,1,,,,,,,,
,,,,,,,,23,2021-11-26_10h33.16.110,premceCat2_ses-02_part-02_label-phase2,2020.2.10,MacIntel,60,,,,,,,,,0,21,21,45,1,stimuli/objects/aluminiumfoil.jpg,left,old,46,,,,,,,,,,,,,,,
,,,,,,,,23,2021-11-26_10h33.16.110,premceCat2_ses-02_part-02_label-phase2,2020.2.10,MacIntel,60,,,,,left,2.4731,4,1.194,,,,,,,,,,right,0.264,0,0,0,0,1,,,,,,,,
,,,,,,,,23,2021-11-26_10h33.16.110,premceCat2_ses-02_part-02_label-phase2,2020.2.10,MacIntel,60,,,,,,,,,0,22,22,113,1,stimuli/objects/powercable.jpg,right,new,114,,,,,,,,,,,,,,,
,,,,,,,,23,2021-11-26_10h33.16.110,premceCat2_ses-02_part-02_label-phase2,2020.2.10,MacIntel,60,,,,,left,2.1417,4,0.2779,,,,,,,,,,left,0.262,0,0,0,0,1,,,,,,,,
,,,,,,,,23,2021-11-26_10h33.16.110,premceCat2_ses-02_part-02_label-phase2,2020.2.10,MacIntel,60,,,,,,,,,0,23,23,95,1,stimuli/objects/lectern01.jpg,left,old,96,,,,,,,,,,,,,,,
,,,,,,,,23,2021-11-26_10h33.16.110,premceCat2_ses-02_part-02_label-phase2,2020.2.10,MacIntel,60,,,,,left,0.94,4,0.8264,,,,,,,,,,right,0.2609,0,0,0,0,1,,,,,,,,
,,,,,,,,23,2021-11-26_10h33.16.110,premceCat2_ses-02_part-02_label-phase2,2020.2.10,MacIntel,60,,,,,,,,,0,24,24,14,1,stimuli/objects/wheelbarrow01.jpg,left,old,15,,,,,,,,,,,,,,,
,,,,,,,,23,2021-11-26_10h33.16.110,premceCat2_ses-02_part-02_label-phase2,2020.2.10,MacIntel,60,,,,,left,5.5056,4,0.2947,,,,,,,,,,right,1.1791,0,0,0,0,1,,,,,,,,
,,,,,,,,23,2021-11-26_10h33.16.110,premceCat2_ses-02_part-02_label-phase2,2020.2.10,MacIntel,60,,,,,,,,,0,25,25,66,1,stimuli/objects/nailgun.jpg,right,new,67,,,,,,,,,,,,,,,
,,,,,,,,23,2021-11-26_10h33.16.110,premceCat2_ses-02_part-02_label-phase2,2020.2.10,MacIntel,60,,,,,left,1.4287,3,0.2767,,,,,,,,,,right,0.4286,0,0,0,0,1,,,,,,,,
,,,,,,,,23,2021-11-26_10h33.16.110,premceCat2_ses-02_part-02_label-phase2,2020.2.10,MacIntel,60,,,,,,,,,0,26,26,105,1,stimuli/objects/videocamera01a.jpg,left,old,106,,,,,,,,,,,,,,,
,,,,,,,,23,2021-11-26_10h33.16.110,premceCat2_ses-02_part-02_label-phase2,2020.2.10,MacIntel,60,,,,,left,0.7881,4,0.5946,,,,,,,,,,left,0.2779,0,0,0,0,1,,,,,,,,
,,,,,,,,23,2021-11-26_10h33.16.110,premceCat2_ses-02_part-02_label-phase2,2020.2.10,MacIntel,60,,,,,,,,,0,27,27,62,1,stimuli/objects/potatomasher03b.jpg,left,old,63,,,,,,,,,,,,,,,
,,,,,,,,23,2021-11-26_10h33.16.110,premceCat2_ses-02_part-02_label-phase2,2020.2.10,MacIntel,60,,,,,left,1.2031,4,0.3939,,,,,,,,,,right,0.8756,0,0,0,0,1,,,,,,,,
,,,,,,,,23,2021-11-26_10h33.16.110,premceCat2_ses-02_part-02_label-phase2,2020.2.10,MacIntel,60,,,,,,,,,0,28,28,2,1,stimuli/objects/filmnegative.jpg,left,old,3,,,,,,,,,,,,,,,
,,,,,,,,23,2021-11-26_10h33.16.110,premceCat2_ses-02_part-02_label-phase2,2020.2.10,MacIntel,60,,,,,left,0.8051,4,3.3604,,,,,,,,,,left,0.52,0,0,0,0,1,,,,,,,,
,,,,,,,,23,2021-11-26_10h33.16.110,premceCat2_ses-02_part-02_label-phase2,2020.2.10,MacIntel,60,,,,,,,,,0,29,29,43,1,stimuli/objects/punchingball.jpg,right,new,44,,,,,,,,,,,,,,,
,,,,,,,,23,2021-11-26_10h33.16.110,premceCat2_ses-02_part-02_label-phase2,2020.2.10,MacIntel,60,,,,,left,1.8735,3,1.4114,,,,,,,,,,right,0.0269,0,0,0,0,1,,,,,,,,
,,,,,,,,23,2021-11-26_10h33.16.110,premceCat2_ses-02_part-02_label-phase2,2020.2.10,MacIntel,60,,,,,,,,,0,30,30,94,1,stimuli/objects/electricmixer.jpg,right,new,95,,,,,,,,,,,,,,,
,,,,,,,,23,2021-11-26_10h33.16.110,premceCat2_ses-02_part-02_label-phase2,2020.2.10,MacIntel,60,,,,,right,1.2053,3,0.6518,0,31,31,100,1,stimuli/objects/remotecontrol04.jpg,right,new,101,,,,,,,,,,,,,,,
,,,,,,,,23,2021-11-26_10h33.16.110,premceCat2_ses-02_part-02_label-phase2,2020.2.10,MacIntel,60,,,,,right,1.1387,3,0.3286,0,32,32,46,1,stimuli/objects/walkman.jpg,right,new,47,,,,,,,,,,,,,,,
,,,,,,,,23,2021-11-26_10h33.16.110,premceCat2_ses-02_part-02_label-phase2,2020.2.10,MacIntel,60,,,,,right,0.9524,3,0.3954,0,33,33,54,1,stimuli/objects/pda.jpg,right,new,55,,,,,,,,,,,,,,,
,,,,,,,,23,2021-11-26_10h33.16.110,premceCat2_ses-02_part-02_label-phase2,2020.2.10,MacIntel,60,,,,,left,0.8216,4,0.578,,,,,,,,,,right,0.2586,0,0,0,0,1,,,,,,,,
,,,,,,,,23,2021-11-26_10h33.16.110,premceCat2_ses-02_part-02_label-phase2,2020.2.10,MacIntel,60,,,,,,,,,0,34,34,58,1,stimuli/objects/toyhardhat.jpg,left,old,59,,,,,,,,,,,,,,,
,,,,,,,,23,2021-11-26_10h33.16.110,premceCat2_ses-02_part-02_label-phase2,2020.2.10,MacIntel,60,,,,,left,1.483,2,0.2464,,,,,,,,,,left,0.3112,0,0,0,0,1,,,,,,,,
,,,,,,,,23,2021-11-26_10h33.16.110,premceCat2_ses-02_part-02_label-phase2,2020.2.10,MacIntel,60,,,,,,,,,0,35,35,60,1,stimuli/objects/glass02a.jpg,right,new,61,,,,,,,,,,,,,,,
,,,,,,,,23,2021-11-26_10h33.16.110,premceCat2_ses-02_part-02_label-phase2,2020.2.10,MacIntel,60,,,,,right,1.2248,4,0.8771,0,36,36,42,1,stimuli/objects/snowshoe.jpg,right,new,43,,,,,,,,,,,,,,,
,,,,,,,,23,2021-11-26_10h33.16.110,premceCat2_ses-02_part-02_label-phase2,2020.2.10,MacIntel,60,,,,,left,1.2915,4,0.3435,,,,,,,,,,right,1.4758,0,0,0,0,1,,,,,,,,
,,,,,,,,23,2021-11-26_10h33.16.110,premceCat2_ses-02_part-02_label-phase2,2020.2.10,MacIntel,60,,,,,,,,,0,37,37,1,1,stimuli/objects/photocopier.jpg,left,old,2,,,,,,,,,,,,,,,
,,,,,,,,23,2021-11-26_10h33.16.110,premceCat2_ses-02_part-02_label-phase2,2020.2.10,MacIntel,60,,,,,left,1.5399,2,0.2967,,,,,,,,,,left,0.3281,0,0,0,0,1,,,,,,,,
,,,,,,,,23,2021-11-26_10h33.16.110,premceCat2_ses-02_part-02_label-phase2,2020.2.10,MacIntel,60,,,,,,,,,0,38,38,59,1,stimuli/objects/studiolight.jpg,right,new,60,,,,,,,,,,,,,,,
,,,,,,,,23,2021-11-26_10h33.16.110,premceCat2_ses-02_part-02_label-phase2,2020.2.10,MacIntel,60,,,,,left,2.2897,2,0.4452,,,,,,,,,,left,0.2713,0,0,0,0,1,,,,,,,,
,,,,,,,,23,2021-11-26_10h33.16.110,premceCat2_ses-02_part-02_label-phase2,2020.2.10,MacIntel,60,,,,,,,,,0,39,39,125,1,stimuli/objects/shoulderpad.jpg,right,new,126,,,,,,,,,,,,,,,
,,,,,,,,23,2021-11-26_10h33.16.110,premceCat2_ses-02_part-02_label-phase2,2020.2.10,MacIntel,60,,,,,right,1.2111,2,0.3947,0,40,40,93,1,stimuli/objects/icepack.jpg,right,new,94,,,,,,,,,,,,,,,
,,,,,,,,23,2021-11-26_10h33.16.110,premceCat2_ses-02_part-02_label-phase2,2020.2.10,MacIntel,60,,,,,left,1.2219,4,0.3613,,,,,,,,,,right,0.2733,0,0,0,0,1,,,,,,,,
,,,,,,,,23,2021-11-26_10h33.16.110,premceCat2_ses-02_part-02_label-phase2,2020.2.10,MacIntel,60,,,,,,,,,0,41,41,89,1,stimuli/objects/ducttape.jpg,right,new,90,,,,,,,,,,,,,,,
,,,,,,,,23,2021-11-26_10h33.16.110,premceCat2_ses-02_part-02_label-phase2,2020.2.10,MacIntel,60,,,,,left,1.8365,1,0.8629,,,,,,,,,,right,0.4126,0,0,0,0,1,,,,,,,,
,,,,,,,,23,2021-11-26_10h33.16.110,premceCat2_ses-02_part-02_label-phase2,2020.2.10,MacIntel,60,,,,,,,,,0,42,42,68,1,stimuli/objects/leafblower01.jpg,right,new,69,,,,,,,,,,,,,,,
,,,,,,,,23,2021-11-26_10h33.16.110,premceCat2_ses-02_part-02_label-phase2,2020.2.10,MacIntel,60,,,,,left,4.9237,2,1.6807,,,,,,,,,,right,1.2779,0,0,0,0,1,,,,,,,,
,,,,,,,,23,2021-11-26_10h33.16.110,premceCat2_ses-02_part-02_label-phase2,2020.2.10,MacIntel,60,,,,,,,,,0,43,43,55,1,stimuli/objects/toolbox02.jpg,right,new,56,,,,,,,,,,,,,,,
,,,,,,,,23,2021-11-26_10h33.16.110,premceCat2_ses-02_part-02_label-phase2,2020.2.10,MacIntel,60,,,,,right,1.2055,3,0.7607,0,44,44,112,1,stimuli/objects/gymnasticring.jpg,right,new,113,,,,,,,,,,,,,,,
,,,,,,,,23,2021-11-26_10h33.16.110,premceCat2_ses-02_part-02_label-phase2,2020.2.10,MacIntel,60,,,,,right,4.2542,1,1.4547,0,45,45,103,1,stimuli/objects/towel01.jpg,left,old,104,,,,,,,,,,,,,,,
,,,,,,,,23,2021-11-26_10h33.16.110,premceCat2_ses-02_part-02_label-phase2,2020.2.10,MacIntel,60,,,,,left,4.8025,2,1.504,,,,,,,,,,right,0.6263,0,0,0,0,1,,,,,,,,
,,,,,,,,23,2021-11-26_10h33.16.110,premceCat2_ses-02_part-02_label-phase2,2020.2.10,MacIntel,60,,,,,,,,,0,46,46,20,1,stimuli/objects/laptop01a.jpg,right,new,21,,,,,,,,,,,,,,,
,,,,,,,,23,2021-11-26_10h33.16.110,premceCat2_ses-02_part-02_label-phase2,2020.2.10,MacIntel,60,,,,,left,1.8734,4,0.4418,,,,,,,,,,left,6.0281,0,0,0,0,1,,,,,,,,
,,,,,,,,23,2021-11-26_10h33.16.110,premceCat2_ses-02_part-02_label-phase2,2020.2.10,MacIntel,60,,,,,,,,,0,47,47,65,1,stimuli/objects/squeegee01b.jpg,left,old,66,,,,,,,,,,,,,,,
,,,,,,,,23,2021-11-26_10h33.16.110,premceCat2_ses-02_part-02_label-phase2,2020.2.10,MacIntel,60,,,,,left,1.4718,4,0.3609,,,,,,,,,,left,0.2533,0,0,0,0,1,,,,,,,,
,,,,,,,,23,2021-11-26_10h33.16.110,premceCat2_ses-02_part-02_label-phase2,2020.2.10,MacIntel,60,,,,,,,,,0,48,48,74,1,stimuli/objects/toyhockeystick01.jpg,left,old,75,,,,,,,,,,,,,,,
,,,,,,,,23,2021-11-26_10h33.16.110,premceCat2_ses-02_part-02_label-phase2,2020.2.10,MacIntel,60,,,,,right,1.6399,4,1.0108,0,49,49,87,1,stimuli/objects/fluorescentlightbulb.jpg,left,old,88,,,,,,,,,,,,,,,
,,,,,,,,23,2021-11-26_10h33.16.110,premceCat2_ses-02_part-02_label-phase2,2020.2.10,MacIntel,60,,,,,left,4.275,2,2.8299,,,,,,,,,,left,5.7603,0,0,0,0,1,,,,,,,,
,,,,,,,,23,2021-11-26_10h33.16.110,premceCat2_ses-02_part-02_label-phase2,2020.2.10,MacIntel,60,,,,,,,,,0,50,50,139,1,stimuli/objects/frisbee.jpg,right,new,140,,,,,,,,,,,,,,,
,,,,,,,,23,2021-11-26_10h33.16.110,premceCat2_ses-02_part-02_label-phase2,2020.2.10,MacIntel,60,,,,,right,1.5549,4,0.2746,0,51,51,39,1,stimuli/objects/sippycup.jpg,right,new,40,,,,,,,,,,,,,,,
,,,,,,,,23,2021-11-26_10h33.16.110,premceCat2_ses-02_part-02_label-phase2,2020.2.10,MacIntel,60,,,,,left,1.1565,4,0.2879,,,,,,,,,,right,0.2941,0,0,0,0,1,,,,,,,,
,,,,,,,,23,2021-11-26_10h33.16.110,premceCat2_ses-02_part-02_label-phase2,2020.2.10,MacIntel,60,,,,,,,,,0,52,52,5,1,stimuli/objects/fan.jpg,left,old,6,,,,,,,,,,,,,,,
,,,,,,,,23,2021-11-26_10h33.16.110,premceCat2_ses-02_part-02_label-phase2,2020.2.10,MacIntel,60,,,,,left,1.0574,4,0.4111,,,,,,,,,,right,0.2447,0,0,0,0,1,,,,,,,,
,,,,,,,,23,2021-11-26_10h33.16.110,premceCat2_ses-02_part-02_label-phase2,2020.2.10,MacIntel,60,,,,,,,,,0,53,53,75,1,stimuli/objects/stepladder.jpg,right,new,76,,,,,,,,,,,,,,,
,,,,,,,,23,2021-11-26_10h33.16.110,premceCat2_ses-02_part-02_label-phase2,2020.2.10,MacIntel,60,,,,,left,1.8897,4,1.346,,,,,,,,,,right,0.3103,0,0,0,0,1,,,,,,,,
,,,,,,,,23,2021-11-26_10h33.16.110,premceCat2_ses-02_part-02_label-phase2,2020.2.10,MacIntel,60,,,,,,,,,0,54,54,141,1,stimuli/objects/generator.jpg,right,new,142,,,,,,,,,,,,,,,
,,,,,,,,23,2021-11-26_10h33.16.110,premceCat2_ses-02_part-02_label-phase2,2020.2.10,MacIntel,60,,,,,left,1.477,4,0.3106,,,,,,,,,,right,0.2774,0,0,0,0,1,,,,,,,,
,,,,,,,,23,2021-11-26_10h33.16.110,premceCat2_ses-02_part-02_label-phase2,2020.2.10,MacIntel,60,,,,,,,,,0,55,55,64,1,stimuli/objects/knifesharpener.jpg,left,old,65,,,,,,,,,,,,,,,
,,,,,,,,23,2021-11-26_10h33.16.110,premceCat2_ses-02_part-02_label-phase2,2020.2.10,MacIntel,60,,,,,left,1.0561,3,1.4451,,,,,,,,,,left,0.1434,0,0,0,0,1,,,,,,,,
,,,,,,,,23,2021-11-26_10h33.16.110,premceCat2_ses-02_part-02_label-phase2,2020.2.10,MacIntel,60,,,,,,,,,0,56,56,69,1,stimuli/objects/atm.jpg,left,old,70,,,,,,,,,,,,,,,
,,,,,,,,23,2021-11-26_10h33.16.110,premceCat2_ses-02_part-02_label-phase2,2020.2.10,MacIntel,60,,,,,right,1.222,2,0.5775,0,57,57,83,1,stimuli/objects/kitchenscale01a.jpg,right,new,84,,,,,,,,,,,,,,,
,,,,,,,,23,2021-11-26_10h33.16.110,premceCat2_ses-02_part-02_label-phase2,2020.2.10,MacIntel,60,,,,,left,0.9792,4,0.8124,,,,,,,,,,right,0.274,0,0,0,0,1,,,,,,,,
,,,,,,,,23,2021-11-26_10h33.16.110,premceCat2_ses-02_part-02_label-phase2,2020.2.10,MacIntel,60,,,,,,,,,0,58,58,37,1,stimuli/objects/bungeecord02.jpg,left,old,38,,,,,,,,,,,,,,,
,,,,,,,,23,2021-11-26_10h33.16.110,premceCat2_ses-02_part-02_label-phase2,2020.2.10,MacIntel,60,,,,,right,3.4538,2,0.2105,0,59,59,131,1,stimuli/objects/spotlight.jpg,right,new,132,,,,,,,,,,,,,,,
,,,,,,,,23,2021-11-26_10h33.16.110,premceCat2_ses-02_part-02_label-phase2,2020.2.10,MacIntel,60,,,,,left,1.4365,3,1.3094,,,,,,,,,,left,0.2364,0,0,0,0,1,,,,,,,,
,,,,,,,,23,2021-11-26_10h33.16.110,premceCat2_ses-02_part-02_label-phase2,2020.2.10,MacIntel,60,,,,,,,,,0,60,60,70,1,stimuli/objects/martiniglass01b.jpg,left,old,71,,,,,,,,,,,,,,,
,,,,,,,,23,2021-11-26_10h33.16.110,premceCat2_ses-02_part-02_label-phase2,2020.2.10,MacIntel,60,,,,,right,1.3749,2,0.3109,0,61,61,92,1,stimuli/objects/carjack.jpg,right,new,93,,,,,,,,,,,,,,,
,,,,,,,,23,2021-11-26_10h33.16.110,premceCat2_ses-02_part-02_label-phase2,2020.2.10,MacIntel,60,,,,,left,1.3033,4,0.6602,,,,,,,,,,left,0.4439,0,0,0,0,1,,,,,,,,
,,,,,,,,23,2021-11-26_10h33.16.110,premceCat2_ses-02_part-02_label-phase2,2020.2.10,MacIntel,60,,,,,,,,,0,62,62,98,1,stimuli/objects/handgripper.jpg,left,old,99,,,,,,,,,,,,,,,
,,,,,,,,23,2021-11-26_10h33.16.110,premceCat2_ses-02_part-02_label-phase2,2020.2.10,MacIntel,60,,,,,left,4.437,2,0.0004,,,,,,,,,,left,0.0069,0,0,0,0,1,,,,,,,,
,,,,,,,,23,2021-11-26_10h33.16.110,premceCat2_ses-02_part-02_label-phase2,2020.2.10,MacIntel,60,,,,,,,,,0,63,63,71,1,stimuli/objects/faxmachine.jpg,right,new,72,,,,,,,,,,,,,,,
,,,,,,,,23,2021-11-26_10h33.16.110,premceCat2_ses-02_part-02_label-phase2,2020.2.10,MacIntel,60,,,,,left,1.4645,4,0.0278,,,,,,,,,,right,0.278,0,0,0,0,1,,,,,,,,
,,,,,,,,23,2021-11-26_10h33.16.110,premceCat2_ses-02_part-02_label-phase2,2020.2.10,MacIntel,60,,,,,,,,,0,64,64,82,1,stimuli/objects/snowbrush.jpg,right,new,83,,,,,,,,,,,,,,,
,,,,,,,,23,2021-11-26_10h33.16.110,premceCat2_ses-02_part-02_label-phase2,2020.2.10,MacIntel,60,,,,,left,1.0896,2,0.2289,,,,,,,,,,right,0.2447,0,0,0,0,1,,,,,,,,
,,,,,,,,23,2021-11-26_10h33.16.110,premceCat2_ses-02_part-02_label-phase2,2020.2.10,MacIntel,60,,,,,,,,,0,65,65,76,1,stimuli/objects/megaphone.jpg,right,new,77,,,,,,,,,,,,,,,
,,,,,,,,23,2021-11-26_10h33.16.110,premceCat2_ses-02_part-02_label-phase2,2020.2.10,MacIntel,60,,,,,left,0.9564,4,0.2787,,,,,,,,,,left,0.276,0,0,0,0,1,,,,,,,,
,,,,,,,,23,2021-11-26_10h33.16.110,premceCat2_ses-02_part-02_label-phase2,2020.2.10,MacIntel,60,,,,,,,,,0,66,66,27,1,stimuli/objects/baseballglove.jpg,left,old,28,,,,,,,,,,,,,,,
,,,,,,,,23,2021-11-26_10h33.16.110,premceCat2_ses-02_part-02_label-phase2,2020.2.10,MacIntel,60,,,,,left,1.0385,4,0.1208,,,,,,,,,,right,0.1781,0,0,0,0,1,,,,,,,,
,,,,,,,,23,2021-11-26_10h33.16.110,premceCat2_ses-02_part-02_label-phase2,2020.2.10,MacIntel,60,,,,,,,,,0,67,67,31,1,stimuli/objects/mallet01b.jpg,left,old,32,,,,,,,,,,,,,,,
,,,,,,,,23,2021-11-26_10h33.16.110,premceCat2_ses-02_part-02_label-phase2,2020.2.10,MacIntel,60,,,,,left,1.8401,4,0.2628,,,,,,,,,,left,1.2596,0,0,0,0,1,,,,,,,,
,,,,,,,,23,2021-11-26_10h33.16.110,premceCat2_ses-02_part-02_label-phase2,2020.2.10,MacIntel,60,,,,,,,,,0,68,68,10,1,stimuli/objects/dvdcase01.jpg,left,old,11,,,,,,,,,,,,,,,
,,,,,,,,23,2021-11-26_10h33.16.110,premceCat2_ses-02_part-02_label-phase2,2020.2.10,MacIntel,60,,,,,left,1.7542,1,1.9612,,,,,,,,,,left,0.2677,0,0,0,0,1,,,,,,,,
,,,,,,,,23,2021-11-26_10h33.16.110,premceCat2_ses-02_part-02_label-phase2,2020.2.10,MacIntel,60,,,,,,,,,0,69,69,4,1,stimuli/objects/microphone01.jpg,right,new,5,,,,,,,,,,,,,,,
,,,,,,,,23,2021-11-26_10h33.16.110,premceCat2_ses-02_part-02_label-phase2,2020.2.10,MacIntel,60,,,,,left,1.0431,4,0.2599,,,,,,,,,,right,0.6465,0,0,0,0,1,,,,,,,,
,,,,,,,,23,2021-11-26_10h33.16.110,premceCat2_ses-02_part-02_label-phase2,2020.2.10,MacIntel,60,,,,,,,,,0,70,70,115,1,stimuli/objects/pipewrench.jpg,left,old,116,,,,,,,,,,,,,,,
,,,,,,,,23,2021-11-26_10h33.16.110,premceCat2_ses-02_part-02_label-phase2,2020.2.10,MacIntel,60,,,,,left,1.1065,4,1.1027,,,,,,,,,,left,0.2779,0,0,0,0,1,,,,,,,,
,,,,,,,,23,2021-11-26_10h33.16.110,premceCat2_ses-02_part-02_label-phase2,2020.2.10,MacIntel,60,,,,,,,,,0,71,71,126,1,stimuli/objects/tableknife02.jpg,right,new,127,,,,,,,,,,,,,,,
,,,,,,,,23,2021-11-26_10h33.16.110,premceCat2_ses-02_part-02_label-phase2,2020.2.10,MacIntel,60,,,,,right,3.656,1,0.046,0,72,72,116,1,stimuli/objects/radio01.jpg,right,new,117,,,,,,,,,,,,,,,
,,,,,,,,23,2021-11-26_10h33.16.110,premceCat2_ses-02_part-02_label-phase2,2020.2.10,MacIntel,60,,,,,left,1.9714,2,0.7626,,,,,,,,,,right,2.5814,0,0,0,0,1,,,,,,,,
,,,,,,,,23,2021-11-26_10h33.16.110,premceCat2_ses-02_part-02_label-phase2,2020.2.10,MacIntel,60,,,,,,,,,0,73,73,101,1,stimuli/objects/chandelier.jpg,left,old,102,,,,,,,,,,,,,,,
,,,,,,,,23,2021-11-26_10h33.16.110,premceCat2_ses-02_part-02_label-phase2,2020.2.10,MacIntel,60,,,,,left,0.9223,4,0.2629,,,,,,,,,,left,0.2749,0,0,0,0,1,,,,,,,,
,,,,,,,,23,2021-11-26_10h33.16.110,premceCat2_ses-02_part-02_label-phase2,2020.2.10,MacIntel,60,,,,,,,,,0,74,74,48,1,stimuli/objects/breadknife.jpg,left,old,49,,,,,,,,,,,,,,,
,,,,,,,,23,2021-11-26_10h33.16.110,premceCat2_ses-02_part-02_label-phase2,2020.2.10,MacIntel,60,,,,,left,0.9874,2,0.3084,,,,,,,,,,left,0.2791,0,0,0,0,1,,,,,,,,
,,,,,,,,23,2021-11-26_10h33.16.110,premceCat2_ses-02_part-02_label-phase2,2020.2.10,MacIntel,60,,,,,,,,,0,75,75,119,1,stimuli/objects/tongs01b.jpg,right,new,120,,,,,,,,,,,,,,,
,,,,,,,,23,2021-11-26_10h33.16.110,premceCat2_ses-02_part-02_label-phase2,2020.2.10,MacIntel,60,,,,,left,1.3574,3,0.6199,,,,,,,,,,right,0.278,0,0,0,0,1,,,,,,,,
,,,,,,,,23,2021-11-26_10h33.16.110,premceCat2_ses-02_part-02_label-phase2,2020.2.10,MacIntel,60,,,,,,,,,0,76,76,29,1,stimuli/objects/computerkeyboard02.jpg,left,old,30,,,,,,,,,,,,,,,
,,,,,,,,23,2021-11-26_10h33.16.110,premceCat2_ses-02_part-02_label-phase2,2020.2.10,MacIntel,60,,,,,left,0.9564,4,1.0259,,,,,,,,,,left,0.3096,0,0,0,0,1,,,,,,,,
,,,,,,,,23,2021-11-26_10h33.16.110,premceCat2_ses-02_part-02_label-phase2,2020.2.10,MacIntel,60,,,,,,,,,0,77,77,130,1,stimuli/objects/soccerball.jpg,left,old,131,,,,,,,,,,,,,,,
,,,,,,,,23,2021-11-26_10h33.16.110,premceCat2_ses-02_part-02_label-phase2,2020.2.10,MacIntel,60,,,,,left,0.8401,4,0.4606,,,,,,,,,,right,0.1293,0,0,0,0,1,,,,,,,,
,,,,,,,,23,2021-11-26_10h33.16.110,premceCat2_ses-02_part-02_label-phase2,2020.2.10,MacIntel,60,,,,,,,,,0,78,78,7,1,stimuli/objects/puttyknife.jpg,left,old,8,,,,,,,,,,,,,,,
,,,,,,,,23,2021-11-26_10h33.16.110,premceCat2_ses-02_part-02_label-phase2,2020.2.10,MacIntel,60,,,,,left,1.8231,2,0.2634,,,,,,,,,,right,1.6619,0,0,0,0,1,,,,,,,,
,,,,,,,,23,2021-11-26_10h33.16.110,premceCat2_ses-02_part-02_label-phase2,2020.2.10,MacIntel,60,,,,,,,,,0,79,79,30,1,stimuli/objects/printer02.jpg,right,new,31,,,,,,,,,,,,,,,
,,,,,,,,23,2021-11-26_10h33.16.110,premceCat2_ses-02_part-02_label-phase2,2020.2.10,MacIntel,60,,,,,left,1.3216,2,0.2951,,,,,,,,,,left,0.6098,0,0,0,0,1,,,,,,,,
,,,,,,,,23,2021-11-26_10h33.16.110,premceCat2_ses-02_part-02_label-phase2,2020.2.10,MacIntel,60,,,,,,,,,0,80,80,8,1,stimuli/objects/basketballhoop01.jpg,right,new,9,,,,,,,,,,,,,,,
,,,,,,,,23,2021-11-26_10h33.16.110,premceCat2_ses-02_part-02_label-phase2,2020.2.10,MacIntel,60,,,,,right,2.5232,2,0.8103,0,81,81,90,1,stimuli/objects/carlighter02.jpg,right,new,91,,,,,,,,,,,,,,,
,,,,,,,,23,2021-11-26_10h33.16.110,premceCat2_ses-02_part-02_label-phase2,2020.2.10,MacIntel,60,,,,,right,1.4057,2,0.3779,0,82,82,19,1,stimuli/objects/peppermill02b.jpg,right,new,20,,,,,,,,,,,,,,,
,,,,,,,,23,2021-11-26_10h33.16.110,premceCat2_ses-02_part-02_label-phase2,2020.2.10,MacIntel,60,,,,,left,0.8246,3,0.7465,,,,,,,,,,left,1.3794,0,0,0,0,1,,,,,,,,
,,,,,,,,23,2021-11-26_10h33.16.110,premceCat2_ses-02_part-02_label-phase2,2020.2.10,MacIntel,60,,,,,,,,,0,83,83,53,1,stimuli/objects/binoculars01b.jpg,right,new,54,,,,,,,,,,,,,,,
,,,,,,,,23,2021-11-26_10h33.16.110,premceCat2_ses-02_part-02_label-phase2,2020.2.10,MacIntel,60,,,,,left,1.7895,4,1.1952,,,,,,,,,,right,0.1379,0,0,0,0,1,,,,,,,,
,,,,,,,,23,2021-11-26_10h33.16.110,premceCat2_ses-02_part-02_label-phase2,2020.2.10,MacIntel,60,,,,,,,,,0,84,84,122,1,stimuli/objects/extensioncord.jpg,left,old,123,,,,,,,,,,,,,,,
,,,,,,,,23,2021-11-26_10h33.16.110,premceCat2_ses-02_part-02_label-phase2,2020.2.10,MacIntel,60,,,,,left,1.1075,4,0.26,,,,,,,,,,left,0.2605,0,0,0,0,1,,,,,,,,
,,,,,,,,23,2021-11-26_10h33.16.110,premceCat2_ses-02_part-02_label-phase2,2020.2.10,MacIntel,60,,,,,,,,,0,85,85,120,1,stimuli/objects/pot01.jpg,left,old,121,,,,,,,,,,,,,,,
,,,,,,,,23,2021-11-26_10h33.16.110,premceCat2_ses-02_part-02_label-phase2,2020.2.10,MacIntel,60,,,,,left,1.4567,3,0.9445,,,,,,,,,,right,0.2955,0,0,0,0,1,,,,,,,,
,,,,,,,,23,2021-11-26_10h33.16.110,premceCat2_ses-02_part-02_label-phase2,2020.2.10,MacIntel,60,,,,,,,,,0,86,86,57,1,stimuli/objects/audiocablesplitter.jpg,right,new,58,,,,,,,,,,,,,,,
,,,,,,,,23,2021-11-26_10h33.16.110,premceCat2_ses-02_part-02_label-phase2,2020.2.10,MacIntel,60,,,,,left,1.9748,4,0.8958,,,,,,,,,,right,0.3115,0,0,0,0,1,,,,,,,,
,,,,,,,,23,2021-11-26_10h33.16.110,premceCat2_ses-02_part-02_label-phase2,2020.2.10,MacIntel,60,,,,,,,,,0,87,87,91,1,stimuli/objects/chainsaw.jpg,left,old,92,,,,,,,,,,,,,,,
,,,,,,,,23,2021-11-26_10h33.16.110,premceCat2_ses-02_part-02_label-phase2,2020.2.10,MacIntel,60,,,,,left,0.9689,3,1.0394,,,,,,,,,,right,1.0464,0,0,0,0,1,,,,,,,,
,,,,,,,,23,2021-11-26_10h33.16.110,premceCat2_ses-02_part-02_label-phase2,2020.2.10,MacIntel,60,,,,,,,,,0,88,88,21,1,stimuli/objects/paintbrush01.jpg,right,new,22,,,,,,,,,,,,,,,
,,,,,,,,23,2021-11-26_10h33.16.110,premceCat2_ses-02_part-02_label-phase2,2020.2.10,MacIntel,60,,,,,left,1.4407,2,0.5775,,,,,,,,,,left,0.2932,0,0,0,0,1,,,,,,,,
,,,,,,,,23,2021-11-26_10h33.16.110,premceCat2_ses-02_part-02_label-phase2,2020.2.10,MacIntel,60,,,,,,,,,0,89,89,22,1,stimuli/objects/umbrella04.jpg,right,new,23,,,,,,,,,,,,,,,
,,,,,,,,23,2021-11-26_10h33.16.110,premceCat2_ses-02_part-02_label-phase2,2020.2.10,MacIntel,60,,,,,left,1.938,2,0.5124,,,,,,,,,,left,0.1124,0,0,0,0,1,,,,,,,,
,,,,,,,,23,2021-11-26_10h33.16.110,premceCat2_ses-02_part-02_label-phase2,2020.2.10,MacIntel,60,,,,,,,,,0,90,90,26,1,stimuli/objects/boogieboard.jpg,right,new,27,,,,,,,,,,,,,,,
,,,,,,,,23,2021-11-26_10h33.16.110,premceCat2_ses-02_part-02_label-phase2,2020.2.10,MacIntel,60,,,,,left,1.1879,4,0.3087,,,,,,,,,,right,0.2761,0,0,0,0,1,,,,,,,,
,,,,,,,,23,2021-11-26_10h33.16.110,premceCat2_ses-02_part-02_label-phase2,2020.2.10,MacIntel,60,,,,,,,,,0,91,91,135,1,stimuli/objects/pressurewasher.jpg,left,old,136,,,,,,,,,,,,,,,
,,,,,,,,23,2021-11-26_10h33.16.110,premceCat2_ses-02_part-02_label-phase2,2020.2.10,MacIntel,60,,,,,left,1.6216,4,0.3287,,,,,,,,,,left,0.2612,0,0,0,0,1,,,,,,,,
,,,,,,,,23,2021-11-26_10h33.16.110,premceCat2_ses-02_part-02_label-phase2,2020.2.10,MacIntel,60,,,,,,,,,0,92,92,67,1,stimuli/objects/bikelock.jpg,left,old,68,,,,,,,,,,,,,,,
,,,,,,,,23,2021-11-26_10h33.16.110,premceCat2_ses-02_part-02_label-phase2,2020.2.10,MacIntel,60,,,,,left,4.8868,2,0.296,,,,,,,,,,left,0.2785,0,0,0,0,1,,,,,,,,
,,,,,,,,23,2021-11-26_10h33.16.110,premceCat2_ses-02_part-02_label-phase2,2020.2.10,MacIntel,60,,,,,,,,,0,93,93,51,1,stimuli/objects/webcam.jpg,right,new,52,,,,,,,,,,,,,,,
,,,,,,,,23,2021-11-26_10h33.16.110,premceCat2_ses-02_part-02_label-phase2,2020.2.10,MacIntel,60,,,,,left,1.321,4,0.1791,,,,,,,,,,right,0.5084,0,0,0,0,1,,,,,,,,
,,,,,,,,23,2021-11-26_10h33.16.110,premceCat2_ses-02_part-02_label-phase2,2020.2.10,MacIntel,60,,,,,,,,,0,94,94,56,1,stimuli/objects/thermos.jpg,left,old,57,,,,,,,,,,,,,,,
,,,,,,,,23,2021-11-26_10h33.16.110,premceCat2_ses-02_part-02_label-phase2,2020.2.10,MacIntel,60,,,,,left,0.7722,4,0.3794,,,,,,,,,,right,0.4636,0,0,0,0,1,,,,,,,,
,,,,,,,,23,2021-11-26_10h33.16.110,premceCat2_ses-02_part-02_label-phase2,2020.2.10,MacIntel,60,,,,,,,,,0,95,95,138,1,stimuli/objects/taperecorder.jpg,right,new,139,,,,,,,,,,,,,,,
,,,,,,,,23,2021-11-26_10h33.16.110,premceCat2_ses-02_part-02_label-phase2,2020.2.10,MacIntel,60,,,,,left,1.1393,3,0.229,,,,,,,,,,right,0.227,0,0,0,0,1,,,,,,,,
,,,,,,,,23,2021-11-26_10h33.16.110,premceCat2_ses-02_part-02_label-phase2,2020.2.10,MacIntel,60,,,,,,,,,0,96,96,32,1,stimuli/objects/mitresaw.jpg,right,new,33,,,,,,,,,,,,,,,
,,,,,,,,23,2021-11-26_10h33.16.110,premceCat2_ses-02_part-02_label-phase2,2020.2.10,MacIntel,60,,,,,left,1.1392,4,0.31,,,,,,,,,,left,0.2272,0,0,0,0,1,,,,,,,,
,,,,,,,,23,2021-11-26_10h33.16.110,premceCat2_ses-02_part-02_label-phase2,2020.2.10,MacIntel,60,,,,,,,,,0,97,97,17,1,stimuli/objects/exercisebench.jpg,right,new,18,,,,,,,,,,,,,,,
,,,,,,,,23,2021-11-26_10h33.16.110,premceCat2_ses-02_part-02_label-phase2,2020.2.10,MacIntel,60,,,,,right,2.3406,3,0.3115,0,98,98,85,1,stimuli/objects/golfball.jpg,right,new,86,,,,,,,,,,,,,,,
,,,,,,,,23,2021-11-26_10h33.16.110,premceCat2_ses-02_part-02_label-phase2,2020.2.10,MacIntel,60,,,,,left,1.2874,4,0.2929,,,,,,,,,,left,1.3627,0,0,0,0,1,,,,,,,,
,,,,,,,,23,2021-11-26_10h33.16.110,premceCat2_ses-02_part-02_label-phase2,2020.2.10,MacIntel,60,,,,,,,,,0,99,99,15,1,stimuli/objects/watercooler.jpg,left,old,16,,,,,,,,,,,,,,,
,,,,,,,,23,2021-11-26_10h33.16.110,premceCat2_ses-02_part-02_label-phase2,2020.2.10,MacIntel,60,,,,,left,2.3563,2,0.7089,,,,,,,,,,left,1.0868,0,0,0,0,1,,,,,,,,
,,,,,,,,23,2021-11-26_10h33.16.110,premceCat2_ses-02_part-02_label-phase2,2020.2.10,MacIntel,60,,,,,,,,,0,100,100,33,1,stimuli/objects/microwave.jpg,right,new,34,,,,,,,,,,,,,,,
,,,,,,,,23,2021-11-26_10h33.16.110,premceCat2_ses-02_part-02_label-phase2,2020.2.10,MacIntel,60,,,,,left,1.3214,4,0.2279,,,,,,,,,,left,0.2631,0,0,0,0,1,,,,,,,,
,,,,,,,,23,2021-11-26_10h33.16.110,premceCat2_ses-02_part-02_label-phase2,2020.2.10,MacIntel,60,,,,,,,,,0,101,101,77,1,stimuli/objects/headphones02b.jpg,left,old,78,,,,,,,,,,,,,,,
,,,,,,,,23,2021-11-26_10h33.16.110,premceCat2_ses-02_part-02_label-phase2,2020.2.10,MacIntel,60,,,,,left,0.9726,1,0.6121,,,,,,,,,,right,0.4766,0,0,0,0,1,,,,,,,,
,,,,,,,,23,2021-11-26_10h33.16.110,premceCat2_ses-02_part-02_label-phase2,2020.2.10,MacIntel,60,,,,,,,,,0,102,102,81,1,stimuli/objects/avcable.jpg,right,new,82,,,,,,,,,,,,,,,
,,,,,,,,23,2021-11-26_10h33.16.110,premceCat2_ses-02_part-02_label-phase2,2020.2.10,MacIntel,60,,,,,left,1.2381,2,1.0251,,,,,,,,,,right,0.2444,0,0,0,0,1,,,,,,,,
,,,,,,,,23,2021-11-26_10h33.16.110,premceCat2_ses-02_part-02_label-phase2,2020.2.10,MacIntel,60,,,,,,,,,0,103,103,106,1,stimuli/objects/minifridge.jpg,right,new,107,,,,,,,,,,,,,,,
,,,,,,,,23,2021-11-26_10h33.16.110,premceCat2_ses-02_part-02_label-phase2,2020.2.10,MacIntel,60,,,,,right,1.7052,2,0.3801,0,104,104,109,1,stimuli/objects/winerack.jpg,right,new,110,,,,,,,,,,,,,,,
,,,,,,,,23,2021-11-26_10h33.16.110,premceCat2_ses-02_part-02_label-phase2,2020.2.10,MacIntel,60,,,,,left,2.0124,4,0.6602,,,,,,,,,,left,0.2274,0,0,0,0,1,,,,,,,,
,,,,,,,,23,2021-11-26_10h33.16.110,premceCat2_ses-02_part-02_label-phase2,2020.2.10,MacIntel,60,,,,,,,,,0,105,105,84,1,stimuli/objects/hockeypuck.jpg,left,old,85,,,,,,,,,,,,,,,
,,,,,,,,23,2021-11-26_10h33.16.110,premceCat2_ses-02_part-02_label-phase2,2020.2.10,MacIntel,60,,,,,left,0.9367,4,0.3201,,,,,,,,,,left,2.2785,0,0,0,0,1,,,,,,,,
,,,,,,,,23,2021-11-26_10h33.16.110,premceCat2_ses-02_part-02_label-phase2,2020.2.10,MacIntel,60,,,,,,,,,0,106,106,88,1,stimuli/objects/measuringcup01.jpg,left,old,89,,,,,,,,,,,,,,,
,,,,,,,,23,2021-11-26_10h33.16.110,premceCat2_ses-02_part-02_label-phase2,2020.2.10,MacIntel,60,,,,,left,2.9716,4,0.2774,,,,,,,,,,right,0.3616,0,0,0,0,1,,,,,,,,
,,,,,,,,23,2021-11-26_10h33.16.110,premceCat2_ses-02_part-02_label-phase2,2020.2.10,MacIntel,60,,,,,,,,,0,107,107,35,1,stimuli/objects/crocodileclips.jpg,left,old,36,,,,,,,,,,,,,,,
,,,,,,,,23,2021-11-26_10h33.16.110,premceCat2_ses-02_part-02_label-phase2,2020.2.10,MacIntel,60,,,,,left,0.9888,4,6.2436,,,,,,,,,,right,0.6612,0,0,0,0,1,,,,,,,,
,,,,,,,,23,2021-11-26_10h33.16.110,premceCat2_ses-02_part-02_label-phase2,2020.2.10,MacIntel,60,,,,,,,,,0,108,108,72,1,stimuli/objects/cclamp.jpg,right,new,73,,,,,,,,,,,,,,,
,,,,,,,,23,2021-11-26_10h33.16.110,premceCat2_ses-02_part-02_label-phase2,2020.2.10,MacIntel,60,,,,,left,1.2251,4,3.1923,,,,,,,,,,right,0.114,0,0,0,0,1,,,,,,,,
,,,,,,,,23,2021-11-26_10h33.16.110,premceCat2_ses-02_part-02_label-phase2,2020.2.10,MacIntel,60,,,,,,,,,0,109,109,102,1,stimuli/objects/propanetank01.jpg,left,old,103,,,,,,,,,,,,,,,
,,,,,,,,23,2021-11-26_10h33.16.110,premceCat2_ses-02_part-02_label-phase2,2020.2.10,MacIntel,60,,,,,left,0.908,4,1.6771,,,,,,,,,,right,0.9946,0,0,0,0,1,,,,,,,,
,,,,,,,,23,2021-11-26_10h33.16.110,premceCat2_ses-02_part-02_label-phase2,2020.2.10,MacIntel,60,,,,,,,,,0,110,110,118,1,stimuli/objects/sledgehammer.jpg,left,old,119,,,,,,,,,,,,,,,
,,,,,,,,23,2021-11-26_10h33.16.110,premceCat2_ses-02_part-02_label-phase2,2020.2.10,MacIntel,60,,,,,left,1.7544,3,0.2935,,,,,,,,,,right,0.1784,0,0,0,0,1,,,,,,,,
,,,,,,,,23,2021-11-26_10h33.16.110,premceCat2_ses-02_part-02_label-phase2,2020.2.10,MacIntel,60,,,,,,,,,0,111,111,38,1,stimuli/objects/soundmixer.jpg,right,new,39,,,,,,,,,,,,,,,
,,,,,,,,23,2021-11-26_10h33.16.110,premceCat2_ses-02_part-02_label-phase2,2020.2.10,MacIntel,60,,,,,left,1.2228,3,0.4786,,,,,,,,,,right,0.2941,0,0,0,0,1,,,,,,,,
,,,,,,,,23,2021-11-26_10h33.16.110,premceCat2_ses-02_part-02_label-phase2,2020.2.10,MacIntel,60,,,,,,,,,0,112,112,128,1,stimuli/objects/tripod01.jpg,right,new,129,,,,,,,,,,,,,,,
,,,,,,,,23,2021-11-26_10h33.16.110,premceCat2_ses-02_part-02_label-phase2,2020.2.10,MacIntel,60,,,,,left,1.3396,3,0.4799,,,,,,,,,,left,0.2267,0,0,0,0,1,,,,,,,,
,,,,,,,,23,2021-11-26_10h33.16.110,premceCat2_ses-02_part-02_label-phase2,2020.2.10,MacIntel,60,,,,,,,,,0,113,113,13,1,stimuli/objects/bastingbrush.jpg,right,new,14,,,,,,,,,,,,,,,
,,,,,,,,23,2021-11-26_10h33.16.110,premceCat2_ses-02_part-02_label-phase2,2020.2.10,MacIntel,60,,,,,left,1.736,4,0.2793,,,,,,,,,,left,0.8785,0,0,0,0,1,,,,,,,,
,,,,,,,,23,2021-11-26_10h33.16.110,premceCat2_ses-02_part-02_label-phase2,2020.2.10,MacIntel,60,,,,,,,,,0,114,114,49,1,stimuli/objects/volleyball.jpg,left,old,50,,,,,,,,,,,,,,,
,,,,,,,,23,2021-11-26_10h33.16.110,premceCat2_ses-02_part-02_label-phase2,2020.2.10,MacIntel,60,,,,,right,1.8522,2,0.613,0,115,115,117,1,stimuli/objects/videotape01b.jpg,right,new,118,,,,,,,,,,,,,,,
,,,,,,,,23,2021-11-26_10h33.16.110,premceCat2_ses-02_part-02_label-phase2,2020.2.10,MacIntel,60,,,,,right,1.6381,2,0.2302,0,116,116,18,1,stimuli/objects/cashregister01.jpg,right,new,19,,,,,,,,,,,,,,,
,,,,,,,,23,2021-11-26_10h33.16.110,premceCat2_ses-02_part-02_label-phase2,2020.2.10,MacIntel,60,,,,,left,2.9255,4,0.3451,,,,,,,,,,right,0.3115,0,0,0,0,1,,,,,,,,
,,,,,,,,23,2021-11-26_10h33.16.110,premceCat2_ses-02_part-02_label-phase2,2020.2.10,MacIntel,60,,,,,,,,,0,117,117,79,1,stimuli/objects/dvdplayer.jpg,left,old,80,,,,,,,,,,,,,,,
,,,,,,,,23,2021-11-26_10h33.16.110,premceCat2_ses-02_part-02_label-phase2,2020.2.10,MacIntel,60,,,,,left,1.1725,4,0.3447,,,,,,,,,,right,0.5125,0,0,0,0,1,,,,,,,,
,,,,,,,,23,2021-11-26_10h33.16.110,premceCat2_ses-02_part-02_label-phase2,2020.2.10,MacIntel,60,,,,,,,,,0,118,118,104,1,stimuli/objects/carantenna.jpg,left,old,105,,,,,,,,,,,,,,,
,,,,,,,,23,2021-11-26_10h33.16.110,premceCat2_ses-02_part-02_label-phase2,2020.2.10,MacIntel,60,,,,,left,1.1053,4,5.2794,,,,,,,,,,left,0.543,0,0,0,0,1,,,,,,,,
,,,,,,,,23,2021-11-26_10h33.16.110,premceCat2_ses-02_part-02_label-phase2,2020.2.10,MacIntel,60,,,,,,,,,0,119,119,6,1,stimuli/objects/corkscrew03a.jpg,left,old,7,,,,,,,,,,,,,,,
,,,,,,,,23,2021-11-26_10h33.16.110,premceCat2_ses-02_part-02_label-phase2,2020.2.10,MacIntel,60,,,,,left,4.6618,1,0.4597,,,,,,,,,,right,0.5777,0,0,0,0,1,,,,,,,,
,,,,,,,,23,2021-11-26_10h33.16.110,premceCat2_ses-02_part-02_label-phase2,2020.2.10,MacIntel,60,,,,,,,,,0,120,120,9,1,stimuli/objects/measuringtape01.jpg,right,new,10,,,,,,,,,,,,,,,
,,,,,,,,23,2021-11-26_10h33.16.110,premceCat2_ses-02_part-02_label-phase2,2020.2.10,MacIntel,60,,,,,left,0.9393,4,0.3097,,,,,,,,,,left,0.2416,0,0,0,0,1,,,,,,,,
,,,,,,,,23,2021-11-26_10h33.16.110,premceCat2_ses-02_part-02_label-phase2,2020.2.10,MacIntel,60,,,,,,,,,0,121,121,96,1,stimuli/objects/golfbag.jpg,right,new,97,,,,,,,,,,,,,,,
,,,,,,,,23,2021-11-26_10h33.16.110,premceCat2_ses-02_part-02_label-phase2,2020.2.10,MacIntel,60,,,,,right,2.8496,3,0.7614,0,122,122,137,1,stimuli/objects/exercisebike.jpg,left,old,138,,,,,,,,,,,,,,,
,,,,,,,,23,2021-11-26_10h33.16.110,premceCat2_ses-02_part-02_label-phase2,2020.2.10,MacIntel,60,,,,,left,1.4757,4,1.1442,,,,,,,,,,left,0.3529,0,0,0,0,1,,,,,,,,
,,,,,,,,23,2021-11-26_10h33.16.110,premceCat2_ses-02_part-02_label-phase2,2020.2.10,MacIntel,60,,,,,,,,,0,123,123,140,1,stimuli/objects/catchermask.jpg,left,old,141,,,,,,,,,,,,,,,
,,,,,,,,23,2021-11-26_10h33.16.110,premceCat2_ses-02_part-02_label-phase2,2020.2.10,MacIntel,60,,,,,right,0.5212,1,0.9016,0,124,124,24,1,stimuli/objects/skateboard.jpg,right,new,25,,,,,,,,,,,,,,,
,,,,,,,,23,2021-11-26_10h33.16.110,premceCat2_ses-02_part-02_label-phase2,2020.2.10,MacIntel,60,,,,,left,1.2076,4,0.3416,,,,,,,,,,right,0.26,0,0,0,0,1,,,,,,,,
,,,,,,,,23,2021-11-26_10h33.16.110,premceCat2_ses-02_part-02_label-phase2,2020.2.10,MacIntel,60,,,,,,,,,0,125,125,99,1,stimuli/objects/snowblower.jpg,left,old,100,,,,,,,,,,,,,,,
,,,,,,,,23,2021-11-26_10h33.16.110,premceCat2_ses-02_part-02_label-phase2,2020.2.10,MacIntel,60,,,,,left,1.3733,4,0.2433,,,,,,,,,,right,0.2209,0,0,0,0,1,,,,,,,,
,,,,,,,,23,2021-11-26_10h33.16.110,premceCat2_ses-02_part-02_label-phase2,2020.2.10,MacIntel,60,,,,,,,,,0,126,126,47,1,stimuli/objects/hoe.jpg,left,old,48,,,,,,,,,,,,,,,
,,,,,,,,23,2021-11-26_10h33.16.110,premceCat2_ses-02_part-02_label-phase2,2020.2.10,MacIntel,60,,,,,left,1.2078,3,0.4805,,,,,,,,,,left,0.2734,0,0,0,0,1,,,,,,,,
,,,,,,,,23,2021-11-26_10h33.16.110,premceCat2_ses-02_part-02_label-phase2,2020.2.10,MacIntel,60,,,,,,,,,0,127,127,12,1,stimuli/objects/garlicpress02a.jpg,right,new,13,,,,,,,,,,,,,,,
,,,,,,,,23,2021-11-26_10h33.16.110,premceCat2_ses-02_part-02_label-phase2,2020.2.10,MacIntel,60,,,,,right,1.291,3,0.173,0,128,128,110,1,stimuli/objects/lock03a.jpg,right,new,111,,,,,,,,,,,,,,,
,,,,,,,,23,2021-11-26_10h33.16.110,premceCat2_ses-02_part-02_label-phase2,2020.2.10,MacIntel,60,,,,,left,4.666,4,0.3279,,,,,,,,,,left,1.3764,0,0,0,0,1,,,,,,,,
,,,,,,,,23,2021-11-26_10h33.16.110,premceCat2_ses-02_part-02_label-phase2,2020.2.10,MacIntel,60,,,,,,,,,0,129,129,44,1,stimuli/objects/pliers02b.jpg,left,old,45,,,,,,,,,,,,,,,
,,,,,,,,23,2021-11-26_10h33.16.110,premceCat2_ses-02_part-02_label-phase2,2020.2.10,MacIntel,60,,,,,right,0.9386,2,2.078,0,130,130,40,1,stimuli/objects/wateringcan.jpg,left,old,41,,,,,,,,,,,,,,,
,,,,,,,,23,2021-11-26_10h33.16.110,premceCat2_ses-02_part-02_label-phase2,2020.2.10,MacIntel,60,,,,,right,2.8046,3,0.262,0,131,131,121,1,stimuli/objects/ceilingspeaker.jpg,right,new,122,,,,,,,,,,,,,,,
,,,,,,,,23,2021-11-26_10h33.16.110,premceCat2_ses-02_part-02_label-phase2,2020.2.10,MacIntel,60,,,,,left,2.1206,3,0.2472,,,,,,,,,,left,0.1789,0,0,0,0,1,,,,,,,,
,,,,,,,,23,2021-11-26_10h33.16.110,premceCat2_ses-02_part-02_label-phase2,2020.2.10,MacIntel,60,,,,,,,,,0,132,132,78,1,stimuli/objects/tupperware03a.jpg,left,old,79,,,,,,,,,,,,,,,
,,,,,,,,23,2021-11-26_10h33.16.110,premceCat2_ses-02_part-02_label-phase2,2020.2.10,MacIntel,60,,,,,right,2.9897,3,1.4295,0,133,133,11,1,stimuli/objects/telephone01b.jpg,left,old,12,,,,,,,,,,,,,,,
,,,,,,,,23,2021-11-26_10h33.16.110,premceCat2_ses-02_part-02_label-phase2,2020.2.10,MacIntel,60,,,,,left,4.3755,3,0.9806,,,,,,,,,,left,0.3603,0,0,0,0,1,,,,,,,,
,,,,,,,,23,2021-11-26_10h33.16.110,premceCat2_ses-02_part-02_label-phase2,2020.2.10,MacIntel,60,,,,,,,,,0,134,134,107,1,stimuli/objects/canister.jpg,left,old,108,,,,,,,,,,,,,,,
,,,,,,,,23,2021-11-26_10h33.16.110,premceCat2_ses-02_part-02_label-phase2,2020.2.10,MacIntel,60,,,,,left,1.3425,4,1.1794,,,,,,,,,,right,0.7099,0,0,0,0,1,,,,,,,,
,,,,,,,,23,2021-11-26_10h33.16.110,premceCat2_ses-02_part-02_label-phase2,2020.2.10,MacIntel,60,,,,,,,,,0,135,135,123,1,stimuli/objects/gasburner.jpg,left,old,124,,,,,,,,,,,,,,,
,,,,,,,,23,2021-11-26_10h33.16.110,premceCat2_ses-02_part-02_label-phase2,2020.2.10,MacIntel,60,,,,,left,1.1544,4,0.3273,,,,,,,,,,left,0.2597,0,0,0,0,1,,,,,,,,
,,,,,,,,23,2021-11-26_10h33.16.110,premceCat2_ses-02_part-02_label-phase2,2020.2.10,MacIntel,60,,,,,,,,,0,136,136,97,1,stimuli/objects/coffeemachine.jpg,left,old,98,,,,,,,,,,,,,,,
,,,,,,,,23,2021-11-26_10h33.16.110,premceCat2_ses-02_part-02_label-phase2,2020.2.10,MacIntel,60,,,,,left,1.324,4,0.5604,,,,,,,,,,left,0.3447,0,0,0,0,1,,,,,,,,
,,,,,,,,23,2021-11-26_10h33.16.110,premceCat2_ses-02_part-02_label-phase2,2020.2.10,MacIntel,60,,,,,,,,,0,137,137,34,1,stimuli/objects/hockeygoaliemask.jpg,left,old,35,,,,,,,,,,,,,,,
,,,,,,,,23,2021-11-26_10h33.16.110,premceCat2_ses-02_part-02_label-phase2,2020.2.10,MacIntel,60,,,,,left,1.4823,3,0.5376,,,,,,,,,,right,0.294,0,0,0,0,1,,,,,,,,
,,,,,,,,23,2021-11-26_10h33.16.110,premceCat2_ses-02_part-02_label-phase2,2020.2.10,MacIntel,60,,,,,,,,,0,138,138,108,1,stimuli/objects/metalscissors.jpg,right,new,109,,,,,,,,,,,,,,,
,,,,,,,,23,2021-11-26_10h33.16.110,premceCat2_ses-02_part-02_label-phase2,2020.2.10,MacIntel,60,,,,,left,1.0392,4,0.3441,,,,,,,,,,right,0.4277,0,0,0,0,1,,,,,,,,
,,,,,,,,23,2021-11-26_10h33.16.110,premceCat2_ses-02_part-02_label-phase2,2020.2.10,MacIntel,60,,,,,,,,,0,139,139,52,1,stimuli/objects/spatula04.jpg,left,old,53,,,,,,,,,,,,,,,
,,,,,,,,23,2021-11-26_10h33.16.110,premceCat2_ses-02_part-02_label-phase2,2020.2.10,MacIntel,60,,,,,left,1.3915,4,1.0294,,,,,,,,,,right,0.9105,0,0,0,0,1,,,,,,,,
,,,,,,,,23,2021-11-26_10h33.16.110,premceCat2_ses-02_part-02_label-phase2,2020.2.10,MacIntel,60,,,,,,,,,0,140,140,16,1,stimuli/objects/stubbywrench01a.jpg,left,old,17,,,,,,,,,,,,,,,
,,,,,,,,23,2021-11-26_10h33.16.110,premceCat2_ses-02_part-02_label-phase2,2020.2.10,MacIntel,60,,,,,left,2.3039,2,0.1858,,,,,,,,,,right,0.6956,0,0,0,0,1,,,,,,,,
,,,,,,,,23,2021-11-26_10h33.16.110,premceCat2_ses-02_part-02_label-phase2,2020.2.10,MacIntel,60,,,,,,,,,0,141,141,73,1,stimuli/objects/clock01a.jpg,right,new,74,,,,,,,,,,,,,,,
,,,,,,,,23,2021-11-26_10h33.16.110,premceCat2_ses-02_part-02_label-phase2,2020.2.10,MacIntel,60,,,,,left,0.8911,4,0.2957,,,,,,,,,,left,0.2956,0,0,0,0,1,,,,,,,,
,,,,,,,,23,2021-11-26_10h33.16.110,premceCat2_ses-02_part-02_label-phase2,2020.2.10,MacIntel,60,,,,,,,,,0,142,142,129,1,stimuli/objects/cleaver01.jpg,left,old,130,,,,,,,,,,,,,,,
,,,,,,,,23,2021-11-26_10h33.16.110,premceCat2_ses-02_part-02_label-phase2,2020.2.10,MacIntel,60,,,,,,,,,,,,,,,,,,,,,,,,,space,2.8497,0,1,1,0,1,condition_files/ImagesforRecog4_1.csv
