myownaccuracy,respcorrs,minNrPractice,considerNrTrials,Instr_resp.keys,Instr_resp.rt,key_resp_2.keys,key_resp_2.rt,Instruction_loop.thisRepN,Instruction_loop.thisTrialN,Instruction_loop.thisN,Instruction_loop.thisIndex,Instruction_loop.ran,slides,participant,date,expName,psychopyVersion,OS,frameRate,key_resp_3.keys,key_resp_3.rt,taskGoresp.keys,taskGoresp.rt,pract_resp.keys,pract_resp.corr,pract_resp.rt,myownaccuracyCORR,pract_loop.thisRepN,pract_loop.thisTrialN,pract_loop.thisN,pract_loop.thisIndex,pract_loop.ran,first_character,second_character,Cue,left_categ,centleft_categ,centright_categ,right_categ,corr_ans,trial_cond,switch_cond,cuedCharacter,corrCat,image,rep_resp.keys,rep_resp.rt,repeat_pract.thisRepN,repeat_pract.thisTrialN,repeat_pract.thisN,repeat_pract.thisIndex,repeat_pract.ran,task_resp.keys,task_resp.corr,task_resp.rt,task_loop.thisRepN,task_loop.thisTrialN,task_loop.thisN,task_loop.thisIndex,task_loop.ran,obj_category,rep_resp_2.keys,rep_resp_2.rt,repeat_task2.thisRepN,repeat_task2.thisTrialN,repeat_task2.thisN,repeat_task2.thisIndex,repeat_task2.ran
[],[],10,10,space,150.9646,space,6.1047,0,0,0,0,1,stimuli/slide1.png,23,2021-11-25_09h05.51.834,premceCat2_ses-01_part-01_label-phase1,2020.2.9,MacIntel,60,,,,,,,,,,,,,,,,,,,,,,,,,,,,,,,,,,,,,,,,,,,,,,,,,
,,,,,,space,34.8335,0,1,1,1,1,stimuli/slide2.png,23,2021-11-25_09h05.51.834,premceCat2_ses-01_part-01_label-phase1,2020.2.9,MacIntel,60,,,,,,,,,,,,,,,,,,,,,,,,,,,,,,,,,,,,,,,,,,,,,,,,,
,,,,,,space,23.1158,0,2,2,2,1,stimuli/slide3.png,23,2021-11-25_09h05.51.834,premceCat2_ses-01_part-01_label-phase1,2020.2.9,MacIntel,60,,,,,,,,,,,,,,,,,,,,,,,,,,,,,,,,,,,,,,,,,,,,,,,,,
,,,,,,space,17.6186,0,3,3,3,1,stimuli/slide4.png,23,2021-11-25_09h05.51.834,premceCat2_ses-01_part-01_label-phase1,2020.2.9,MacIntel,60,,,,,,,,,,,,,,,,,,,,,,,,,,,,,,,,,,,,,,,,,,,,,,,,,
,,,,,,space,4.9667,0,4,4,4,1,stimuli/slide5.png,23,2021-11-25_09h05.51.834,premceCat2_ses-01_part-01_label-phase1,2020.2.9,MacIntel,60,,,,,,,,,,,,,,,,,,,,,,,,,,,,,,,,,,,,,,,,,,,,,,,,,
,,,,,,space,15.4168,0,5,5,5,1,stimuli/slide6.png,23,2021-11-25_09h05.51.834,premceCat2_ses-01_part-01_label-phase1,2020.2.9,MacIntel,60,,,,,,,,,,,,,,,,,,,,,,,,,,,,,,,,,,,,,,,,,,,,,,,,,
0,[],,,,,,,,,,,,,23,2021-11-25_09h05.51.834,premceCat2_ses-01_part-01_label-phase1,2020.2.9,MacIntel,60,space,48.3835,space,16.0322,2,0,1.475,0,0,0,0,0,1,stimuli/m1.jpg,stimuli/m4.jpg,2,stimuli/Stationary & school supply.png,stimuli/Vehicle.png,stimuli/Gamestoy & entertainment.png,stimuli/Clothing.png,4,1,0,stimuli/m4.jpg,Clothing,stimuli/objects/sneaker03b.jpg,,,,,,,,,,,,,,,,,,,,,,,
0,[0],,,,,,,,,,,,,23,2021-11-25_09h05.51.834,premceCat2_ses-01_part-01_label-phase1,2020.2.9,MacIntel,60,,,,,2,0,2.5496,0,0,1,1,1,1,stimuli/m1.jpg,stimuli/m4.jpg,2,stimuli/Stationary & school supply.png,stimuli/Clothing.png,stimuli/Vehicle.png,stimuli/Gamestoy & entertainment.png,1,0,0,stimuli/m4.jpg,Stationary & school supply,stimuli/objects/paperclip01b.jpg,,,,,,,,,,,,,,,,,,,,,,,
0,[0],,,,,,,,,,,,,23,2021-11-25_09h05.51.834,premceCat2_ses-01_part-01_label-phase1,2020.2.9,MacIntel,60,,,,,,0,,0,0,2,2,2,1,stimuli/m1.jpg,stimuli/m4.jpg,1,stimuli/Vehicle.png,stimuli/Stationary & school supply.png,stimuli/Clothing.png,stimuli/Gamestoy & entertainment.png,2,1,0,stimuli/m1.jpg,Stationary & school supply,stimuli/objects/protractor.jpg,,,,,,,,,,,,,,,,,,,,,,,
0,"[0,0]",,,,,,,,,,,,,23,2021-11-25_09h05.51.834,premceCat2_ses-01_part-01_label-phase1,2020.2.9,MacIntel,60,,,,,1,0,1.5821,0,0,3,3,3,1,stimuli/m4.jpg,stimuli/m1.jpg,1,stimuli/Stationary & school supply.png,stimuli/Vehicle.png,stimuli/Gamestoy & entertainment.png,stimuli/Clothing.png,4,1,0,stimuli/m4.jpg,Clothing,stimuli/objects/hikingshoe01.jpg,,,,,,,,,,,,,,,,,,,,,,,
0,"[0,0,0]",,,,,,,,,,,,,23,2021-11-25_09h05.51.834,premceCat2_ses-01_part-01_label-phase1,2020.2.9,MacIntel,60,,,,,1,0,0.9315,0,0,4,4,4,1,stimuli/m1.jpg,stimuli/m4.jpg,1,stimuli/Clothing.png,stimuli/Stationary & school supply.png,stimuli/Vehicle.png,stimuli/Gamestoy & entertainment.png,2,1,0,stimuli/m1.jpg,Stationary & school supply,stimuli/objects/book01b.jpg,,,,,,,,,,,,,,,,,,,,,,,
1,"[0,0,0,0]",,,,,,,,,,,,,23,2021-11-25_09h05.51.834,premceCat2_ses-01_part-01_label-phase1,2020.2.9,MacIntel,60,,,,,4,1,1.5832,1,0,5,5,5,1,stimuli/m4.jpg,stimuli/m1.jpg,1,stimuli/Stationary & school supply.png,stimuli/Gamestoy & entertainment.png,stimuli/Vehicle.png,stimuli/Clothing.png,4,1,0,stimuli/m4.jpg,Clothing,stimuli/objects/shoelace.jpg,,,,,,,,,,,,,,,,,,,,,,,
0,"[0,0,0,0,1]",,,,,,,,,,,,,23,2021-11-25_09h05.51.834,premceCat2_ses-01_part-01_label-phase1,2020.2.9,MacIntel,60,,,,,2,0,1.2663,0,0,6,6,6,1,stimuli/m1.jpg,stimuli/m4.jpg,2,stimuli/Clothing.png,stimuli/Stationary & school supply.png,stimuli/Vehicle.png,stimuli/Gamestoy & entertainment.png,1,1,0,stimuli/m4.jpg,Clothing,stimuli/objects/moccasin.jpg,,,,,,,,,,,,,,,,,,,,,,,
1,"[0,0,0,0,1,0]",,,,,,,,,,,,,23,2021-11-25_09h05.51.834,premceCat2_ses-01_part-01_label-phase1,2020.2.9,MacIntel,60,,,,,2,1,0.9657,1,0,7,7,7,1,stimuli/m1.jpg,stimuli/m4.jpg,2,stimuli/Gamestoy & entertainment.png,stimuli/Clothing.png,stimuli/Stationary & school supply.png,stimuli/Vehicle.png,2,1,0,stimuli/m4.jpg,Clothing,stimuli/objects/waders.jpg,,,,,,,,,,,,,,,,,,,,,,,
1,"[0,0,0,0,1,0,1]",,,,,,,,,,,,,23,2021-11-25_09h05.51.834,premceCat2_ses-01_part-01_label-phase1,2020.2.9,MacIntel,60,,,,,3,1,0.9157,1,0,8,8,8,1,stimuli/m4.jpg,stimuli/m1.jpg,2,stimuli/Vehicle.png,stimuli/Gamestoy & entertainment.png,stimuli/Stationary & school supply.png,stimuli/Clothing.png,3,1,0,stimuli/m1.jpg,Stationary & school supply,stimuli/objects/eraser.jpg,,,,,,,,,,,,,,,,,,,,,,,
1,"[0,0,0,0,1,0,1,1]",,,,,,,,,,,,,23,2021-11-25_09h05.51.834,premceCat2_ses-01_part-01_label-phase1,2020.2.9,MacIntel,60,,,,,1,1,1.0476,1,0,9,9,9,1,stimuli/m4.jpg,stimuli/m1.jpg,2,stimuli/Stationary & school supply.png,stimuli/Vehicle.png,stimuli/Clothing.png,stimuli/Gamestoy & entertainment.png,1,1,0,stimuli/m1.jpg,Stationary & school supply,stimuli/objects/fountainpen.jpg,,,,,,,,,,,,,,,,,,,,,,,
1,"[0,0,0,0,1,0,1,1,1]",,,,,,,,,,,,,23,2021-11-25_09h05.51.834,premceCat2_ses-01_part-01_label-phase1,2020.2.9,MacIntel,60,,,,,2,1,0.9658,1,0,10,10,10,1,stimuli/m4.jpg,stimuli/m1.jpg,1,stimuli/Vehicle.png,stimuli/Clothing.png,stimuli/Stationary & school supply.png,stimuli/Gamestoy & entertainment.png,2,1,0,stimuli/m4.jpg,Clothing,stimuli/objects/visor.jpg,,,,,,,,,,,,,,,,,,,,,,,
0,"[0,0,0,0,1,0,1,1,1,1]",,,,,,,,,,,,,23,2021-11-25_09h05.51.834,premceCat2_ses-01_part-01_label-phase1,2020.2.9,MacIntel,60,,,,,1,0,1.4819,0,0,11,11,11,1,stimuli/m4.jpg,stimuli/m1.jpg,1,stimuli/Stationary & school supply.png,stimuli/Clothing.png,stimuli/Vehicle.png,stimuli/Gamestoy & entertainment.png,2,1,0,stimuli/m4.jpg,Clothing,stimuli/objects/mitten04.jpg,,,,,,,,,,,,,,,,,,,,,,,
1,"[0,0,0,0,1,0,1,1,1,1,0]",,,,,,,,,,,,,23,2021-11-25_09h05.51.834,premceCat2_ses-01_part-01_label-phase1,2020.2.9,MacIntel,60,,,,,2,1,1.0324,1,0,12,12,12,1,stimuli/m4.jpg,stimuli/m1.jpg,2,stimuli/Clothing.png,stimuli/Stationary & school supply.png,stimuli/Vehicle.png,stimuli/Gamestoy & entertainment.png,2,1,0,stimuli/m1.jpg,Stationary & school supply,stimuli/objects/notebook03a.jpg,,,,,,,,,,,,,,,,,,,,,,,
0,"[0,0,0,0,1,0,1,1,1,1,0,1]",,,,,,,,,,,,,23,2021-11-25_09h05.51.834,premceCat2_ses-01_part-01_label-phase1,2020.2.9,MacIntel,60,,,,,2,0,1.3821,1,0,13,13,13,1,stimuli/m4.jpg,stimuli/m1.jpg,1,stimuli/Vehicle.png,stimuli/Clothing.png,stimuli/Gamestoy & entertainment.png,stimuli/Stationary & school supply.png,1,0,0,stimuli/m4.jpg,Vehicle,stimuli/objects/locomotive.jpg,,,,,,,,,,,,,,,,,,,,,,,
0,"[0,0,0,0,1,0,1,1,1,1,0,1]",,,,,,,,,,,,,23,2021-11-25_09h05.51.834,premceCat2_ses-01_part-01_label-phase1,2020.2.9,MacIntel,60,,,,,3,0,2.1318,0,0,14,14,14,1,stimuli/m4.jpg,stimuli/m1.jpg,2,stimuli/Gamestoy & entertainment.png,stimuli/Stationary & school supply.png,stimuli/Vehicle.png,stimuli/Clothing.png,2,1,0,stimuli/m1.jpg,Stationary & school supply,stimuli/objects/mechanicalpencil02.jpg,,,,,,,,,,,,,,,,,,,,,,,
0,"[0,0,0,0,1,0,1,1,1,1,0,1,0]",,,,,,,,,,,,,23,2021-11-25_09h05.51.834,premceCat2_ses-01_part-01_label-phase1,2020.2.9,MacIntel,60,,,,,4,0,1.6521,0,0,15,15,15,1,stimuli/m4.jpg,stimuli/m1.jpg,1,stimuli/Gamestoy & entertainment.png,stimuli/Clothing.png,stimuli/Stationary & school supply.png,stimuli/Vehicle.png,1,0,0,stimuli/m4.jpg,Gamestoy & entertainment,stimuli/objects/rattle.jpg,,,,,,,,,,,,,,,,,,,,,,,
0,"[0,0,0,0,1,0,1,1,1,1,0,1,0]",,,,,,,,,,,,,23,2021-11-25_09h05.51.834,premceCat2_ses-01_part-01_label-phase1,2020.2.9,MacIntel,60,,,,,2,0,0.8652,0,0,16,16,16,1,stimuli/m4.jpg,stimuli/m1.jpg,1,stimuli/Gamestoy & entertainment.png,stimuli/Vehicle.png,stimuli/Stationary & school supply.png,stimuli/Clothing.png,4,1,0,stimuli/m4.jpg,Clothing,stimuli/objects/sheriffhat.jpg,,,,,,,,,,,,,,,,,,,,,,,
0,"[0,0,0,0,1,0,1,1,1,1,0,1,0,0]",,,,,,,,,,,,,23,2021-11-25_09h05.51.834,premceCat2_ses-01_part-01_label-phase1,2020.2.9,MacIntel,60,,,,,1,0,0.9751,0,0,17,17,17,1,stimuli/m4.jpg,stimuli/m1.jpg,1,stimuli/Gamestoy & entertainment.png,stimuli/Clothing.png,stimuli/Vehicle.png,stimuli/Stationary & school supply.png,2,1,0,stimuli/m4.jpg,Clothing,stimuli/objects/jeans01.jpg,,,,,,,,,,,,,,,,,,,,,,,
1,"[0,0,0,0,1,0,1,1,1,1,0,1,0,0,0]",,,,,,,,,,,,,23,2021-11-25_09h05.51.834,premceCat2_ses-01_part-01_label-phase1,2020.2.9,MacIntel,60,,,,,4,1,1.5822,1,0,18,18,18,1,stimuli/m1.jpg,stimuli/m4.jpg,2,stimuli/Stationary & school supply.png,stimuli/Gamestoy & entertainment.png,stimuli/Vehicle.png,stimuli/Clothing.png,4,1,0,stimuli/m4.jpg,Clothing,stimuli/objects/bowtie.jpg,,,,,,,,,,,,,,,,,,,,,,,
0,"[0,0,0,0,1,0,1,1,1,1,0,1,0,0,0,1]",,,,,,,,,,,,,23,2021-11-25_09h05.51.834,premceCat2_ses-01_part-01_label-phase1,2020.2.9,MacIntel,60,,,,,1,0,0.9822,1,0,19,19,19,1,stimuli/m1.jpg,stimuli/m4.jpg,1,stimuli/Stationary & school supply.png,stimuli/Clothing.png,stimuli/Vehicle.png,stimuli/Gamestoy & entertainment.png,3,0,0,stimuli/m1.jpg,Vehicle,stimuli/objects/porsche.jpg,,,,,,,,,,,,,,,,,,,,,,,
0,"[0,0,0,0,1,0,1,1,1,1,0,1,0,0,0,1]",,,,,,,,,,,,,23,2021-11-25_09h05.51.834,premceCat2_ses-01_part-01_label-phase1,2020.2.9,MacIntel,60,,,,,1,0,1.4402,1,0,20,20,20,1,stimuli/m1.jpg,stimuli/m4.jpg,1,stimuli/Vehicle.png,stimuli/Gamestoy & entertainment.png,stimuli/Clothing.png,stimuli/Stationary & school supply.png,3,0,0,stimuli/m1.jpg,Clothing,stimuli/objects/sandal.jpg,,,,,,,,,,,,,,,,,,,,,,,
0,"[0,0,0,0,1,0,1,1,1,1,0,1,0,0,0,1]",,,,,,,,,,,,,23,2021-11-25_09h05.51.834,premceCat2_ses-01_part-01_label-phase1,2020.2.9,MacIntel,60,,,,,1,0,1.2484,0,0,21,21,21,1,stimuli/m4.jpg,stimuli/m1.jpg,2,stimuli/Vehicle.png,stimuli/Clothing.png,stimuli/Gamestoy & entertainment.png,stimuli/Stationary & school supply.png,4,1,0,stimuli/m1.jpg,Stationary & school supply,stimuli/objects/chalkboard01.jpg,,,,,,,,,,,,,,,,,,,,,,,
0,"[0,0,0,0,1,0,1,1,1,1,0,1,0,0,0,1,0]",,,,,,,,,,,,,23,2021-11-25_09h05.51.834,premceCat2_ses-01_part-01_label-phase1,2020.2.9,MacIntel,60,,,,,4,0,1.415,0,0,22,22,22,1,stimuli/m4.jpg,stimuli/m1.jpg,1,stimuli/Gamestoy & entertainment.png,stimuli/Stationary & school supply.png,stimuli/Clothing.png,stimuli/Vehicle.png,3,1,0,stimuli/m4.jpg,Clothing,stimuli/objects/tie02.jpg,,,,,,,,,,,,,,,,,,,,,,,
0,"[0,0,0,0,1,0,1,1,1,1,0,1,0,0,0,1,0,0]",,,,,,,,,,,,,23,2021-11-25_09h05.51.834,premceCat2_ses-01_part-01_label-phase1,2020.2.9,MacIntel,60,,,,,1,0,2.3497,0,0,23,23,23,1,stimuli/m4.jpg,stimuli/m1.jpg,2,stimuli/Vehicle.png,stimuli/Gamestoy & entertainment.png,stimuli/Clothing.png,stimuli/Stationary & school supply.png,4,1,0,stimuli/m1.jpg,Stationary & school supply,stimuli/objects/papertray.jpg,,,,,,,,,,,,,,,,,,,,,,,
0,"[0,0,0,0,1,0,1,1,1,1,0,1,0,0,0,1,0,0,0]",,,,,,,,,,,,,23,2021-11-25_09h05.51.834,premceCat2_ses-01_part-01_label-phase1,2020.2.9,MacIntel,60,,,,,4,0,2.099,0,0,24,24,24,1,stimuli/m4.jpg,stimuli/m1.jpg,1,stimuli/Clothing.png,stimuli/Gamestoy & entertainment.png,stimuli/Vehicle.png,stimuli/Stationary & school supply.png,1,1,0,stimuli/m4.jpg,Clothing,stimuli/objects/shirt02.jpg,,,,,,,,,,,,,,,,,,,,,,,
0,"[0,0,0,0,1,0,1,1,1,1,0,1,0,0,0,1,0,0,0,0]",,,,,,,,,,,,,23,2021-11-25_09h05.51.834,premceCat2_ses-01_part-01_label-phase1,2020.2.9,MacIntel,60,,,,,1,0,1.0982,0,0,25,25,25,1,stimuli/m4.jpg,stimuli/m1.jpg,2,stimuli/Vehicle.png,stimuli/Stationary & school supply.png,stimuli/Gamestoy & entertainment.png,stimuli/Clothing.png,2,1,0,stimuli/m1.jpg,Stationary & school supply,stimuli/objects/pen04b.jpg,,,,,,,,,,,,,,,,,,,,,,,
1,"[0,0,0,0,1,0,1,1,1,1,0,1,0,0,0,1,0,0,0,0,0]",,,,,,,,,,,,,23,2021-11-25_09h05.51.834,premceCat2_ses-01_part-01_label-phase1,2020.2.9,MacIntel,60,,,,,4,1,1.6816,1,0,26,26,26,1,stimuli/m4.jpg,stimuli/m1.jpg,2,stimuli/Clothing.png,stimuli/Gamestoy & entertainment.png,stimuli/Vehicle.png,stimuli/Stationary & school supply.png,4,1,0,stimuli/m1.jpg,Stationary & school supply,stimuli/objects/divider02.jpg,,,,,,,,,,,,,,,,,,,,,,,
0,"[0,0,0,0,1,0,1,1,1,1,0,1,0,0,0,1,0,0,0,0,0,1]",,,,,,,,,,,,,23,2021-11-25_09h05.51.834,premceCat2_ses-01_part-01_label-phase1,2020.2.9,MacIntel,60,,,,,3,0,1.5316,1,0,27,27,27,1,stimuli/m4.jpg,stimuli/m1.jpg,1,stimuli/Vehicle.png,stimuli/Gamestoy & entertainment.png,stimuli/Clothing.png,stimuli/Stationary & school supply.png,4,0,0,stimuli/m4.jpg,Stationary & school supply,stimuli/objects/expandablefolder03a.jpg,,,,,,,,,,,,,,,,,,,,,,,
0,"[0,0,0,0,1,0,1,1,1,1,0,1,0,0,0,1,0,0,0,0,0,1]",,,,,,,,,,,,,23,2021-11-25_09h05.51.834,premceCat2_ses-01_part-01_label-phase1,2020.2.9,MacIntel,60,,,,,1,0,1.0667,0,0,28,28,28,1,stimuli/m1.jpg,stimuli/m4.jpg,2,stimuli/Vehicle.png,stimuli/Stationary & school supply.png,stimuli/Clothing.png,stimuli/Gamestoy & entertainment.png,3,1,0,stimuli/m4.jpg,Clothing,stimuli/objects/sock01a.jpg,,,,,,,,,,,,,,,,,,,,,,,
1,"[0,0,0,0,1,0,1,1,1,1,0,1,0,0,0,1,0,0,0,0,0,1,0]",,,,,,,,,,,,,23,2021-11-25_09h05.51.834,premceCat2_ses-01_part-01_label-phase1,2020.2.9,MacIntel,60,,,,,4,1,1.447,1,0,29,29,29,1,stimuli/m1.jpg,stimuli/m4.jpg,1,stimuli/Gamestoy & entertainment.png,stimuli/Vehicle.png,stimuli/Clothing.png,stimuli/Stationary & school supply.png,4,1,0,stimuli/m1.jpg,Stationary & school supply,stimuli/objects/pencilsharpener02a.jpg,,,,,,,,,,,,,,,,,,,,,,,
0,"[0,0,0,0,1,0,1,1,1,1,0,1,0,0,0,1,0,0,0,0,0,1,0,1]",,,,,,,,,,,,,23,2021-11-25_09h05.51.834,premceCat2_ses-01_part-01_label-phase1,2020.2.9,MacIntel,60,,,,,1,0,1.2322,1,0,30,30,30,1,stimuli/m4.jpg,stimuli/m1.jpg,2,stimuli/Clothing.png,stimuli/Vehicle.png,stimuli/Gamestoy & entertainment.png,stimuli/Stationary & school supply.png,3,0,0,stimuli/m1.jpg,Gamestoy & entertainment,stimuli/objects/interlockingbuildingblock03b.jpg,,,,,,,,,,,,,,,,,,,,,,,
0,"[0,0,0,0,1,0,1,1,1,1,0,1,0,0,0,1,0,0,0,0,0,1,0,1]",,,,,,,,,,,,,23,2021-11-25_09h05.51.834,premceCat2_ses-01_part-01_label-phase1,2020.2.9,MacIntel,60,,,,,2,0,1.5301,0,0,31,31,31,1,stimuli/m4.jpg,stimuli/m1.jpg,2,stimuli/Clothing.png,stimuli/Gamestoy & entertainment.png,stimuli/Stationary & school supply.png,stimuli/Vehicle.png,3,1,0,stimuli/m1.jpg,Stationary & school supply,stimuli/objects/scotchtape.jpg,,,,,,,,,,,,,,,,,,,,,,,
0,"[0,0,0,0,1,0,1,1,1,1,0,1,0,0,0,1,0,0,0,0,0,1,0,1,0]",,,,,,,,,,,,,23,2021-11-25_09h05.51.834,premceCat2_ses-01_part-01_label-phase1,2020.2.9,MacIntel,60,,,,,4,0,2.0819,0,0,32,32,32,1,stimuli/m4.jpg,stimuli/m1.jpg,2,stimuli/Stationary & school supply.png,stimuli/Vehicle.png,stimuli/Gamestoy & entertainment.png,stimuli/Clothing.png,2,0,0,stimuli/m1.jpg,Vehicle,stimuli/objects/mailtruck.jpg,,,,,,,,,,,,,,,,,,,,,,,
0,"[0,0,0,0,1,0,1,1,1,1,0,1,0,0,0,1,0,0,0,0,0,1,0,1,0]",,,,,,,,,,,,,23,2021-11-25_09h05.51.834,premceCat2_ses-01_part-01_label-phase1,2020.2.9,MacIntel,60,,,,,4,0,1.6985,0,0,33,33,33,1,stimuli/m1.jpg,stimuli/m4.jpg,2,stimuli/Stationary & school supply.png,stimuli/Vehicle.png,stimuli/Clothing.png,stimuli/Gamestoy & entertainment.png,3,1,0,stimuli/m4.jpg,Clothing,stimuli/objects/flipflop01b.jpg,,,,,,,,,,,,,,,,,,,,,,,
0,"[0,0,0,0,1,0,1,1,1,1,0,1,0,0,0,1,0,0,0,0,0,1,0,1,0,0]",,,,,,,,,,,,,23,2021-11-25_09h05.51.834,premceCat2_ses-01_part-01_label-phase1,2020.2.9,MacIntel,60,,,,,1,0,1.4661,0,0,34,34,34,1,stimuli/m1.jpg,stimuli/m4.jpg,2,stimuli/Vehicle.png,stimuli/Clothing.png,stimuli/Stationary & school supply.png,stimuli/Gamestoy & entertainment.png,2,1,0,stimuli/m4.jpg,Clothing,stimuli/objects/witchhat.jpg,,,,,,,,,,,,,,,,,,,,,,,
0,"[0,0,0,0,1,0,1,1,1,1,0,1,0,0,0,1,0,0,0,0,0,1,0,1,0,0,0]",,,,,,,,,,,,,23,2021-11-25_09h05.51.834,premceCat2_ses-01_part-01_label-phase1,2020.2.9,MacIntel,60,,,,,1,0,2.1812,0,0,35,35,35,1,stimuli/m1.jpg,stimuli/m4.jpg,1,stimuli/Clothing.png,stimuli/Vehicle.png,stimuli/Gamestoy & entertainment.png,stimuli/Stationary & school supply.png,4,1,0,stimuli/m1.jpg,Stationary & school supply,stimuli/objects/chalk.jpg,,,,,,,,,,,,,,,,,,,,,,,
0,"[0,0,0,0,1,0,1,1,1,1,0,1,0,0,0,1,0,0,0,0,0,1,0,1,0,0,0,0]",,,,,,,,,,,,,23,2021-11-25_09h05.51.834,premceCat2_ses-01_part-01_label-phase1,2020.2.9,MacIntel,60,,,,,3,0,1.482,0,0,36,36,36,1,stimuli/m4.jpg,stimuli/m1.jpg,2,stimuli/Gamestoy & entertainment.png,stimuli/Vehicle.png,stimuli/Clothing.png,stimuli/Stationary & school supply.png,4,1,0,stimuli/m1.jpg,Stationary & school supply,stimuli/objects/stapleremover.jpg,,,,,,,,,,,,,,,,,,,,,,,
0,"[0,0,0,0,1,0,1,1,1,1,0,1,0,0,0,1,0,0,0,0,0,1,0,1,0,0,0,0,0]",,,,,,,,,,,,,23,2021-11-25_09h05.51.834,premceCat2_ses-01_part-01_label-phase1,2020.2.9,MacIntel,60,,,,,4,0,1.2809,0,0,37,37,37,1,stimuli/m4.jpg,stimuli/m1.jpg,2,stimuli/Clothing.png,stimuli/Stationary & school supply.png,stimuli/Gamestoy & entertainment.png,stimuli/Vehicle.png,2,1,0,stimuli/m1.jpg,Stationary & school supply,stimuli/objects/highlighter02b.jpg,,,,,,,,,,,,,,,,,,,,,,,
0,"[0,0,0,0,1,0,1,1,1,1,0,1,0,0,0,1,0,0,0,0,0,1,0,1,0,0,0,0,0,0]",,,,,,,,,,,,,23,2021-11-25_09h05.51.834,premceCat2_ses-01_part-01_label-phase1,2020.2.9,MacIntel,60,,,,,1,0,1.415,0,0,38,38,38,1,stimuli/m1.jpg,stimuli/m4.jpg,2,stimuli/Stationary & school supply.png,stimuli/Clothing.png,stimuli/Gamestoy & entertainment.png,stimuli/Vehicle.png,2,1,0,stimuli/m4.jpg,Clothing,stimuli/objects/hat03b.jpg,,,,,,,,,,,,,,,,,,,,,,,
0,"[0,0,0,0,1,0,1,1,1,1,0,1,0,0,0,1,0,0,0,0,0,1,0,1,0,0,0,0,0,0,0]",,,,,,,,,,,,,23,2021-11-25_09h05.51.834,premceCat2_ses-01_part-01_label-phase1,2020.2.9,MacIntel,60,,,,,4,0,1.4311,0,0,39,39,39,1,stimuli/m1.jpg,stimuli/m4.jpg,1,stimuli/Gamestoy & entertainment.png,stimuli/Vehicle.png,stimuli/Stationary & school supply.png,stimuli/Clothing.png,1,0,0,stimuli/m1.jpg,Gamestoy & entertainment,stimuli/objects/beachpaddle01a.jpg,,,,,,,,,,,,,,,,,,,,,,,
1,"[0,0,0,0,1,0,1,1,1,1,0,1,0,0,0,1,0,0,0,0,0,1,0,1,0,0,0,0,0,0,0]",,,,,,,,,,,,,23,2021-11-25_09h05.51.834,premceCat2_ses-01_part-01_label-phase1,2020.2.9,MacIntel,60,,,,,1,1,0.915,1,0,40,40,40,1,stimuli/m4.jpg,stimuli/m1.jpg,1,stimuli/Clothing.png,stimuli/Stationary & school supply.png,stimuli/Vehicle.png,stimuli/Gamestoy & entertainment.png,1,1,0,stimuli/m4.jpg,Clothing,stimuli/objects/overalls.jpg,,,,,,,,,,,,,,,,,,,,,,,
1,"[0,0,0,0,1,0,1,1,1,1,0,1,0,0,0,1,0,0,0,0,0,1,0,1,0,0,0,0,0,0,0,1]",,,,,,,,,,,,,23,2021-11-25_09h05.51.834,premceCat2_ses-01_part-01_label-phase1,2020.2.9,MacIntel,60,,,,,1,1,0.6824,1,0,41,41,41,1,stimuli/m1.jpg,stimuli/m4.jpg,2,stimuli/Clothing.png,stimuli/Stationary & school supply.png,stimuli/Gamestoy & entertainment.png,stimuli/Vehicle.png,1,1,0,stimuli/m4.jpg,Clothing,stimuli/objects/tuque03a.jpg,,,,,,,,,,,,,,,,,,,,,,,
1,"[0,0,0,0,1,0,1,1,1,1,0,1,0,0,0,1,0,0,0,0,0,1,0,1,0,0,0,0,0,0,0,1,1]",,,,,,,,,,,,,23,2021-11-25_09h05.51.834,premceCat2_ses-01_part-01_label-phase1,2020.2.9,MacIntel,60,,,,,4,1,1.3941,1,0,42,42,42,1,stimuli/m1.jpg,stimuli/m4.jpg,2,stimuli/Gamestoy & entertainment.png,stimuli/Stationary & school supply.png,stimuli/Vehicle.png,stimuli/Clothing.png,4,1,0,stimuli/m4.jpg,Clothing,stimuli/objects/shirt01.jpg,,,,,,,,,,,,,,,,,,,,,,,
1,"[0,0,0,0,1,0,1,1,1,1,0,1,0,0,0,1,0,0,0,0,0,1,0,1,0,0,0,0,0,0,0,1,1,1]",,,,,,,,,,,,,23,2021-11-25_09h05.51.834,premceCat2_ses-01_part-01_label-phase1,2020.2.9,MacIntel,60,,,,,2,1,0.85,1,0,43,43,43,1,stimuli/m1.jpg,stimuli/m4.jpg,1,stimuli/Vehicle.png,stimuli/Stationary & school supply.png,stimuli/Gamestoy & entertainment.png,stimuli/Clothing.png,2,1,0,stimuli/m1.jpg,Stationary & school supply,stimuli/objects/smartboard.jpg,,,,,,,,,,,,,,,,,,,,,,,
1,"[0,0,0,0,1,0,1,1,1,1,0,1,0,0,0,1,0,0,0,0,0,1,0,1,0,0,0,0,0,0,0,1,1,1,1]",,,,,,,,,,,,,23,2021-11-25_09h05.51.834,premceCat2_ses-01_part-01_label-phase1,2020.2.9,MacIntel,60,,,,,1,1,1.9991,1,0,44,44,44,1,stimuli/m1.jpg,stimuli/m4.jpg,2,stimuli/Clothing.png,stimuli/Gamestoy & entertainment.png,stimuli/Stationary & school supply.png,stimuli/Vehicle.png,1,1,0,stimuli/m4.jpg,Clothing,stimuli/objects/belt02a.jpg,,,,,,,,,,,,,,,,,,,,,,,
0,"[0,0,0,0,1,0,1,1,1,1,0,1,0,0,0,1,0,0,0,0,0,1,0,1,0,0,0,0,0,0,0,1,1,1,1,1]",,,,,,,,,,,,,23,2021-11-25_09h05.51.834,premceCat2_ses-01_part-01_label-phase1,2020.2.9,MacIntel,60,,,,,2,0,1.6136,0,0,45,45,45,1,stimuli/m4.jpg,stimuli/m1.jpg,2,stimuli/Stationary & school supply.png,stimuli/Clothing.png,stimuli/Gamestoy & entertainment.png,stimuli/Vehicle.png,1,1,0,stimuli/m1.jpg,Stationary & school supply,stimuli/objects/clipboard.jpg,,,,,,,,,,,,,,,,,,,,,,,
1,"[0,0,0,0,1,0,1,1,1,1,0,1,0,0,0,1,0,0,0,0,0,1,0,1,0,0,0,0,0,0,0,1,1,1,1,1,0]",,,,,,,,,,,,,23,2021-11-25_09h05.51.834,premceCat2_ses-01_part-01_label-phase1,2020.2.9,MacIntel,60,,,,,1,1,1.0986,1,0,46,46,46,1,stimuli/m4.jpg,stimuli/m1.jpg,1,stimuli/Clothing.png,stimuli/Stationary & school supply.png,stimuli/Gamestoy & entertainment.png,stimuli/Vehicle.png,1,1,0,stimuli/m4.jpg,Clothing,stimuli/objects/athleticsock.jpg,,,,,,,,,,,,,,,,,,,,,,,
0,"[0,0,0,0,1,0,1,1,1,1,0,1,0,0,0,1,0,0,0,0,0,1,0,1,0,0,0,0,0,0,0,1,1,1,1,1,0,1]",,,,,,,,,,,,,23,2021-11-25_09h05.51.834,premceCat2_ses-01_part-01_label-phase1,2020.2.9,MacIntel,60,,,,,3,0,2.0825,0,0,47,47,47,1,stimuli/m1.jpg,stimuli/m4.jpg,1,stimuli/Gamestoy & entertainment.png,stimuli/Stationary & school supply.png,stimuli/Clothing.png,stimuli/Vehicle.png,2,1,0,stimuli/m1.jpg,Stationary & school supply,stimuli/objects/mathcompass.jpg,,,,,,,,,,,,,,,,,,,,,,,
0,"[0,0,0,0,1,0,1,1,1,1,0,1,0,0,0,1,0,0,0,0,0,1,0,1,0,0,0,0,0,0,0,1,1,1,1,1,0,1,0]",,,,,,,,,,,,,23,2021-11-25_09h05.51.834,premceCat2_ses-01_part-01_label-phase1,2020.2.9,MacIntel,60,,,,,1,0,0.8819,0,0,48,48,48,1,stimuli/m4.jpg,stimuli/m1.jpg,2,stimuli/Stationary & school supply.png,stimuli/Clothing.png,stimuli/Vehicle.png,stimuli/Gamestoy & entertainment.png,2,0,0,stimuli/m1.jpg,Clothing,stimuli/objects/cap01a.jpg,,,,,,,,,,,,,,,,,,,,,,,
0,"[0,0,0,0,1,0,1,1,1,1,0,1,0,0,0,1,0,0,0,0,0,1,0,1,0,0,0,0,0,0,0,1,1,1,1,1,0,1,0]",,,,,,,,,,,,,23,2021-11-25_09h05.51.834,premceCat2_ses-01_part-01_label-phase1,2020.2.9,MacIntel,60,,,,,2,0,0.8737,0,0,49,49,49,1,stimuli/m4.jpg,stimuli/m1.jpg,1,stimuli/Vehicle.png,stimuli/Stationary & school supply.png,stimuli/Gamestoy & entertainment.png,stimuli/Clothing.png,3,0,0,stimuli/m4.jpg,Gamestoy & entertainment,stimuli/objects/playingcard.jpg,,,,,,,,,,,,,,,,,,,,,,,
0,"[0,0,0,0,1,0,1,1,1,1,0,1,0,0,0,1,0,0,0,0,0,1,0,1,0,0,0,0,0,0,0,1,1,1,1,1,0,1,0]",,,,,,,,,,,,,23,2021-11-25_09h05.51.834,premceCat2_ses-01_part-01_label-phase1,2020.2.9,MacIntel,60,,,,,1,0,1.1651,0,0,50,50,50,1,stimuli/m1.jpg,stimuli/m4.jpg,1,stimuli/Gamestoy & entertainment.png,stimuli/Clothing.png,stimuli/Vehicle.png,stimuli/Stationary & school supply.png,4,1,0,stimuli/m1.jpg,Stationary & school supply,stimuli/objects/chalkboarderaser01.jpg,,,,,,,,,,,,,,,,,,,,,,,
1,"[0,0,0,0,1,0,1,1,1,1,0,1,0,0,0,1,0,0,0,0,0,1,0,1,0,0,0,0,0,0,0,1,1,1,1,1,0,1,0,0]",,,,,,,,,,,,,23,2021-11-25_09h05.51.834,premceCat2_ses-01_part-01_label-phase1,2020.2.9,MacIntel,60,,,,,4,1,1.3983,0,0,51,51,51,1,stimuli/m1.jpg,stimuli/m4.jpg,1,stimuli/Gamestoy & entertainment.png,stimuli/Clothing.png,stimuli/Stationary & school supply.png,stimuli/Vehicle.png,4,0,0,stimuli/m1.jpg,Vehicle,stimuli/objects/bus.jpg,,,,,,,,,,,,,,,,,,,,,,,
0,"[0,0,0,0,1,0,1,1,1,1,0,1,0,0,0,1,0,0,0,0,0,1,0,1,0,0,0,0,0,0,0,1,1,1,1,1,0,1,0,0]",,,,,,,,,,,,,23,2021-11-25_09h05.51.834,premceCat2_ses-01_part-01_label-phase1,2020.2.9,MacIntel,60,,,,,2,0,1.5313,0,0,52,52,52,1,stimuli/m1.jpg,stimuli/m4.jpg,2,stimuli/Clothing.png,stimuli/Gamestoy & entertainment.png,stimuli/Vehicle.png,stimuli/Stationary & school supply.png,3,0,0,stimuli/m4.jpg,Vehicle,stimuli/objects/convertible.jpg,,,,,,,,,,,,,,,,,,,,,,,
0,"[0,0,0,0,1,0,1,1,1,1,0,1,0,0,0,1,0,0,0,0,0,1,0,1,0,0,0,0,0,0,0,1,1,1,1,1,0,1,0,0]",,,,,,,,,,,,,23,2021-11-25_09h05.51.834,premceCat2_ses-01_part-01_label-phase1,2020.2.9,MacIntel,60,,,,,4,0,1.3831,0,0,53,53,53,1,stimuli/m1.jpg,stimuli/m4.jpg,1,stimuli/Stationary & school supply.png,stimuli/Gamestoy & entertainment.png,stimuli/Vehicle.png,stimuli/Clothing.png,1,1,0,stimuli/m1.jpg,Stationary & school supply,stimuli/objects/binder03b.jpg,,,,,,,,,,,,,,,,,,,,,,,
0,"[0,0,0,0,1,0,1,1,1,1,0,1,0,0,0,1,0,0,0,0,0,1,0,1,0,0,0,0,0,0,0,1,1,1,1,1,0,1,0,0,0]",,,,,,,,,,,,,23,2021-11-25_09h05.51.834,premceCat2_ses-01_part-01_label-phase1,2020.2.9,MacIntel,60,,,,,2,0,0.8504,0,0,54,54,54,1,stimuli/m4.jpg,stimuli/m1.jpg,2,stimuli/Gamestoy & entertainment.png,stimuli/Vehicle.png,stimuli/Stationary & school supply.png,stimuli/Clothing.png,3,1,0,stimuli/m1.jpg,Stationary & school supply,stimuli/objects/calendar.jpg,,,,,,,,,,,,,,,,,,,,,,,
0,"[0,0,0,0,1,0,1,1,1,1,0,1,0,0,0,1,0,0,0,0,0,1,0,1,0,0,0,0,0,0,0,1,1,1,1,1,0,1,0,0,0,0]",,,,,,,,,,,,,23,2021-11-25_09h05.51.834,premceCat2_ses-01_part-01_label-phase1,2020.2.9,MacIntel,60,,,,,1,0,1.0363,0,0,55,55,55,1,stimuli/m1.jpg,stimuli/m4.jpg,1,stimuli/Clothing.png,stimuli/Gamestoy & entertainment.png,stimuli/Stationary & school supply.png,stimuli/Vehicle.png,3,1,0,stimuli/m1.jpg,Stationary & school supply,stimuli/objects/gluestick.jpg,,,,,,,,,,,,,,,,,,,,,,,
1,"[0,0,0,0,1,0,1,1,1,1,0,1,0,0,0,1,0,0,0,0,0,1,0,1,0,0,0,0,0,0,0,1,1,1,1,1,0,1,0,0,0,0,0]",,,,,,,,,,,,,23,2021-11-25_09h05.51.834,premceCat2_ses-01_part-01_label-phase1,2020.2.9,MacIntel,60,,,,,1,1,0.9619,1,0,56,56,56,1,stimuli/m4.jpg,stimuli/m1.jpg,1,stimuli/Clothing.png,stimuli/Vehicle.png,stimuli/Stationary & school supply.png,stimuli/Gamestoy & entertainment.png,1,1,0,stimuli/m4.jpg,Clothing,stimuli/objects/cap03.jpg,,,,,,,,,,,,,,,,,,,,,,,
1,"[0,0,0,0,1,0,1,1,1,1,0,1,0,0,0,1,0,0,0,0,0,1,0,1,0,0,0,0,0,0,0,1,1,1,1,1,0,1,0,0,0,0,0,1]",,,,,,,,,,,,,23,2021-11-25_09h05.51.834,premceCat2_ses-01_part-01_label-phase1,2020.2.9,MacIntel,60,,,,,2,1,0.7474,1,0,57,57,57,1,stimuli/m1.jpg,stimuli/m4.jpg,1,stimuli/Gamestoy & entertainment.png,stimuli/Stationary & school supply.png,stimuli/Vehicle.png,stimuli/Clothing.png,2,1,0,stimuli/m1.jpg,Stationary & school supply,stimuli/objects/marker01a.jpg,,,,,,,,,,,,,,,,,,,,,,,
1,"[0,0,0,0,1,0,1,1,1,1,0,1,0,0,0,1,0,0,0,0,0,1,0,1,0,0,0,0,0,0,0,1,1,1,1,1,0,1,0,0,0,0,0,1,1]",,,,,,,,,,,,,23,2021-11-25_09h05.51.834,premceCat2_ses-01_part-01_label-phase1,2020.2.9,MacIntel,60,,,,,3,1,1.0652,1,0,58,58,58,1,stimuli/m1.jpg,stimuli/m4.jpg,2,stimuli/Stationary & school supply.png,stimuli/Gamestoy & entertainment.png,stimuli/Clothing.png,stimuli/Vehicle.png,3,1,0,stimuli/m4.jpg,Clothing,stimuli/objects/safarihat.jpg,,,,,,,,,,,,,,,,,,,,,,,
0,"[0,0,0,0,1,0,1,1,1,1,0,1,0,0,0,1,0,0,0,0,0,1,0,1,0,0,0,0,0,0,0,1,1,1,1,1,0,1,0,0,0,0,0,1,1,1]",,,,,,,,,,,,,23,2021-11-25_09h05.51.834,premceCat2_ses-01_part-01_label-phase1,2020.2.9,MacIntel,60,,,,,1,0,0.949,1,0,59,59,59,1,stimuli/m4.jpg,stimuli/m1.jpg,1,stimuli/Clothing.png,stimuli/Vehicle.png,stimuli/Gamestoy & entertainment.png,stimuli/Stationary & school supply.png,3,0,0,stimuli/m4.jpg,Gamestoy & entertainment,stimuli/objects/mrpotatohead.jpg,,,,,,,,,,,,,,,,,,,,,,,
,,,,,,,,,,,,,,23,2021-11-25_09h05.51.834,premceCat2_ses-01_part-01_label-phase1,2020.2.9,MacIntel,60,,,,,,,,,,,,,,,,,,,,,,,,,,,j,31.7152,0,0,0,0,1,,,,,,,,,,,,,,,,
0,[],,,,,,,,,,,,,23,2021-11-25_09h05.51.834,premceCat2_ses-01_part-01_label-phase1,2020.2.9,MacIntel,60,,,,,1,0,1.4314,0,0,0,0,0,1,stimuli/m1.jpg,stimuli/m4.jpg,2,stimuli/Stationary & school supply.png,stimuli/Vehicle.png,stimuli/Gamestoy & entertainment.png,stimuli/Clothing.png,4,1,0,stimuli/m4.jpg,Clothing,stimuli/objects/sneaker03b.jpg,,,,,,,,,,,,,,,,,,,,,,,
0,[0],,,,,,,,,,,,,23,2021-11-25_09h05.51.834,premceCat2_ses-01_part-01_label-phase1,2020.2.9,MacIntel,60,,,,,2,0,1.182,0,0,1,1,1,1,stimuli/m1.jpg,stimuli/m4.jpg,2,stimuli/Stationary & school supply.png,stimuli/Clothing.png,stimuli/Vehicle.png,stimuli/Gamestoy & entertainment.png,1,0,0,stimuli/m4.jpg,Stationary & school supply,stimuli/objects/paperclip01b.jpg,,,,,,,,,,,,,,,,,,,,,,,
0,[0],,,,,,,,,,,,,23,2021-11-25_09h05.51.834,premceCat2_ses-01_part-01_label-phase1,2020.2.9,MacIntel,60,,,,,3,0,1.2317,0,0,2,2,2,1,stimuli/m1.jpg,stimuli/m4.jpg,1,stimuli/Vehicle.png,stimuli/Stationary & school supply.png,stimuli/Clothing.png,stimuli/Gamestoy & entertainment.png,2,1,0,stimuli/m1.jpg,Stationary & school supply,stimuli/objects/protractor.jpg,,,,,,,,,,,,,,,,,,,,,,,
1,"[0,0]",,,,,,,,,,,,,23,2021-11-25_09h05.51.834,premceCat2_ses-01_part-01_label-phase1,2020.2.9,MacIntel,60,,,,,4,1,2.1985,1,0,3,3,3,1,stimuli/m4.jpg,stimuli/m1.jpg,1,stimuli/Stationary & school supply.png,stimuli/Vehicle.png,stimuli/Gamestoy & entertainment.png,stimuli/Clothing.png,4,1,0,stimuli/m4.jpg,Clothing,stimuli/objects/hikingshoe01.jpg,,,,,,,,,,,,,,,,,,,,,,,
1,"[0,0,1]",,,,,,,,,,,,,23,2021-11-25_09h05.51.834,premceCat2_ses-01_part-01_label-phase1,2020.2.9,MacIntel,60,,,,,2,1,0.7823,1,0,4,4,4,1,stimuli/m1.jpg,stimuli/m4.jpg,1,stimuli/Clothing.png,stimuli/Stationary & school supply.png,stimuli/Vehicle.png,stimuli/Gamestoy & entertainment.png,2,1,0,stimuli/m1.jpg,Stationary & school supply,stimuli/objects/book01b.jpg,,,,,,,,,,,,,,,,,,,,,,,
0,"[0,0,1,1]",,,,,,,,,,,,,23,2021-11-25_09h05.51.834,premceCat2_ses-01_part-01_label-phase1,2020.2.9,MacIntel,60,,,,,1,0,1.2649,0,0,5,5,5,1,stimuli/m4.jpg,stimuli/m1.jpg,1,stimuli/Stationary & school supply.png,stimuli/Gamestoy & entertainment.png,stimuli/Vehicle.png,stimuli/Clothing.png,4,1,0,stimuli/m4.jpg,Clothing,stimuli/objects/shoelace.jpg,,,,,,,,,,,,,,,,,,,,,,,
1,"[0,0,1,1,0]",,,,,,,,,,,,,23,2021-11-25_09h05.51.834,premceCat2_ses-01_part-01_label-phase1,2020.2.9,MacIntel,60,,,,,1,1,0.9821,1,0,6,6,6,1,stimuli/m1.jpg,stimuli/m4.jpg,2,stimuli/Clothing.png,stimuli/Stationary & school supply.png,stimuli/Vehicle.png,stimuli/Gamestoy & entertainment.png,1,1,0,stimuli/m4.jpg,Clothing,stimuli/objects/moccasin.jpg,,,,,,,,,,,,,,,,,,,,,,,
1,"[0,0,1,1,0,1]",,,,,,,,,,,,,23,2021-11-25_09h05.51.834,premceCat2_ses-01_part-01_label-phase1,2020.2.9,MacIntel,60,,,,,2,1,1.9645,1,0,7,7,7,1,stimuli/m1.jpg,stimuli/m4.jpg,2,stimuli/Gamestoy & entertainment.png,stimuli/Clothing.png,stimuli/Stationary & school supply.png,stimuli/Vehicle.png,2,1,0,stimuli/m4.jpg,Clothing,stimuli/objects/waders.jpg,,,,,,,,,,,,,,,,,,,,,,,
1,"[0,0,1,1,0,1,1]",,,,,,,,,,,,,23,2021-11-25_09h05.51.834,premceCat2_ses-01_part-01_label-phase1,2020.2.9,MacIntel,60,,,,,3,1,0.8487,1,0,8,8,8,1,stimuli/m4.jpg,stimuli/m1.jpg,2,stimuli/Vehicle.png,stimuli/Gamestoy & entertainment.png,stimuli/Stationary & school supply.png,stimuli/Clothing.png,3,1,0,stimuli/m1.jpg,Stationary & school supply,stimuli/objects/eraser.jpg,,,,,,,,,,,,,,,,,,,,,,,
1,"[0,0,1,1,0,1,1,1]",,,,,,,,,,,,,23,2021-11-25_09h05.51.834,premceCat2_ses-01_part-01_label-phase1,2020.2.9,MacIntel,60,,,,,1,1,0.8138,1,0,9,9,9,1,stimuli/m4.jpg,stimuli/m1.jpg,2,stimuli/Stationary & school supply.png,stimuli/Vehicle.png,stimuli/Clothing.png,stimuli/Gamestoy & entertainment.png,1,1,0,stimuli/m1.jpg,Stationary & school supply,stimuli/objects/fountainpen.jpg,,,,,,,,,,,,,,,,,,,,,,,
1,"[0,0,1,1,0,1,1,1,1]",,,,,,,,,,,,,23,2021-11-25_09h05.51.834,premceCat2_ses-01_part-01_label-phase1,2020.2.9,MacIntel,60,,,,,2,1,1.1146,1,0,10,10,10,1,stimuli/m4.jpg,stimuli/m1.jpg,1,stimuli/Vehicle.png,stimuli/Clothing.png,stimuli/Stationary & school supply.png,stimuli/Gamestoy & entertainment.png,2,1,0,stimuli/m4.jpg,Clothing,stimuli/objects/visor.jpg,,,,,,,,,,,,,,,,,,,,,,,
1,"[0,0,1,1,0,1,1,1,1,1]",,,,,,,,,,,,,23,2021-11-25_09h05.51.834,premceCat2_ses-01_part-01_label-phase1,2020.2.9,MacIntel,60,,,,,2,1,1.0174,1,0,11,11,11,1,stimuli/m4.jpg,stimuli/m1.jpg,1,stimuli/Stationary & school supply.png,stimuli/Clothing.png,stimuli/Vehicle.png,stimuli/Gamestoy & entertainment.png,2,1,0,stimuli/m4.jpg,Clothing,stimuli/objects/mitten04.jpg,,,,,,,,,,,,,,,,,,,,,,,
,,,,,,,,,,,,,,23,2021-11-25_09h05.51.834,premceCat2_ses-01_part-01_label-phase1,2020.2.9,MacIntel,60,,,,,,,,,,,,,,,,,,,,,,,,,,,n,9.8809,1,0,1,0,1,,,,,,,,,,,,,,,,
0,"[0,0,1,1,0,1,1,1,1,1,1]",,,,,,,,,,,,,23,2021-11-25_09h05.51.834,premceCat2_ses-01_part-01_label-phase1,2020.2.9,MacIntel,60,,,,,,,,0,,,,,,stimuli/m2.jpg,stimuli/m5.jpg,2,stimuli/Outdoor activity & sport item.png,stimuli/Hand labour tool & accessory.png,stimuli/Electronic device & accessory.png,stimuli/Kitchen & utensil.png,2,1,1,stimuli/m5.jpg,,stimuli/objects/jumpingjack.jpg,,,,,,,,4,0,2.1791,0,0,0,0,1,Hand labour tool & accessory,,,,,,,
0,"[0,0,1,1,0,1,1,1,1,1,1,0]",,,,,,,,,,,,,23,2021-11-25_09h05.51.834,premceCat2_ses-01_part-01_label-phase1,2020.2.9,MacIntel,60,,,,,,,,0,,,,,,stimuli/m2.jpg,stimuli/m5.jpg,2,stimuli/Hand labour tool & accessory.png,stimuli/Outdoor activity & sport item.png,stimuli/Electronic device & accessory.png,stimuli/Kitchen & utensil.png,1,1,1,stimuli/m5.jpg,,stimuli/objects/boxcutter03a.jpg,,,,,,,,3,0,1.9153,0,1,1,1,1,Hand labour tool & accessory,,,,,,,
0,"[0,0,1,1,0,1,1,1,1,1,1,0,0]",,,,,,,,,,,,,23,2021-11-25_09h05.51.834,premceCat2_ses-01_part-01_label-phase1,2020.2.9,MacIntel,60,,,,,,,,0,,,,,,stimuli/m2.jpg,stimuli/m5.jpg,1,stimuli/Hand labour tool & accessory.png,stimuli/Kitchen & utensil.png,stimuli/Electronic device & accessory.png,stimuli/Outdoor activity & sport item.png,2,0,1,stimuli/m2.jpg,,stimuli/objects/huntingknife.jpg,,,,,,,,1,0,1.6322,0,2,2,2,1,Kitchen & utensil,,,,,,,
0,"[0,0,1,1,0,1,1,1,1,1,1,0,0]",,,,,,,,,,,,,23,2021-11-25_09h05.51.834,premceCat2_ses-01_part-01_label-phase1,2020.2.9,MacIntel,60,,,,,,,,0,,,,,,stimuli/m5.jpg,stimuli/m2.jpg,2,stimuli/Kitchen & utensil.png,stimuli/Electronic device & accessory.png,stimuli/Hand labour tool & accessory.png,stimuli/Outdoor activity & sport item.png,4,1,1,stimuli/m2.jpg,,stimuli/objects/footballhelmet.jpg,,,,,,,,1,0,2.3476,0,3,3,3,1,Outdoor activity & sport item,,,,,,,
1,"[0,0,1,1,0,1,1,1,1,1,1,0,0,0]",,,,,,,,,,,,,23,2021-11-25_09h05.51.834,premceCat2_ses-01_part-01_label-phase1,2020.2.9,MacIntel,60,,,,,,,,1,,,,,,stimuli/m5.jpg,stimuli/m2.jpg,1,stimuli/Outdoor activity & sport item.png,stimuli/Hand labour tool & accessory.png,stimuli/Kitchen & utensil.png,stimuli/Electronic device & accessory.png,2,1,1,stimuli/m5.jpg,,stimuli/objects/handrake01a.jpg,,,,,,,,2,1,2.0657,0,4,4,4,1,Hand labour tool & accessory,,,,,,,
0,"[0,0,1,1,0,1,1,1,1,1,1,0,0,0,1]",,,,,,,,,,,,,23,2021-11-25_09h05.51.834,premceCat2_ses-01_part-01_label-phase1,2020.2.9,MacIntel,60,,,,,,,,0,,,,,,stimuli/m2.jpg,stimuli/m5.jpg,1,stimuli/Outdoor activity & sport item.png,stimuli/Electronic device & accessory.png,stimuli/Hand labour tool & accessory.png,stimuli/Kitchen & utensil.png,1,1,1,stimuli/m2.jpg,,stimuli/objects/crosscountryski.jpg,,,,,,,,4,0,1.0157,0,5,5,5,1,Outdoor activity & sport item,,,,,,,
0,"[0,0,1,1,0,1,1,1,1,1,1,0,0,0,1,0]",,,,,,,,,,,,,23,2021-11-25_09h05.51.834,premceCat2_ses-01_part-01_label-phase1,2020.2.9,MacIntel,60,,,,,,,,0,,,,,,stimuli/m5.jpg,stimuli/m2.jpg,2,stimuli/Hand labour tool & accessory.png,stimuli/Electronic device & accessory.png,stimuli/Outdoor activity & sport item.png,stimuli/Kitchen & utensil.png,2,0,1,stimuli/m2.jpg,,stimuli/objects/television.jpg,,,,,,,,1,0,1.7146,0,6,6,6,1,Electronic device & accessory,,,,,,,
0,"[0,0,1,1,0,1,1,1,1,1,1,0,0,0,1,0]",,,,,,,,,,,,,23,2021-11-25_09h05.51.834,premceCat2_ses-01_part-01_label-phase1,2020.2.9,MacIntel,60,,,,,,,,0,,,,,,stimuli/m5.jpg,stimuli/m2.jpg,2,stimuli/Kitchen & utensil.png,stimuli/Outdoor activity & sport item.png,stimuli/Hand labour tool & accessory.png,stimuli/Electronic device & accessory.png,2,1,1,stimuli/m2.jpg,,stimuli/objects/hose.jpg,,,,,,,,3,0,1.9325,0,7,7,7,1,Outdoor activity & sport item,,,,,,,
1,"[0,0,1,1,0,1,1,1,1,1,1,0,0,0,1,0,0]",,,,,,,,,,,,,23,2021-11-25_09h05.51.834,premceCat2_ses-01_part-01_label-phase1,2020.2.9,MacIntel,60,,,,,,,,1,,,,,,stimuli/m2.jpg,stimuli/m5.jpg,2,stimuli/Hand labour tool & accessory.png,stimuli/Electronic device & accessory.png,stimuli/Kitchen & utensil.png,stimuli/Outdoor activity & sport item.png,1,1,1,stimuli/m5.jpg,,stimuli/objects/solderingiron.jpg,,,,,,,,1,1,1.0978,0,8,8,8,1,Hand labour tool & accessory,,,,,,,
1,"[0,0,1,1,0,1,1,1,1,1,1,0,0,0,1,0,0,1]",,,,,,,,,,,,,23,2021-11-25_09h05.51.834,premceCat2_ses-01_part-01_label-phase1,2020.2.9,MacIntel,60,,,,,,,,1,,,,,,stimuli/m2.jpg,stimuli/m5.jpg,2,stimuli/Electronic device & accessory.png,stimuli/Kitchen & utensil.png,stimuli/Hand labour tool & accessory.png,stimuli/Outdoor activity & sport item.png,3,1,1,stimuli/m5.jpg,,stimuli/objects/gavel.jpg,,,,,,,,3,1,1.6344,0,9,9,9,1,Hand labour tool & accessory,,,,,,,
0,"[0,0,1,1,0,1,1,1,1,1,1,0,0,0,1,0,0,1,1]",,,,,,,,,,,,,23,2021-11-25_09h05.51.834,premceCat2_ses-01_part-01_label-phase1,2020.2.9,MacIntel,60,,,,,,,,0,,,,,,stimuli/m5.jpg,stimuli/m2.jpg,1,stimuli/Kitchen & utensil.png,stimuli/Electronic device & accessory.png,stimuli/Outdoor activity & sport item.png,stimuli/Hand labour tool & accessory.png,4,1,1,stimuli/m5.jpg,,stimuli/objects/boxcutter03a.jpg,,,,,,,,2,0,2.6829,0,10,10,10,1,Hand labour tool & accessory,,,,,,,
0,"[0,0,1,1,0,1,1,1,1,1,1,0,0,0,1,0,0,1,1,0]",,,,,,,,,,,,,23,2021-11-25_09h05.51.834,premceCat2_ses-01_part-01_label-phase1,2020.2.9,MacIntel,60,,,,,,,,0,,,,,,stimuli/m2.jpg,stimuli/m5.jpg,2,stimuli/Electronic device & accessory.png,stimuli/Hand labour tool & accessory.png,stimuli/Outdoor activity & sport item.png,stimuli/Kitchen & utensil.png,1,0,1,stimuli/m5.jpg,,stimuli/objects/walkietalkie.jpg,,,,,,,,2,0,1.5685,0,11,11,11,1,Electronic device & accessory,,,,,,,
1,"[0,0,1,1,0,1,1,1,1,1,1,0,0,0,1,0,0,1,1,0]",,,,,,,,,,,,,23,2021-11-25_09h05.51.834,premceCat2_ses-01_part-01_label-phase1,2020.2.9,MacIntel,60,,,,,,,,0,,,,,,stimuli/m2.jpg,stimuli/m5.jpg,1,stimuli/Kitchen & utensil.png,stimuli/Electronic device & accessory.png,stimuli/Hand labour tool & accessory.png,stimuli/Outdoor activity & sport item.png,1,0,1,stimuli/m2.jpg,,stimuli/objects/coffeemaker.jpg,,,,,,,,1,1,2.2824,0,12,12,12,1,Kitchen & utensil,,,,,,,
0,"[0,0,1,1,0,1,1,1,1,1,1,0,0,0,1,0,0,1,1,0]",,,,,,,,,,,,,23,2021-11-25_09h05.51.834,premceCat2_ses-01_part-01_label-phase1,2020.2.9,MacIntel,60,,,,,,,,0,,,,,,stimuli/m5.jpg,stimuli/m2.jpg,2,stimuli/Outdoor activity & sport item.png,stimuli/Electronic device & accessory.png,stimuli/Kitchen & utensil.png,stimuli/Hand labour tool & accessory.png,1,1,1,stimuli/m2.jpg,,stimuli/objects/bicycle.jpg,,,,,,,,3,0,1.4825,0,13,13,13,1,Outdoor activity & sport item,,,,,,,
1,"[0,0,1,1,0,1,1,1,1,1,1,0,0,0,1,0,0,1,1,0,0]",,,,,,,,,,,,,23,2021-11-25_09h05.51.834,premceCat2_ses-01_part-01_label-phase1,2020.2.9,MacIntel,60,,,,,,,,1,,,,,,stimuli/m2.jpg,stimuli/m5.jpg,1,stimuli/Kitchen & utensil.png,stimuli/Outdoor activity & sport item.png,stimuli/Electronic device & accessory.png,stimuli/Hand labour tool & accessory.png,2,1,1,stimuli/m2.jpg,,stimuli/objects/punchingbag.jpg,,,,,,,,2,1,1.0327,0,14,14,14,1,Outdoor activity & sport item,,,,,,,
0,"[0,0,1,1,0,1,1,1,1,1,1,0,0,0,1,0,0,1,1,0,0,1]",,,,,,,,,,,,,23,2021-11-25_09h05.51.834,premceCat2_ses-01_part-01_label-phase1,2020.2.9,MacIntel,60,,,,,,,,1,,,,,,stimuli/m5.jpg,stimuli/m2.jpg,1,stimuli/Electronic device & accessory.png,stimuli/Outdoor activity & sport item.png,stimuli/Hand labour tool & accessory.png,stimuli/Kitchen & utensil.png,2,0,1,stimuli/m5.jpg,,stimuli/objects/footballhelmet.jpg,,,,,,,,4,0,1.4638,0,15,15,15,1,Outdoor activity & sport item,,,,,,,
1,"[0,0,1,1,0,1,1,1,1,1,1,0,0,0,1,0,0,1,1,0,0,1]",,,,,,,,,,,,,23,2021-11-25_09h05.51.834,premceCat2_ses-01_part-01_label-phase1,2020.2.9,MacIntel,60,,,,,,,,1,,,,,,stimuli/m5.jpg,stimuli/m2.jpg,1,stimuli/Kitchen & utensil.png,stimuli/Hand labour tool & accessory.png,stimuli/Electronic device & accessory.png,stimuli/Outdoor activity & sport item.png,4,0,1,stimuli/m5.jpg,,stimuli/objects/swing.jpg,,,,,,,,4,1,1.6989,0,16,16,16,1,Outdoor activity & sport item,,,,,,,
0,"[0,0,1,1,0,1,1,1,1,1,1,0,0,0,1,0,0,1,1,0,0,1]",,,,,,,,,,,,,23,2021-11-25_09h05.51.834,premceCat2_ses-01_part-01_label-phase1,2020.2.9,MacIntel,60,,,,,,,,0,,,,,,stimuli/m2.jpg,stimuli/m5.jpg,2,stimuli/Hand labour tool & accessory.png,stimuli/Electronic device & accessory.png,stimuli/Outdoor activity & sport item.png,stimuli/Kitchen & utensil.png,1,1,1,stimuli/m5.jpg,,stimuli/objects/pitchfork.jpg,,,,,,,,3,0,1.7656,0,17,17,17,1,Hand labour tool & accessory,,,,,,,
0,"[0,0,1,1,0,1,1,1,1,1,1,0,0,0,1,0,0,1,1,0,0,1,0]",,,,,,,,,,,,,23,2021-11-25_09h05.51.834,premceCat2_ses-01_part-01_label-phase1,2020.2.9,MacIntel,60,,,,,,,,0,,,,,,stimuli/m5.jpg,stimuli/m2.jpg,2,stimuli/Hand labour tool & accessory.png,stimuli/Outdoor activity & sport item.png,stimuli/Electronic device & accessory.png,stimuli/Kitchen & utensil.png,2,1,1,stimuli/m2.jpg,,stimuli/objects/bicycle.jpg,,,,,,,,4,0,1.5822,0,18,18,18,1,Outdoor activity & sport item,,,,,,,
0,"[0,0,1,1,0,1,1,1,1,1,1,0,0,0,1,0,0,1,1,0,0,1,0,0]",,,,,,,,,,,,,23,2021-11-25_09h05.51.834,premceCat2_ses-01_part-01_label-phase1,2020.2.9,MacIntel,60,,,,,,,,0,,,,,,stimuli/m5.jpg,stimuli/m2.jpg,1,stimuli/Hand labour tool & accessory.png,stimuli/Outdoor activity & sport item.png,stimuli/Kitchen & utensil.png,stimuli/Electronic device & accessory.png,3,0,1,stimuli/m5.jpg,,stimuli/objects/freezer02.jpg,,,,,,,,1,0,0.9823,0,19,19,19,1,Kitchen & utensil,,,,,,,
1,"[0,0,1,1,0,1,1,1,1,1,1,0,0,0,1,0,0,1,1,0,0,1,0,0]",,,,,,,,,,,,,23,2021-11-25_09h05.51.834,premceCat2_ses-01_part-01_label-phase1,2020.2.9,MacIntel,60,,,,,,,,0,,,,,,stimuli/m2.jpg,stimuli/m5.jpg,1,stimuli/Kitchen & utensil.png,stimuli/Hand labour tool & accessory.png,stimuli/Electronic device & accessory.png,stimuli/Outdoor activity & sport item.png,2,0,1,stimuli/m2.jpg,,stimuli/objects/handrake01a.jpg,,,,,,,,2,1,1.8016,0,20,20,20,1,Hand labour tool & accessory,,,,,,,
0,"[0,0,1,1,0,1,1,1,1,1,1,0,0,0,1,0,0,1,1,0,0,1,0,0]",,,,,,,,,,,,,23,2021-11-25_09h05.51.834,premceCat2_ses-01_part-01_label-phase1,2020.2.9,MacIntel,60,,,,,,,,0,,,,,,stimuli/m5.jpg,stimuli/m2.jpg,1,stimuli/Outdoor activity & sport item.png,stimuli/Electronic device & accessory.png,stimuli/Hand labour tool & accessory.png,stimuli/Kitchen & utensil.png,3,1,1,stimuli/m5.jpg,,stimuli/objects/jumpingjack.jpg,,,,,,,,1,0,1.1004,0,21,21,21,1,Hand labour tool & accessory,,,,,,,
1,"[0,0,1,1,0,1,1,1,1,1,1,0,0,0,1,0,0,1,1,0,0,1,0,0,0]",,,,,,,,,,,,,23,2021-11-25_09h05.51.834,premceCat2_ses-01_part-01_label-phase1,2020.2.9,MacIntel,60,,,,,,,,1,,,,,,stimuli/m5.jpg,stimuli/m2.jpg,2,stimuli/Electronic device & accessory.png,stimuli/Kitchen & utensil.png,stimuli/Hand labour tool & accessory.png,stimuli/Outdoor activity & sport item.png,4,1,1,stimuli/m2.jpg,,stimuli/objects/bicycle.jpg,,,,,,,,4,1,1.9506,0,22,22,22,1,Outdoor activity & sport item,,,,,,,
1,"[0,0,1,1,0,1,1,1,1,1,1,0,0,0,1,0,0,1,1,0,0,1,0,0,0,1]",,,,,,,,,,,,,23,2021-11-25_09h05.51.834,premceCat2_ses-01_part-01_label-phase1,2020.2.9,MacIntel,60,,,,,,,,1,,,,,,stimuli/m5.jpg,stimuli/m2.jpg,1,stimuli/Hand labour tool & accessory.png,stimuli/Outdoor activity & sport item.png,stimuli/Electronic device & accessory.png,stimuli/Kitchen & utensil.png,1,1,1,stimuli/m5.jpg,,stimuli/objects/jumpingjack.jpg,,,,,,,,1,1,1.7321,0,23,23,23,1,Hand labour tool & accessory,,,,,,,
0,"[0,0,1,1,0,1,1,1,1,1,1,0,0,0,1,0,0,1,1,0,0,1,0,0,0,1,1]",,,,,,,,,,,,,23,2021-11-25_09h05.51.834,premceCat2_ses-01_part-01_label-phase1,2020.2.9,MacIntel,60,,,,,,,,1,,,,,,stimuli/m2.jpg,stimuli/m5.jpg,2,stimuli/Outdoor activity & sport item.png,stimuli/Electronic device & accessory.png,stimuli/Hand labour tool & accessory.png,stimuli/Kitchen & utensil.png,4,0,1,stimuli/m5.jpg,,stimuli/objects/jug.jpg,,,,,,,,3,0,1.8147,0,24,24,24,1,Kitchen & utensil,,,,,,,
0,"[0,0,1,1,0,1,1,1,1,1,1,0,0,0,1,0,0,1,1,0,0,1,0,0,0,1,1]",,,,,,,,,,,,,23,2021-11-25_09h05.51.834,premceCat2_ses-01_part-01_label-phase1,2020.2.9,MacIntel,60,,,,,,,,0,,,,,,stimuli/m2.jpg,stimuli/m5.jpg,1,stimuli/Electronic device & accessory.png,stimuli/Hand labour tool & accessory.png,stimuli/Kitchen & utensil.png,stimuli/Outdoor activity & sport item.png,4,1,1,stimuli/m2.jpg,,stimuli/objects/racquetballracket.jpg,,,,,,,,1,0,2.0161,0,25,25,25,1,Outdoor activity & sport item,,,,,,,
1,"[0,0,1,1,0,1,1,1,1,1,1,0,0,0,1,0,0,1,1,0,0,1,0,0,0,1,1,0]",,,,,,,,,,,,,23,2021-11-25_09h05.51.834,premceCat2_ses-01_part-01_label-phase1,2020.2.9,MacIntel,60,,,,,,,,1,,,,,,stimuli/m2.jpg,stimuli/m5.jpg,2,stimuli/Kitchen & utensil.png,stimuli/Outdoor activity & sport item.png,stimuli/Electronic device & accessory.png,stimuli/Hand labour tool & accessory.png,4,1,1,stimuli/m5.jpg,,stimuli/objects/jumpingjack.jpg,,,,,,,,4,1,1.4484,0,26,26,26,1,Hand labour tool & accessory,,,,,,,
0,"[0,0,1,1,0,1,1,1,1,1,1,0,0,0,1,0,0,1,1,0,0,1,0,0,0,1,1,0,1]",,,,,,,,,,,,,23,2021-11-25_09h05.51.834,premceCat2_ses-01_part-01_label-phase1,2020.2.9,MacIntel,60,,,,,,,,0,,,,,,stimuli/m2.jpg,stimuli/m5.jpg,2,stimuli/Hand labour tool & accessory.png,stimuli/Kitchen & utensil.png,stimuli/Electronic device & accessory.png,stimuli/Outdoor activity & sport item.png,1,1,1,stimuli/m5.jpg,,stimuli/objects/hedgetrimmer.jpg,,,,,,,,4,0,2.0363,0,27,27,27,1,Hand labour tool & accessory,,,,,,,
0,"[0,0,1,1,0,1,1,1,1,1,1,0,0,0,1,0,0,1,1,0,0,1,0,0,0,1,1,0,1,0]",,,,,,,,,,,,,23,2021-11-25_09h05.51.834,premceCat2_ses-01_part-01_label-phase1,2020.2.9,MacIntel,60,,,,,,,,0,,,,,,stimuli/m5.jpg,stimuli/m2.jpg,1,stimuli/Kitchen & utensil.png,stimuli/Outdoor activity & sport item.png,stimuli/Electronic device & accessory.png,stimuli/Hand labour tool & accessory.png,4,1,1,stimuli/m5.jpg,,stimuli/objects/gavel.jpg,,,,,,,,1,0,2.1313,0,28,28,28,1,Hand labour tool & accessory,,,,,,,
1,"[0,0,1,1,0,1,1,1,1,1,1,0,0,0,1,0,0,1,1,0,0,1,0,0,0,1,1,0,1,0,0]",,,,,,,,,,,,,23,2021-11-25_09h05.51.834,premceCat2_ses-01_part-01_label-phase1,2020.2.9,MacIntel,60,,,,,,,,1,,,,,,stimuli/m2.jpg,stimuli/m5.jpg,2,stimuli/Electronic device & accessory.png,stimuli/Hand labour tool & accessory.png,stimuli/Kitchen & utensil.png,stimuli/Outdoor activity & sport item.png,2,1,1,stimuli/m5.jpg,,stimuli/objects/gavel.jpg,,,,,,,,2,1,1.7495,0,29,29,29,1,Hand labour tool & accessory,,,,,,,
0,"[0,0,1,1,0,1,1,1,1,1,1,0,0,0,1,0,0,1,1,0,0,1,0,0,0,1,1,0,1,0,0,1]",,,,,,,,,,,,,23,2021-11-25_09h05.51.834,premceCat2_ses-01_part-01_label-phase1,2020.2.9,MacIntel,60,,,,,,,,0,,,,,,stimuli/m2.jpg,stimuli/m5.jpg,1,stimuli/Kitchen & utensil.png,stimuli/Hand labour tool & accessory.png,stimuli/Outdoor activity & sport item.png,stimuli/Electronic device & accessory.png,3,1,1,stimuli/m2.jpg,,stimuli/objects/racquetballracket.jpg,,,,,,,,4,0,2.5172,0,30,30,30,1,Outdoor activity & sport item,,,,,,,
1,"[0,0,1,1,0,1,1,1,1,1,1,0,0,0,1,0,0,1,1,0,0,1,0,0,0,1,1,0,1,0,0,1,0]",,,,,,,,,,,,,23,2021-11-25_09h05.51.834,premceCat2_ses-01_part-01_label-phase1,2020.2.9,MacIntel,60,,,,,,,,1,,,,,,stimuli/m5.jpg,stimuli/m2.jpg,2,stimuli/Kitchen & utensil.png,stimuli/Electronic device & accessory.png,stimuli/Outdoor activity & sport item.png,stimuli/Hand labour tool & accessory.png,3,1,1,stimuli/m2.jpg,,stimuli/objects/punchingbag.jpg,,,,,,,,3,1,1.2486,0,31,31,31,1,Outdoor activity & sport item,,,,,,,
0,"[0,0,1,1,0,1,1,1,1,1,1,0,0,0,1,0,0,1,1,0,0,1,0,0,0,1,1,0,1,0,0,1,0,1]",,,,,,,,,,,,,23,2021-11-25_09h05.51.834,premceCat2_ses-01_part-01_label-phase1,2020.2.9,MacIntel,60,,,,,,,,1,,,,,,stimuli/m2.jpg,stimuli/m5.jpg,2,stimuli/Outdoor activity & sport item.png,stimuli/Hand labour tool & accessory.png,stimuli/Kitchen & utensil.png,stimuli/Electronic device & accessory.png,4,0,1,stimuli/m5.jpg,,stimuli/objects/camera01a.jpg,,,,,,,,2,0,0.9413,0,32,32,32,1,Electronic device & accessory,,,,,,,
0,"[0,0,1,1,0,1,1,1,1,1,1,0,0,0,1,0,0,1,1,0,0,1,0,0,0,1,1,0,1,0,0,1,0,1]",,,,,,,,,,,,,23,2021-11-25_09h05.51.834,premceCat2_ses-01_part-01_label-phase1,2020.2.9,MacIntel,60,,,,,,,,0,,,,,,stimuli/m2.jpg,stimuli/m5.jpg,2,stimuli/Outdoor activity & sport item.png,stimuli/Electronic device & accessory.png,stimuli/Kitchen & utensil.png,stimuli/Hand labour tool & accessory.png,4,1,1,stimuli/m5.jpg,,stimuli/objects/jumpingjack.jpg,,,,,,,,1,0,0.8156,0,33,33,33,1,Hand labour tool & accessory,,,,,,,
1,"[0,0,1,1,0,1,1,1,1,1,1,0,0,0,1,0,0,1,1,0,0,1,0,0,0,1,1,0,1,0,0,1,0,1,0]",,,,,,,,,,,,,23,2021-11-25_09h05.51.834,premceCat2_ses-01_part-01_label-phase1,2020.2.9,MacIntel,60,,,,,,,,1,,,,,,stimuli/m2.jpg,stimuli/m5.jpg,1,stimuli/Electronic device & accessory.png,stimuli/Kitchen & utensil.png,stimuli/Outdoor activity & sport item.png,stimuli/Hand labour tool & accessory.png,3,1,1,stimuli/m2.jpg,,stimuli/objects/swing.jpg,,,,,,,,3,1,1.9661,0,34,34,34,1,Outdoor activity & sport item,,,,,,,
1,"[0,0,1,1,0,1,1,1,1,1,1,0,0,0,1,0,0,1,1,0,0,1,0,0,0,1,1,0,1,0,0,1,0,1,0,1]",,,,,,,,,,,,,23,2021-11-25_09h05.51.834,premceCat2_ses-01_part-01_label-phase1,2020.2.9,MacIntel,60,,,,,,,,1,,,,,,stimuli/m5.jpg,stimuli/m2.jpg,1,stimuli/Hand labour tool & accessory.png,stimuli/Kitchen & utensil.png,stimuli/Outdoor activity & sport item.png,stimuli/Electronic device & accessory.png,1,1,1,stimuli/m5.jpg,,stimuli/objects/pitchfork.jpg,,,,,,,,1,1,1.4312,0,35,35,35,1,Hand labour tool & accessory,,,,,,,
1,"[0,0,1,1,0,1,1,1,1,1,1,0,0,0,1,0,0,1,1,0,0,1,0,0,0,1,1,0,1,0,0,1,0,1,0,1,1]",,,,,,,,,,,,,23,2021-11-25_09h05.51.834,premceCat2_ses-01_part-01_label-phase1,2020.2.9,MacIntel,60,,,,,,,,1,,,,,,stimuli/m2.jpg,stimuli/m5.jpg,1,stimuli/Electronic device & accessory.png,stimuli/Outdoor activity & sport item.png,stimuli/Hand labour tool & accessory.png,stimuli/Kitchen & utensil.png,2,1,1,stimuli/m2.jpg,,stimuli/objects/racquetballracket.jpg,,,,,,,,2,1,0.8813,0,36,36,36,1,Outdoor activity & sport item,,,,,,,
1,"[0,0,1,1,0,1,1,1,1,1,1,0,0,0,1,0,0,1,1,0,0,1,0,0,0,1,1,0,1,0,0,1,0,1,0,1,1,1]",,,,,,,,,,,,,23,2021-11-25_09h05.51.834,premceCat2_ses-01_part-01_label-phase1,2020.2.9,MacIntel,60,,,,,,,,1,,,,,,stimuli/m2.jpg,stimuli/m5.jpg,1,stimuli/Outdoor activity & sport item.png,stimuli/Hand labour tool & accessory.png,stimuli/Electronic device & accessory.png,stimuli/Kitchen & utensil.png,1,1,1,stimuli/m2.jpg,,stimuli/objects/telescope.jpg,,,,,,,,1,1,1.2994,0,37,37,37,1,Outdoor activity & sport item,,,,,,,
1,"[0,0,1,1,0,1,1,1,1,1,1,0,0,0,1,0,0,1,1,0,0,1,0,0,0,1,1,0,1,0,0,1,0,1,0,1,1,1,1]",,,,,,,,,,,,,23,2021-11-25_09h05.51.834,premceCat2_ses-01_part-01_label-phase1,2020.2.9,MacIntel,60,,,,,,,,1,,,,,,stimuli/m5.jpg,stimuli/m2.jpg,2,stimuli/Hand labour tool & accessory.png,stimuli/Kitchen & utensil.png,stimuli/Electronic device & accessory.png,stimuli/Outdoor activity & sport item.png,4,1,1,stimuli/m2.jpg,,stimuli/objects/footballhelmet.jpg,,,,,,,,4,1,1.5655,0,38,38,38,1,Outdoor activity & sport item,,,,,,,
1,"[0,0,1,1,0,1,1,1,1,1,1,0,0,0,1,0,0,1,1,0,0,1,0,0,0,1,1,0,1,0,0,1,0,1,0,1,1,1,1,1]",,,,,,,,,,,,,23,2021-11-25_09h05.51.834,premceCat2_ses-01_part-01_label-phase1,2020.2.9,MacIntel,60,,,,,,,,1,,,,,,stimuli/m5.jpg,stimuli/m2.jpg,2,stimuli/Kitchen & utensil.png,stimuli/Hand labour tool & accessory.png,stimuli/Outdoor activity & sport item.png,stimuli/Electronic device & accessory.png,3,1,1,stimuli/m2.jpg,,stimuli/objects/swing.jpg,,,,,,,,3,1,2.0816,0,39,39,39,1,Outdoor activity & sport item,,,,,,,
1,"[0,0,1,1,0,1,1,1,1,1,1,0,0,0,1,0,0,1,1,0,0,1,0,0,0,1,1,0,1,0,0,1,0,1,0,1,1,1,1,1,1]",,,,,,,,,,,,,23,2021-11-25_09h05.51.834,premceCat2_ses-01_part-01_label-phase1,2020.2.9,MacIntel,60,,,,,,,,1,,,,,,stimuli/m5.jpg,stimuli/m2.jpg,1,stimuli/Outdoor activity & sport item.png,stimuli/Hand labour tool & accessory.png,stimuli/Electronic device & accessory.png,stimuli/Kitchen & utensil.png,2,1,1,stimuli/m5.jpg,,stimuli/objects/pitchfork.jpg,,,,,,,,2,1,0.9987,0,40,40,40,1,Hand labour tool & accessory,,,,,,,
1,"[0,0,1,1,0,1,1,1,1,1,1,0,0,0,1,0,0,1,1,0,0,1,0,0,0,1,1,0,1,0,0,1,0,1,0,1,1,1,1,1,1,1]",,,,,,,,,,,,,23,2021-11-25_09h05.51.834,premceCat2_ses-01_part-01_label-phase1,2020.2.9,MacIntel,60,,,,,,,,1,,,,,,stimuli/m2.jpg,stimuli/m5.jpg,1,stimuli/Hand labour tool & accessory.png,stimuli/Outdoor activity & sport item.png,stimuli/Electronic device & accessory.png,stimuli/Kitchen & utensil.png,2,1,1,stimuli/m2.jpg,,stimuli/objects/footballhelmet.jpg,,,,,,,,2,1,1.6659,0,41,41,41,1,Outdoor activity & sport item,,,,,,,
1,"[0,0,1,1,0,1,1,1,1,1,1,0,0,0,1,0,0,1,1,0,0,1,0,0,0,1,1,0,1,0,0,1,0,1,0,1,1,1,1,1,1,1,1]",,,,,,,,,,,,,23,2021-11-25_09h05.51.834,premceCat2_ses-01_part-01_label-phase1,2020.2.9,MacIntel,60,,,,,,,,1,,,,,,stimuli/m5.jpg,stimuli/m2.jpg,2,stimuli/Hand labour tool & accessory.png,stimuli/Outdoor activity & sport item.png,stimuli/Kitchen & utensil.png,stimuli/Electronic device & accessory.png,2,1,1,stimuli/m2.jpg,,stimuli/objects/rollerblade.jpg,,,,,,,,2,1,2.7003,0,42,42,42,1,Outdoor activity & sport item,,,,,,,
1,"[0,0,1,1,0,1,1,1,1,1,1,0,0,0,1,0,0,1,1,0,0,1,0,0,0,1,1,0,1,0,0,1,0,1,0,1,1,1,1,1,1,1,1,1]",,,,,,,,,,,,,23,2021-11-25_09h05.51.834,premceCat2_ses-01_part-01_label-phase1,2020.2.9,MacIntel,60,,,,,,,,1,,,,,,stimuli/m2.jpg,stimuli/m5.jpg,1,stimuli/Outdoor activity & sport item.png,stimuli/Kitchen & utensil.png,stimuli/Hand labour tool & accessory.png,stimuli/Electronic device & accessory.png,1,1,1,stimuli/m2.jpg,,stimuli/objects/crosscountryski.jpg,,,,,,,,1,1,1.4322,0,43,43,43,1,Outdoor activity & sport item,,,,,,,
1,"[0,0,1,1,0,1,1,1,1,1,1,0,0,0,1,0,0,1,1,0,0,1,0,0,0,1,1,0,1,0,0,1,0,1,0,1,1,1,1,1,1,1,1,1,1]",,,,,,,,,,,,,23,2021-11-25_09h05.51.834,premceCat2_ses-01_part-01_label-phase1,2020.2.9,MacIntel,60,,,,,,,,1,,,,,,stimuli/m5.jpg,stimuli/m2.jpg,1,stimuli/Kitchen & utensil.png,stimuli/Outdoor activity & sport item.png,stimuli/Hand labour tool & accessory.png,stimuli/Electronic device & accessory.png,3,1,1,stimuli/m5.jpg,,stimuli/objects/solderingiron.jpg,,,,,,,,3,1,1.2479,0,44,44,44,1,Hand labour tool & accessory,,,,,,,
0,"[0,0,1,1,0,1,1,1,1,1,1,0,0,0,1,0,0,1,1,0,0,1,0,0,0,1,1,0,1,0,0,1,0,1,0,1,1,1,1,1,1,1,1,1,1,1]",,,,,,,,,,,,,23,2021-11-25_09h05.51.834,premceCat2_ses-01_part-01_label-phase1,2020.2.9,MacIntel,60,,,,,,,,1,,,,,,stimuli/m5.jpg,stimuli/m2.jpg,2,stimuli/Kitchen & utensil.png,stimuli/Hand labour tool & accessory.png,stimuli/Electronic device & accessory.png,stimuli/Outdoor activity & sport item.png,2,0,1,stimuli/m2.jpg,,stimuli/objects/boxcutter03a.jpg,,,,,,,,4,0,1.5016,0,45,45,45,1,Hand labour tool & accessory,,,,,,,
1,"[0,0,1,1,0,1,1,1,1,1,1,0,0,0,1,0,0,1,1,0,0,1,0,0,0,1,1,0,1,0,0,1,0,1,0,1,1,1,1,1,1,1,1,1,1,1]",,,,,,,,,,,,,23,2021-11-25_09h05.51.834,premceCat2_ses-01_part-01_label-phase1,2020.2.9,MacIntel,60,,,,,,,,1,,,,,,stimuli/m2.jpg,stimuli/m5.jpg,2,stimuli/Kitchen & utensil.png,stimuli/Electronic device & accessory.png,stimuli/Hand labour tool & accessory.png,stimuli/Outdoor activity & sport item.png,3,1,1,stimuli/m5.jpg,,stimuli/objects/gavel.jpg,,,,,,,,3,1,1.281,0,46,46,46,1,Hand labour tool & accessory,,,,,,,
0,"[0,0,1,1,0,1,1,1,1,1,1,0,0,0,1,0,0,1,1,0,0,1,0,0,0,1,1,0,1,0,0,1,0,1,0,1,1,1,1,1,1,1,1,1,1,1,1]",,,,,,,,,,,,,23,2021-11-25_09h05.51.834,premceCat2_ses-01_part-01_label-phase1,2020.2.9,MacIntel,60,,,,,,,,1,,,,,,stimuli/m5.jpg,stimuli/m2.jpg,2,stimuli/Outdoor activity & sport item.png,stimuli/Hand labour tool & accessory.png,stimuli/Kitchen & utensil.png,stimuli/Electronic device & accessory.png,4,0,1,stimuli/m2.jpg,,stimuli/objects/jack.jpg,,,,,,,,1,0,1.4487,0,47,47,47,1,Electronic device & accessory,,,,,,,
,,,,,,,,,,,,,,23,2021-11-25_09h05.51.834,premceCat2_ses-01_part-01_label-phase1,2020.2.9,MacIntel,60,,,,,,,,,,,,,,,,,,,,,,,,,,,,,,,,,,,,,,,,,,,n,13.5815,0,0,0,0,1
