instructions_loop.thisRepN,instructions_loop.thisTrialN,instructions_loop.thisN,instructions_loop.thisIndex,instructions_loop.ran,text1,text2,text3,participant,date,expName,psychopyVersion,OS,frameRate,key_resp_2.keys,key_resp_2.rt,key_resp_3.keys,key_resp_3.rt,recog_resp.keys,recog_resp.rt,conf_resp.keys,conf_resp.rt,resp_assoc.keys,resp_assoc.rt,assoc_loop.thisRepN,assoc_loop.thisTrialN,assoc_loop.thisN,assoc_loop.thisIndex,assoc_loop.ran,recog_loop.thisRepN,recog_loop.thisTrialN,recog_loop.thisN,recog_loop.thisIndex,recog_loop.ran,images,corr_ans,type,order,key_resp_break.keys,key_resp_break.rt,list_loop.thisRepN,list_loop.thisTrialN,list_loop.thisN,list_loop.thisIndex,list_loop.ran,recog_list
0,0,0,0,1,Welcome to the last phase of this experiment!,.,Please press the space bar to continue,24,2021-11-26_12h14.12.466,premceCat2_ses-02_part-02_label-phase2,2020.2.10,MacIntel,60,,,,,,,,,,,,,,,,,,,,,,,,,,,,,,,,
0,1,1,1,1,.,"In this phase, you will see some objects. 

For each object, you should indicate whether you have seen it before during the experiment.

Press LEFT ARROW for YES
Press RIGHT ARROW for NO

",Please press the space bar to continue ,24,2021-11-26_12h14.12.466,premceCat2_ses-02_part-02_label-phase2,2020.2.10,MacIntel,60,,,,,,,,,,,,,,,,,,,,,,,,,,,,,,,,
0,2,2,2,1,.,"After that, you will be asked how confident you are of your choice.

Please rate the confidence in your choice with the numbers from 1 to 4 of your keyboard. 

The numbers correspond to:

1 = Very unsure
2 = Unsure
3 = Sure
4 = Very Sure",Please press the space bar to continue,24,2021-11-26_12h14.12.466,premceCat2_ses-02_part-02_label-phase2,2020.2.10,MacIntel,60,,,,,,,,,,,,,,,,,,,,,,,,,,,,,,,,
,,,,,,,,24,2021-11-26_12h14.12.466,premceCat2_ses-02_part-02_label-phase2,2020.2.10,MacIntel,60,space,56.8073,space,9.025,left,3.6064,4,4.9417,right,4.3013,0,0,0,0,1,,,,,,,,,,,,,,,,,
,,,,,,,,24,2021-11-26_12h14.12.466,premceCat2_ses-02_part-02_label-phase2,2020.2.10,MacIntel,60,,,,,,,,,,,,,,,,0,0,0,135,1,stimuli/objects/drillbit03a.jpg,left,old,136,,,,,,,,
,,,,,,,,24,2021-11-26_12h14.12.466,premceCat2_ses-02_part-02_label-phase2,2020.2.10,MacIntel,60,,,,,left,2.7517,4,1.8748,left,3.4866,0,0,0,0,1,,,,,,,,,,,,,,,,,
,,,,,,,,24,2021-11-26_12h14.12.466,premceCat2_ses-02_part-02_label-phase2,2020.2.10,MacIntel,60,,,,,,,,,,,,,,,,0,1,1,118,1,stimuli/objects/rope03.jpg,left,old,119,,,,,,,,
,,,,,,,,24,2021-11-26_12h14.12.466,premceCat2_ses-02_part-02_label-phase2,2020.2.10,MacIntel,60,,,,,left,3.0475,4,1.9722,left,2.2773,0,0,0,0,1,,,,,,,,,,,,,,,,,
,,,,,,,,24,2021-11-26_12h14.12.466,premceCat2_ses-02_part-02_label-phase2,2020.2.10,MacIntel,60,,,,,,,,,,,,,,,,0,2,2,0,1,stimuli/objects/phonejack.jpg,left,old,1,,,,,,,,
,,,,,,,,24,2021-11-26_12h14.12.466,premceCat2_ses-02_part-02_label-phase2,2020.2.10,MacIntel,60,,,,,right,5.0791,2,2.4568,,,,,,,,0,3,3,76,1,stimuli/objects/megaphone.jpg,right,new,77,,,,,,,,
,,,,,,,,24,2021-11-26_12h14.12.466,premceCat2_ses-02_part-02_label-phase2,2020.2.10,MacIntel,60,,,,,right,3.895,3,1.4607,,,,,,,,0,4,4,139,1,stimuli/objects/frisbee.jpg,right,new,140,,,,,,,,
,,,,,,,,24,2021-11-26_12h14.12.466,premceCat2_ses-02_part-02_label-phase2,2020.2.10,MacIntel,60,,,,,left,1.982,4,1.1109,left,4.3314,0,0,0,0,1,,,,,,,,,,,,,,,,,
,,,,,,,,24,2021-11-26_12h14.12.466,premceCat2_ses-02_part-02_label-phase2,2020.2.10,MacIntel,60,,,,,,,,,,,,,,,,0,5,5,120,1,stimuli/objects/muffintray01.jpg,left,old,121,,,,,,,,
,,,,,,,,24,2021-11-26_12h14.12.466,premceCat2_ses-02_part-02_label-phase2,2020.2.10,MacIntel,60,,,,,left,2.6265,4,1.2378,right,1.6872,0,0,0,0,1,,,,,,,,,,,,,,,,,
,,,,,,,,24,2021-11-26_12h14.12.466,premceCat2_ses-02_part-02_label-phase2,2020.2.10,MacIntel,60,,,,,,,,,,,,,,,,0,6,6,2,1,stimuli/objects/crocodileclips.jpg,left,old,3,,,,,,,,
,,,,,,,,24,2021-11-26_12h14.12.466,premceCat2_ses-02_part-02_label-phase2,2020.2.10,MacIntel,60,,,,,right,3.1633,3,3.5814,,,,,,,,0,7,7,134,1,stimuli/objects/screwdriver04b.jpg,right,new,135,,,,,,,,
,,,,,,,,24,2021-11-26_12h14.12.466,premceCat2_ses-02_part-02_label-phase2,2020.2.10,MacIntel,60,,,,,right,3.2412,1,1.2225,,,,,,,,0,8,8,23,1,stimuli/objects/football.jpg,right,new,24,,,,,,,,
,,,,,,,,24,2021-11-26_12h14.12.466,premceCat2_ses-02_part-02_label-phase2,2020.2.10,MacIntel,60,,,,,right,2.1046,2,1.435,,,,,,,,0,9,9,109,1,stimuli/objects/winerack.jpg,right,new,110,,,,,,,,
,,,,,,,,24,2021-11-26_12h14.12.466,premceCat2_ses-02_part-02_label-phase2,2020.2.10,MacIntel,60,,,,,right,1.9142,2,1.3626,,,,,,,,0,10,10,121,1,stimuli/objects/ceilingspeaker.jpg,right,new,122,,,,,,,,
,,,,,,,,24,2021-11-26_12h14.12.466,premceCat2_ses-02_part-02_label-phase2,2020.2.10,MacIntel,60,,,,,left,2.1576,3,1.4818,right,3.6272,0,0,0,0,1,,,,,,,,,,,,,,,,,
,,,,,,,,24,2021-11-26_12h14.12.466,premceCat2_ses-02_part-02_label-phase2,2020.2.10,MacIntel,60,,,,,,,,,,,,,,,,0,11,11,127,1,stimuli/objects/cooler01.jpg,left,old,128,,,,,,,,
,,,,,,,,24,2021-11-26_12h14.12.466,premceCat2_ses-02_part-02_label-phase2,2020.2.10,MacIntel,60,,,,,left,2.8471,4,1.5361,right,2.6815,0,0,0,0,1,,,,,,,,,,,,,,,,,
,,,,,,,,24,2021-11-26_12h14.12.466,premceCat2_ses-02_part-02_label-phase2,2020.2.10,MacIntel,60,,,,,,,,,,,,,,,,0,12,12,31,1,stimuli/objects/metalbrush.jpg,left,old,32,,,,,,,,
,,,,,,,,24,2021-11-26_12h14.12.466,premceCat2_ses-02_part-02_label-phase2,2020.2.10,MacIntel,60,,,,,left,1.6197,4,0.8816,left,2.3139,0,0,0,0,1,,,,,,,,,,,,,,,,,
,,,,,,,,24,2021-11-26_12h14.12.466,premceCat2_ses-02_part-02_label-phase2,2020.2.10,MacIntel,60,,,,,,,,,,,,,,,,0,13,13,84,1,stimuli/objects/swimgoggles.jpg,left,old,85,,,,,,,,
,,,,,,,,24,2021-11-26_12h14.12.466,premceCat2_ses-02_part-02_label-phase2,2020.2.10,MacIntel,60,,,,,left,2.0909,4,1.5023,right,1.3285,0,0,0,0,1,,,,,,,,,,,,,,,,,
,,,,,,,,24,2021-11-26_12h14.12.466,premceCat2_ses-02_part-02_label-phase2,2020.2.10,MacIntel,60,,,,,,,,,,,,,,,,0,14,14,62,1,stimuli/objects/tray.jpg,left,old,63,,,,,,,,
,,,,,,,,24,2021-11-26_12h14.12.466,premceCat2_ses-02_part-02_label-phase2,2020.2.10,MacIntel,60,,,,,right,2.8023,1,1.9234,,,,,,,,0,15,15,133,1,stimuli/objects/icebucket.jpg,right,new,134,,,,,,,,
,,,,,,,,24,2021-11-26_12h14.12.466,premceCat2_ses-02_part-02_label-phase2,2020.2.10,MacIntel,60,,,,,left,3.9044,2,3.7856,right,2.9801,0,0,0,0,1,,,,,,,,,,,,,,,,,
,,,,,,,,24,2021-11-26_12h14.12.466,premceCat2_ses-02_part-02_label-phase2,2020.2.10,MacIntel,60,,,,,,,,,,,,,,,,0,16,16,32,1,stimuli/objects/mitresaw.jpg,right,new,33,,,,,,,,
,,,,,,,,24,2021-11-26_12h14.12.466,premceCat2_ses-02_part-02_label-phase2,2020.2.10,MacIntel,60,,,,,left,3.9203,3,1.9016,left,3.0626,0,0,0,0,1,,,,,,,,,,,,,,,,,
,,,,,,,,24,2021-11-26_12h14.12.466,premceCat2_ses-02_part-02_label-phase2,2020.2.10,MacIntel,60,,,,,,,,,,,,,,,,0,17,17,129,1,stimuli/objects/corkscrew03a.jpg,left,old,130,,,,,,,,
,,,,,,,,24,2021-11-26_12h14.12.466,premceCat2_ses-02_part-02_label-phase2,2020.2.10,MacIntel,60,,,,,right,3.1342,2,1.2251,,,,,,,,0,18,18,19,1,stimuli/objects/peppermill02b.jpg,right,new,20,,,,,,,,
,,,,,,,,24,2021-11-26_12h14.12.466,premceCat2_ses-02_part-02_label-phase2,2020.2.10,MacIntel,60,,,,,left,2.0134,4,1.6912,left,2.1158,0,0,0,0,1,,,,,,,,,,,,,,,,,
,,,,,,,,24,2021-11-26_12h14.12.466,premceCat2_ses-02_part-02_label-phase2,2020.2.10,MacIntel,60,,,,,,,,,,,,,,,,0,19,19,74,1,stimuli/objects/treadmill.jpg,left,old,75,,,,,,,,
,,,,,,,,24,2021-11-26_12h14.12.466,premceCat2_ses-02_part-02_label-phase2,2020.2.10,MacIntel,60,,,,,left,2.6914,3,1.8216,right,1.143,0,0,0,0,1,,,,,,,,,,,,,,,,,
,,,,,,,,24,2021-11-26_12h14.12.466,premceCat2_ses-02_part-02_label-phase2,2020.2.10,MacIntel,60,,,,,,,,,,,,,,,,0,20,20,77,1,stimuli/objects/lightbulb01.jpg,left,old,78,,,,,,,,
,,,,,,,,24,2021-11-26_12h14.12.466,premceCat2_ses-02_part-02_label-phase2,2020.2.10,MacIntel,60,,,,,left,1.9515,4,1.1934,right,0.6414,0,0,0,0,1,,,,,,,,,,,,,,,,,
,,,,,,,,24,2021-11-26_12h14.12.466,premceCat2_ses-02_part-02_label-phase2,2020.2.10,MacIntel,60,,,,,,,,,,,,,,,,0,21,21,95,1,stimuli/objects/telephone01b.jpg,left,old,96,,,,,,,,
,,,,,,,,24,2021-11-26_12h14.12.466,premceCat2_ses-02_part-02_label-phase2,2020.2.10,MacIntel,60,,,,,left,1.9904,3,1.672,right,1.0335,0,0,0,0,1,,,,,,,,,,,,,,,,,
,,,,,,,,24,2021-11-26_12h14.12.466,premceCat2_ses-02_part-02_label-phase2,2020.2.10,MacIntel,60,,,,,,,,,,,,,,,,0,22,22,57,1,stimuli/objects/audiocablesplitter.jpg,right,new,58,,,,,,,,
,,,,,,,,24,2021-11-26_12h14.12.466,premceCat2_ses-02_part-02_label-phase2,2020.2.10,MacIntel,60,,,,,right,3.3421,2,1.3984,,,,,,,,0,23,23,113,1,stimuli/objects/powercable.jpg,right,new,114,,,,,,,,
,,,,,,,,24,2021-11-26_12h14.12.466,premceCat2_ses-02_part-02_label-phase2,2020.2.10,MacIntel,60,,,,,left,2.0282,4,1.8353,left,1.1018,0,0,0,0,1,,,,,,,,,,,,,,,,,
,,,,,,,,24,2021-11-26_12h14.12.466,premceCat2_ses-02_part-02_label-phase2,2020.2.10,MacIntel,60,,,,,,,,,,,,,,,,0,24,24,34,1,stimuli/objects/surfboard.jpg,left,old,35,,,,,,,,
,,,,,,,,24,2021-11-26_12h14.12.466,premceCat2_ses-02_part-02_label-phase2,2020.2.10,MacIntel,60,,,,,right,1.8319,4,2.5228,,,,,,,,0,25,25,4,1,stimuli/objects/microphone01.jpg,right,new,5,,,,,,,,
,,,,,,,,24,2021-11-26_12h14.12.466,premceCat2_ses-02_part-02_label-phase2,2020.2.10,MacIntel,60,,,,,right,3.4458,1,0.953,,,,,,,,0,26,26,81,1,stimuli/objects/avcable.jpg,right,new,82,,,,,,,,
,,,,,,,,24,2021-11-26_12h14.12.466,premceCat2_ses-02_part-02_label-phase2,2020.2.10,MacIntel,60,,,,,right,1.6963,3,2.0613,,,,,,,,0,27,27,94,1,stimuli/objects/electricmixer.jpg,right,new,95,,,,,,,,
,,,,,,,,24,2021-11-26_12h14.12.466,premceCat2_ses-02_part-02_label-phase2,2020.2.10,MacIntel,60,,,,,left,1.732,4,1.5134,left,1.2318,0,0,0,0,1,,,,,,,,,,,,,,,,,
,,,,,,,,24,2021-11-26_12h14.12.466,premceCat2_ses-02_part-02_label-phase2,2020.2.10,MacIntel,60,,,,,,,,,,,,,,,,0,28,28,140,1,stimuli/objects/volleyball.jpg,left,old,141,,,,,,,,
,,,,,,,,24,2021-11-26_12h14.12.466,premceCat2_ses-02_part-02_label-phase2,2020.2.10,MacIntel,60,,,,,right,2.4457,2,1.4937,,,,,,,,0,29,29,12,1,stimuli/objects/garlicpress02a.jpg,right,new,13,,,,,,,,
,,,,,,,,24,2021-11-26_12h14.12.466,premceCat2_ses-02_part-02_label-phase2,2020.2.10,MacIntel,60,,,,,right,1.1705,4,1.0959,,,,,,,,0,30,30,25,1,stimuli/objects/bowlingball.jpg,right,new,26,,,,,,,,
,,,,,,,,24,2021-11-26_12h14.12.466,premceCat2_ses-02_part-02_label-phase2,2020.2.10,MacIntel,60,,,,,right,1.6344,1,1.181,,,,,,,,0,31,31,128,1,stimuli/objects/tripod01.jpg,right,new,129,,,,,,,,
,,,,,,,,24,2021-11-26_12h14.12.466,premceCat2_ses-02_part-02_label-phase2,2020.2.10,MacIntel,60,,,,,right,1.4289,2,1.4223,,,,,,,,0,32,32,43,1,stimuli/objects/punchingball.jpg,right,new,44,,,,,,,,
,,,,,,,,24,2021-11-26_12h14.12.466,premceCat2_ses-02_part-02_label-phase2,2020.2.10,MacIntel,60,,,,,left,2.3927,4,1.4996,left,1.8122,0,0,0,0,1,,,,,,,,,,,,,,,,,
,,,,,,,,24,2021-11-26_12h14.12.466,premceCat2_ses-02_part-02_label-phase2,2020.2.10,MacIntel,60,,,,,,,,,,,,,,,,0,33,33,16,1,stimuli/objects/wheelbarrow01.jpg,left,old,17,,,,,,,,
,,,,,,,,24,2021-11-26_12h14.12.466,premceCat2_ses-02_part-02_label-phase2,2020.2.10,MacIntel,60,,,,,right,1.1998,2,1.1778,,,,,,,,0,34,34,24,1,stimuli/objects/skateboard.jpg,right,new,25,,,,,,,,
,,,,,,,,24,2021-11-26_12h14.12.466,premceCat2_ses-02_part-02_label-phase2,2020.2.10,MacIntel,60,,,,,right,1.4316,4,1.2676,,,,,,,,0,35,35,68,1,stimuli/objects/leafblower01.jpg,right,new,69,,,,,,,,
,,,,,,,,24,2021-11-26_12h14.12.466,premceCat2_ses-02_part-02_label-phase2,2020.2.10,MacIntel,60,,,,,left,2.1844,4,1.3744,right,0.804,0,0,0,0,1,,,,,,,,,,,,,,,,,
,,,,,,,,24,2021-11-26_12h14.12.466,premceCat2_ses-02_part-02_label-phase2,2020.2.10,MacIntel,60,,,,,,,,,,,,,,,,0,36,36,40,1,stimuli/objects/staplegun.jpg,left,old,41,,,,,,,,
,,,,,,,,24,2021-11-26_12h14.12.466,premceCat2_ses-02_part-02_label-phase2,2020.2.10,MacIntel,60,,,,,right,1.6645,2,1.6136,,,,,,,,0,37,37,82,1,stimuli/objects/snowbrush.jpg,right,new,83,,,,,,,,
,,,,,,,,24,2021-11-26_12h14.12.466,premceCat2_ses-02_part-02_label-phase2,2020.2.10,MacIntel,60,,,,,left,1.5238,4,2.1418,right,2.2481,0,0,0,0,1,,,,,,,,,,,,,,,,,
,,,,,,,,24,2021-11-26_12h14.12.466,premceCat2_ses-02_part-02_label-phase2,2020.2.10,MacIntel,60,,,,,,,,,,,,,,,,0,38,38,142,1,stimuli/objects/waterbottle03.jpg,left,old,143,,,,,,,,
,,,,,,,,24,2021-11-26_12h14.12.466,premceCat2_ses-02_part-02_label-phase2,2020.2.10,MacIntel,60,,,,,left,1.6086,4,1.0802,right,0.6888,0,0,0,0,1,,,,,,,,,,,,,,,,,
,,,,,,,,24,2021-11-26_12h14.12.466,premceCat2_ses-02_part-02_label-phase2,2020.2.10,MacIntel,60,,,,,,,,,,,,,,,,0,39,39,5,1,stimuli/objects/electricoutlet.jpg,left,old,6,,,,,,,,
,,,,,,,,24,2021-11-26_12h14.12.466,premceCat2_ses-02_part-02_label-phase2,2020.2.10,MacIntel,60,,,,,right,3.6127,1,1.7783,,,,,,,,0,40,40,53,1,stimuli/objects/binoculars01b.jpg,right,new,54,,,,,,,,
,,,,,,,,24,2021-11-26_12h14.12.466,premceCat2_ses-02_part-02_label-phase2,2020.2.10,MacIntel,60,,,,,right,1.5153,4,1.4225,,,,,,,,0,41,41,18,1,stimuli/objects/cashregister01.jpg,right,new,19,,,,,,,,
,,,,,,,,24,2021-11-26_12h14.12.466,premceCat2_ses-02_part-02_label-phase2,2020.2.10,MacIntel,60,,,,,left,1.74,4,0.3403,right,0.724,0,0,0,0,1,,,,,,,,,,,,,,,,,
,,,,,,,,24,2021-11-26_12h14.12.466,premceCat2_ses-02_part-02_label-phase2,2020.2.10,MacIntel,60,,,,,,,,,,,,,,,,0,42,42,97,1,stimuli/objects/djmixer02.jpg,left,old,98,,,,,,,,
,,,,,,,,24,2021-11-26_12h14.12.466,premceCat2_ses-02_part-02_label-phase2,2020.2.10,MacIntel,60,,,,,left,1.4859,4,0.9151,right,1.378,0,0,0,0,1,,,,,,,,,,,,,,,,,
,,,,,,,,24,2021-11-26_12h14.12.466,premceCat2_ses-02_part-02_label-phase2,2020.2.10,MacIntel,60,,,,,,,,,,,,,,,,0,43,43,69,1,stimuli/objects/atm.jpg,left,old,70,,,,,,,,
,,,,,,,,24,2021-11-26_12h14.12.466,premceCat2_ses-02_part-02_label-phase2,2020.2.10,MacIntel,60,,,,,right,1.9889,2,0.7908,,,,,,,,0,44,44,92,1,stimuli/objects/carjack.jpg,right,new,93,,,,,,,,
,,,,,,,,24,2021-11-26_12h14.12.466,premceCat2_ses-02_part-02_label-phase2,2020.2.10,MacIntel,60,,,,,right,1.1623,2,1.1791,,,,,,,,0,45,45,51,1,stimuli/objects/webcam.jpg,right,new,52,,,,,,,,
,,,,,,,,24,2021-11-26_12h14.12.466,premceCat2_ses-02_part-02_label-phase2,2020.2.10,MacIntel,60,,,,,left,1.3877,4,0.9432,right,2.8422,0,0,0,0,1,,,,,,,,,,,,,,,,,
,,,,,,,,24,2021-11-26_12h14.12.466,premceCat2_ses-02_part-02_label-phase2,2020.2.10,MacIntel,60,,,,,,,,,,,,,,,,0,46,46,99,1,stimuli/objects/sewingmachine01a.jpg,left,old,100,,,,,,,,
,,,,,,,,24,2021-11-26_12h14.12.466,premceCat2_ses-02_part-02_label-phase2,2020.2.10,MacIntel,60,,,,,left,1.3518,4,1.1089,right,1.6723,0,0,0,0,1,,,,,,,,,,,,,,,,,
,,,,,,,,24,2021-11-26_12h14.12.466,premceCat2_ses-02_part-02_label-phase2,2020.2.10,MacIntel,60,,,,,,,,,,,,,,,,0,47,47,105,1,stimuli/objects/cellphone.jpg,left,old,106,,,,,,,,
,,,,,,,,24,2021-11-26_12h14.12.466,premceCat2_ses-02_part-02_label-phase2,2020.2.10,MacIntel,60,,,,,right,1.5991,4,1.4385,,,,,,,,0,48,48,26,1,stimuli/objects/boogieboard.jpg,right,new,27,,,,,,,,
,,,,,,,,24,2021-11-26_12h14.12.466,premceCat2_ses-02_part-02_label-phase2,2020.2.10,MacIntel,60,,,,,right,1.4885,4,1.2707,,,,,,,,0,49,49,55,1,stimuli/objects/toolbox02.jpg,right,new,56,,,,,,,,
,,,,,,,,24,2021-11-26_12h14.12.466,premceCat2_ses-02_part-02_label-phase2,2020.2.10,MacIntel,60,,,,,right,3.7166,4,0.4691,,,,,,,,0,50,50,46,1,stimuli/objects/walkman.jpg,right,new,47,,,,,,,,
,,,,,,,,24,2021-11-26_12h14.12.466,premceCat2_ses-02_part-02_label-phase2,2020.2.10,MacIntel,60,,,,,left,4.5661,2,1.0167,left,1.2946,0,0,0,0,1,,,,,,,,,,,,,,,,,
,,,,,,,,24,2021-11-26_12h14.12.466,premceCat2_ses-02_part-02_label-phase2,2020.2.10,MacIntel,60,,,,,,,,,,,,,,,,0,51,51,21,1,stimuli/objects/paintbrush01.jpg,right,new,22,,,,,,,,
,,,,,,,,24,2021-11-26_12h14.12.466,premceCat2_ses-02_part-02_label-phase2,2020.2.10,MacIntel,60,,,,,left,1.6136,4,1.0033,left,2.2612,0,0,0,0,1,,,,,,,,,,,,,,,,,
,,,,,,,,24,2021-11-26_12h14.12.466,premceCat2_ses-02_part-02_label-phase2,2020.2.10,MacIntel,60,,,,,,,,,,,,,,,,0,52,52,35,1,stimuli/objects/chandelier.jpg,left,old,36,,,,,,,,
,,,,,,,,24,2021-11-26_12h14.12.466,premceCat2_ses-02_part-02_label-phase2,2020.2.10,MacIntel,60,,,,,right,1.297,4,1.39,,,,,,,,0,53,53,41,1,stimuli/objects/pylon01.jpg,right,new,42,,,,,,,,
,,,,,,,,24,2021-11-26_12h14.12.466,premceCat2_ses-02_part-02_label-phase2,2020.2.10,MacIntel,60,,,,,left,2.228,3,1.2725,left,1.2531,0,0,0,0,1,,,,,,,,,,,,,,,,,
,,,,,,,,24,2021-11-26_12h14.12.466,premceCat2_ses-02_part-02_label-phase2,2020.2.10,MacIntel,60,,,,,,,,,,,,,,,,0,54,54,13,1,stimuli/objects/bastingbrush.jpg,right,new,14,,,,,,,,
,,,,,,,,24,2021-11-26_12h14.12.466,premceCat2_ses-02_part-02_label-phase2,2020.2.10,MacIntel,60,,,,,right,5.6126,2,1.4831,,,,,,,,0,55,55,100,1,stimuli/objects/remotecontrol04.jpg,right,new,101,,,,,,,,
,,,,,,,,24,2021-11-26_12h14.12.466,premceCat2_ses-02_part-02_label-phase2,2020.2.10,MacIntel,60,,,,,right,1.264,4,1.1747,,,,,,,,0,56,56,86,1,stimuli/objects/toasteroven.jpg,right,new,87,,,,,,,,
,,,,,,,,24,2021-11-26_12h14.12.466,premceCat2_ses-02_part-02_label-phase2,2020.2.10,MacIntel,60,,,,,right,1.4479,4,1.0297,,,,,,,,0,57,57,42,1,stimuli/objects/snowshoe.jpg,right,new,43,,,,,,,,
,,,,,,,,24,2021-11-26_12h14.12.466,premceCat2_ses-02_part-02_label-phase2,2020.2.10,MacIntel,60,,,,,right,1.9679,1,1.5313,,,,,,,,0,58,58,59,1,stimuli/objects/studiolight.jpg,right,new,60,,,,,,,,
,,,,,,,,24,2021-11-26_12h14.12.466,premceCat2_ses-02_part-02_label-phase2,2020.2.10,MacIntel,60,,,,,left,1.6419,4,0.5626,right,0.7772,0,0,0,0,1,,,,,,,,,,,,,,,,,
,,,,,,,,24,2021-11-26_12h14.12.466,premceCat2_ses-02_part-02_label-phase2,2020.2.10,MacIntel,60,,,,,,,,,,,,,,,,0,59,59,61,1,stimuli/objects/painttray.jpg,left,old,62,,,,,,,,
,,,,,,,,24,2021-11-26_12h14.12.466,premceCat2_ses-02_part-02_label-phase2,2020.2.10,MacIntel,60,,,,,left,1.5578,3,1.2487,right,1.4224,0,0,0,0,1,,,,,,,,,,,,,,,,,
,,,,,,,,24,2021-11-26_12h14.12.466,premceCat2_ses-02_part-02_label-phase2,2020.2.10,MacIntel,60,,,,,,,,,,,,,,,,0,60,60,1,1,stimuli/objects/headphones02b.jpg,left,old,2,,,,,,,,
,,,,,,,,24,2021-11-26_12h14.12.466,premceCat2_ses-02_part-02_label-phase2,2020.2.10,MacIntel,60,,,,,left,1.4932,4,1.2119,left,0.6105,0,0,0,0,1,,,,,,,,,,,,,,,,,
,,,,,,,,24,2021-11-26_12h14.12.466,premceCat2_ses-02_part-02_label-phase2,2020.2.10,MacIntel,60,,,,,,,,,,,,,,,,0,61,61,103,1,stimuli/objects/bowl02a.jpg,left,old,104,,,,,,,,
,,,,,,,,24,2021-11-26_12h14.12.466,premceCat2_ses-02_part-02_label-phase2,2020.2.10,MacIntel,60,,,,,left,2.1213,4,0.8279,right,0.5762,0,0,0,0,1,,,,,,,,,,,,,,,,,
,,,,,,,,24,2021-11-26_12h14.12.466,premceCat2_ses-02_part-02_label-phase2,2020.2.10,MacIntel,60,,,,,,,,,,,,,,,,0,62,62,54,1,stimuli/objects/pda.jpg,right,new,55,,,,,,,,
,,,,,,,,24,2021-11-26_12h14.12.466,premceCat2_ses-02_part-02_label-phase2,2020.2.10,MacIntel,60,,,,,left,1.6005,4,0.5277,left,2.4138,0,0,0,0,1,,,,,,,,,,,,,,,,,
,,,,,,,,24,2021-11-26_12h14.12.466,premceCat2_ses-02_part-02_label-phase2,2020.2.10,MacIntel,60,,,,,,,,,,,,,,,,0,63,63,3,1,stimuli/objects/towel01.jpg,left,old,4,,,,,,,,
,,,,,,,,24,2021-11-26_12h14.12.466,premceCat2_ses-02_part-02_label-phase2,2020.2.10,MacIntel,60,,,,,right,1.9581,1,2.6007,,,,,,,,0,64,64,36,1,stimuli/objects/outletadapter.jpg,left,old,37,,,,,,,,
,,,,,,,,24,2021-11-26_12h14.12.466,premceCat2_ses-02_part-02_label-phase2,2020.2.10,MacIntel,60,,,,,right,1.8236,3,0.8154,,,,,,,,0,65,65,38,1,stimuli/objects/soundmixer.jpg,right,new,39,,,,,,,,
,,,,,,,,24,2021-11-26_12h14.12.466,premceCat2_ses-02_part-02_label-phase2,2020.2.10,MacIntel,60,,,,,left,1.2098,4,1.0505,right,1.1357,0,0,0,0,1,,,,,,,,,,,,,,,,,
,,,,,,,,24,2021-11-26_12h14.12.466,premceCat2_ses-02_part-02_label-phase2,2020.2.10,MacIntel,60,,,,,,,,,,,,,,,,0,66,66,89,1,stimuli/objects/ducttape.jpg,right,new,90,,,,,,,,
,,,,,,,,24,2021-11-26_12h14.12.466,premceCat2_ses-02_part-02_label-phase2,2020.2.10,MacIntel,60,,,,,left,2.4955,4,1.0722,right,0.9421,0,0,0,0,1,,,,,,,,,,,,,,,,,
,,,,,,,,24,2021-11-26_12h14.12.466,premceCat2_ses-02_part-02_label-phase2,2020.2.10,MacIntel,60,,,,,,,,,,,,,,,,0,67,67,37,1,stimuli/objects/aircompressor.jpg,left,old,38,,,,,,,,
,,,,,,,,24,2021-11-26_12h14.12.466,premceCat2_ses-02_part-02_label-phase2,2020.2.10,MacIntel,60,,,,,left,1.4185,4,0.685,left,1.3733,0,0,0,0,1,,,,,,,,,,,,,,,,,
,,,,,,,,24,2021-11-26_12h14.12.466,premceCat2_ses-02_part-02_label-phase2,2020.2.10,MacIntel,60,,,,,,,,,,,,,,,,0,68,68,126,1,stimuli/objects/tableknife02.jpg,right,new,127,,,,,,,,
,,,,,,,,24,2021-11-26_12h14.12.466,premceCat2_ses-02_part-02_label-phase2,2020.2.10,MacIntel,60,,,,,right,1.3601,2,0.6598,,,,,,,,0,69,69,20,1,stimuli/objects/laptop01a.jpg,right,new,21,,,,,,,,
,,,,,,,,24,2021-11-26_12h14.12.466,premceCat2_ses-02_part-02_label-phase2,2020.2.10,MacIntel,60,,,,,left,1.9893,2,0.9034,left,1.263,0,0,0,0,1,,,,,,,,,,,,,,,,,
,,,,,,,,24,2021-11-26_12h14.12.466,premceCat2_ses-02_part-02_label-phase2,2020.2.10,MacIntel,60,,,,,,,,,,,,,,,,0,70,70,78,1,stimuli/objects/servingspoon01.jpg,left,old,79,,,,,,,,
,,,,,,,,24,2021-11-26_12h14.12.466,premceCat2_ses-02_part-02_label-phase2,2020.2.10,MacIntel,60,,,,,right,1.438,3,1.8531,,,,,,,,0,71,71,83,1,stimuli/objects/kitchenscale01a.jpg,right,new,84,,,,,,,,
,,,,,,,,24,2021-11-26_12h14.12.466,premceCat2_ses-02_part-02_label-phase2,2020.2.10,MacIntel,60,,,,,right,1.1725,3,0.8797,,,,,,,,0,72,72,9,1,stimuli/objects/measuringtape01.jpg,right,new,10,,,,,,,,
,,,,,,,,24,2021-11-26_12h14.12.466,premceCat2_ses-02_part-02_label-phase2,2020.2.10,MacIntel,60,,,,,left,1.9766,3,1.1952,left,1.7833,0,0,0,0,1,,,,,,,,,,,,,,,,,
,,,,,,,,24,2021-11-26_12h14.12.466,premceCat2_ses-02_part-02_label-phase2,2020.2.10,MacIntel,60,,,,,,,,,,,,,,,,0,73,73,27,1,stimuli/objects/catchermask.jpg,left,old,28,,,,,,,,
,,,,,,,,24,2021-11-26_12h14.12.466,premceCat2_ses-02_part-02_label-phase2,2020.2.10,MacIntel,60,,,,,right,3.2088,1,0.4758,,,,,,,,0,74,74,106,1,stimuli/objects/minifridge.jpg,right,new,107,,,,,,,,
,,,,,,,,24,2021-11-26_12h14.12.466,premceCat2_ses-02_part-02_label-phase2,2020.2.10,MacIntel,60,,,,,left,1.0428,4,0.7833,left,0.6552,0,0,0,0,1,,,,,,,,,,,,,,,,,
,,,,,,,,24,2021-11-26_12h14.12.466,premceCat2_ses-02_part-02_label-phase2,2020.2.10,MacIntel,60,,,,,,,,,,,,,,,,0,75,75,48,1,stimuli/objects/gasburner.jpg,left,old,49,,,,,,,,
,,,,,,,,24,2021-11-26_12h14.12.466,premceCat2_ses-02_part-02_label-phase2,2020.2.10,MacIntel,60,,,,,left,1.077,4,0.5608,right,1.2886,0,0,0,0,1,,,,,,,,,,,,,,,,,
,,,,,,,,24,2021-11-26_12h14.12.466,premceCat2_ses-02_part-02_label-phase2,2020.2.10,MacIntel,60,,,,,,,,,,,,,,,,0,76,76,87,1,stimuli/objects/coffeemachine.jpg,left,old,88,,,,,,,,
,,,,,,,,24,2021-11-26_12h14.12.466,premceCat2_ses-02_part-02_label-phase2,2020.2.10,MacIntel,60,,,,,right,2.1698,2,0.3757,,,,,,,,0,77,77,108,1,stimuli/objects/metalscissors.jpg,right,new,109,,,,,,,,
,,,,,,,,24,2021-11-26_12h14.12.466,premceCat2_ses-02_part-02_label-phase2,2020.2.10,MacIntel,60,,,,,left,1.0122,4,0.7894,right,0.9733,0,0,0,0,1,,,,,,,,,,,,,,,,,
,,,,,,,,24,2021-11-26_12h14.12.466,premceCat2_ses-02_part-02_label-phase2,2020.2.10,MacIntel,60,,,,,,,,,,,,,,,,0,78,78,64,1,stimuli/objects/snowshovel.jpg,left,old,65,,,,,,,,
,,,,,,,,24,2021-11-26_12h14.12.466,premceCat2_ses-02_part-02_label-phase2,2020.2.10,MacIntel,60,,,,,right,1.3721,1,0.5809,,,,,,,,0,79,79,39,1,stimuli/objects/sippycup.jpg,right,new,40,,,,,,,,
,,,,,,,,24,2021-11-26_12h14.12.466,premceCat2_ses-02_part-02_label-phase2,2020.2.10,MacIntel,60,,,,,right,2.5543,1,0.9056,,,,,,,,0,80,80,66,1,stimuli/objects/nailgun.jpg,right,new,67,,,,,,,,
,,,,,,,,24,2021-11-26_12h14.12.466,premceCat2_ses-02_part-02_label-phase2,2020.2.10,MacIntel,60,,,,,left,4.6071,3,1.2542,right,1.1063,0,0,0,0,1,,,,,,,,,,,,,,,,,
,,,,,,,,24,2021-11-26_12h14.12.466,premceCat2_ses-02_part-02_label-phase2,2020.2.10,MacIntel,60,,,,,,,,,,,,,,,,0,81,81,138,1,stimuli/objects/taperecorder.jpg,right,new,139,,,,,,,,
,,,,,,,,24,2021-11-26_12h14.12.466,premceCat2_ses-02_part-02_label-phase2,2020.2.10,MacIntel,60,,,,,left,1.8904,4,1.4862,right,0.453,0,0,0,0,1,,,,,,,,,,,,,,,,,
,,,,,,,,24,2021-11-26_12h14.12.466,premceCat2_ses-02_part-02_label-phase2,2020.2.10,MacIntel,60,,,,,,,,,,,,,,,,0,82,82,14,1,stimuli/objects/mallet01b.jpg,left,old,15,,,,,,,,
,,,,,,,,24,2021-11-26_12h14.12.466,premceCat2_ses-02_part-02_label-phase2,2020.2.10,MacIntel,60,,,,,left,1.086,4,1.1856,left,0.5922,0,0,0,0,1,,,,,,,,,,,,,,,,,
,,,,,,,,24,2021-11-26_12h14.12.466,premceCat2_ses-02_part-02_label-phase2,2020.2.10,MacIntel,60,,,,,,,,,,,,,,,,0,83,83,58,1,stimuli/objects/bungeecord02.jpg,left,old,59,,,,,,,,
,,,,,,,,24,2021-11-26_12h14.12.466,premceCat2_ses-02_part-02_label-phase2,2020.2.10,MacIntel,60,,,,,left,2.128,4,0.6528,right,0.7498,0,0,0,0,1,,,,,,,,,,,,,,,,,
,,,,,,,,24,2021-11-26_12h14.12.466,premceCat2_ses-02_part-02_label-phase2,2020.2.10,MacIntel,60,,,,,,,,,,,,,,,,0,84,84,10,1,stimuli/objects/vhstape.jpg,left,old,11,,,,,,,,
,,,,,,,,24,2021-11-26_12h14.12.466,premceCat2_ses-02_part-02_label-phase2,2020.2.10,MacIntel,60,,,,,left,1.9417,4,0.6629,left,1.1496,0,0,0,0,1,,,,,,,,,,,,,,,,,
,,,,,,,,24,2021-11-26_12h14.12.466,premceCat2_ses-02_part-02_label-phase2,2020.2.10,MacIntel,60,,,,,,,,,,,,,,,,0,85,85,15,1,stimuli/objects/spicerack.jpg,left,old,16,,,,,,,,
,,,,,,,,24,2021-11-26_12h14.12.466,premceCat2_ses-02_part-02_label-phase2,2020.2.10,MacIntel,60,,,,,right,8.1882,2,1.3545,,,,,,,,0,86,86,104,1,stimuli/objects/securitycamera.jpg,left,old,105,,,,,,,,
,,,,,,,,24,2021-11-26_12h14.12.466,premceCat2_ses-02_part-02_label-phase2,2020.2.10,MacIntel,60,,,,,right,1.2506,4,1.5416,,,,,,,,0,87,87,136,1,stimuli/objects/battery02b.jpg,right,new,137,,,,,,,,
,,,,,,,,24,2021-11-26_12h14.12.466,premceCat2_ses-02_part-02_label-phase2,2020.2.10,MacIntel,60,,,,,right,1.0896,4,0.4667,,,,,,,,0,88,88,63,1,stimuli/objects/butterdish.jpg,right,new,64,,,,,,,,
,,,,,,,,24,2021-11-26_12h14.12.466,premceCat2_ses-02_part-02_label-phase2,2020.2.10,MacIntel,60,,,,,left,4.9057,2,1.2629,left,1.6467,0,0,0,0,1,,,,,,,,,,,,,,,,,
,,,,,,,,24,2021-11-26_12h14.12.466,premceCat2_ses-02_part-02_label-phase2,2020.2.10,MacIntel,60,,,,,,,,,,,,,,,,0,89,89,8,1,stimuli/objects/basketballhoop01.jpg,right,new,9,,,,,,,,
,,,,,,,,24,2021-11-26_12h14.12.466,premceCat2_ses-02_part-02_label-phase2,2020.2.10,MacIntel,60,,,,,left,1.3247,4,0.5071,left,0.9376,0,0,0,0,1,,,,,,,,,,,,,,,,,
,,,,,,,,24,2021-11-26_12h14.12.466,premceCat2_ses-02_part-02_label-phase2,2020.2.10,MacIntel,60,,,,,,,,,,,,,,,,0,90,90,56,1,stimuli/objects/jar02.jpg,left,old,57,,,,,,,,
,,,,,,,,24,2021-11-26_12h14.12.466,premceCat2_ses-02_part-02_label-phase2,2020.2.10,MacIntel,60,,,,,right,2.3373,2,1.2229,,,,,,,,0,91,91,90,1,stimuli/objects/carlighter02.jpg,right,new,91,,,,,,,,
,,,,,,,,24,2021-11-26_12h14.12.466,premceCat2_ses-02_part-02_label-phase2,2020.2.10,MacIntel,60,,,,,right,2.1148,3,1.1023,,,,,,,,0,92,92,125,1,stimuli/objects/shoulderpad.jpg,right,new,126,,,,,,,,
,,,,,,,,24,2021-11-26_12h14.12.466,premceCat2_ses-02_part-02_label-phase2,2020.2.10,MacIntel,60,,,,,right,2.1841,4,0.9245,,,,,,,,0,93,93,141,1,stimuli/objects/generator.jpg,right,new,142,,,,,,,,
,,,,,,,,24,2021-11-26_12h14.12.466,premceCat2_ses-02_part-02_label-phase2,2020.2.10,MacIntel,60,,,,,left,1.9908,4,1.2492,right,1.3287,0,0,0,0,1,,,,,,,,,,,,,,,,,
,,,,,,,,24,2021-11-26_12h14.12.466,premceCat2_ses-02_part-02_label-phase2,2020.2.10,MacIntel,60,,,,,,,,,,,,,,,,0,94,94,132,1,stimuli/objects/airconditioner.jpg,left,old,133,,,,,,,,
,,,,,,,,24,2021-11-26_12h14.12.466,premceCat2_ses-02_part-02_label-phase2,2020.2.10,MacIntel,60,,,,,left,1.7393,4,0.518,left,0.9355,0,0,0,0,1,,,,,,,,,,,,,,,,,
,,,,,,,,24,2021-11-26_12h14.12.466,premceCat2_ses-02_part-02_label-phase2,2020.2.10,MacIntel,60,,,,,,,,,,,,,,,,0,95,95,47,1,stimuli/objects/bucket02.jpg,left,old,48,,,,,,,,
,,,,,,,,24,2021-11-26_12h14.12.466,premceCat2_ses-02_part-02_label-phase2,2020.2.10,MacIntel,60,,,,,right,1.9511,4,0.5723,,,,,,,,0,96,96,80,1,stimuli/objects/snowman.jpg,right,new,81,,,,,,,,
,,,,,,,,24,2021-11-26_12h14.12.466,premceCat2_ses-02_part-02_label-phase2,2020.2.10,MacIntel,60,,,,,right,1.4992,4,0.5962,,,,,,,,0,97,97,131,1,stimuli/objects/spotlight.jpg,right,new,132,,,,,,,,
,,,,,,,,24,2021-11-26_12h14.12.466,premceCat2_ses-02_part-02_label-phase2,2020.2.10,MacIntel,60,,,,,left,1.7901,4,0.2884,left,0.9509,0,0,0,0,1,,,,,,,,,,,,,,,,,
,,,,,,,,24,2021-11-26_12h14.12.466,premceCat2_ses-02_part-02_label-phase2,2020.2.10,MacIntel,60,,,,,,,,,,,,,,,,0,98,98,116,1,stimuli/objects/radio01.jpg,right,new,117,,,,,,,,
,,,,,,,,24,2021-11-26_12h14.12.466,premceCat2_ses-02_part-02_label-phase2,2020.2.10,MacIntel,60,,,,,left,1.1078,4,0.4497,right,0.6369,0,0,0,0,1,,,,,,,,,,,,,,,,,
,,,,,,,,24,2021-11-26_12h14.12.466,premceCat2_ses-02_part-02_label-phase2,2020.2.10,MacIntel,60,,,,,,,,,,,,,,,,0,99,99,75,1,stimuli/objects/stepladder.jpg,right,new,76,,,,,,,,
,,,,,,,,24,2021-11-26_12h14.12.466,premceCat2_ses-02_part-02_label-phase2,2020.2.10,MacIntel,60,,,,,left,1.2165,4,0.5018,right,0.483,0,0,0,0,1,,,,,,,,,,,,,,,,,
,,,,,,,,24,2021-11-26_12h14.12.466,premceCat2_ses-02_part-02_label-phase2,2020.2.10,MacIntel,60,,,,,,,,,,,,,,,,0,100,100,7,1,stimuli/objects/hammer01.jpg,left,old,8,,,,,,,,
,,,,,,,,24,2021-11-26_12h14.12.466,premceCat2_ses-02_part-02_label-phase2,2020.2.10,MacIntel,60,,,,,left,1.6151,2,0.3639,right,0.9055,0,0,0,0,1,,,,,,,,,,,,,,,,,
,,,,,,,,24,2021-11-26_12h14.12.466,premceCat2_ses-02_part-02_label-phase2,2020.2.10,MacIntel,60,,,,,,,,,,,,,,,,0,101,101,122,1,stimuli/objects/wire.jpg,left,old,123,,,,,,,,
,,,,,,,,24,2021-11-26_12h14.12.466,premceCat2_ses-02_part-02_label-phase2,2020.2.10,MacIntel,60,,,,,right,1.2277,3,1.9312,,,,,,,,0,102,102,96,1,stimuli/objects/golfbag.jpg,right,new,97,,,,,,,,
,,,,,,,,24,2021-11-26_12h14.12.466,premceCat2_ses-02_part-02_label-phase2,2020.2.10,MacIntel,60,,,,,right,1.2457,4,1.2056,,,,,,,,0,103,103,112,1,stimuli/objects/gymnasticring.jpg,right,new,113,,,,,,,,
,,,,,,,,24,2021-11-26_12h14.12.466,premceCat2_ses-02_part-02_label-phase2,2020.2.10,MacIntel,60,,,,,right,1.1208,4,1.1584,,,,,,,,0,104,104,93,1,stimuli/objects/icepack.jpg,right,new,94,,,,,,,,
,,,,,,,,24,2021-11-26_12h14.12.466,premceCat2_ses-02_part-02_label-phase2,2020.2.10,MacIntel,60,,,,,left,1.4401,4,0.5962,left,0.6871,0,0,0,0,1,,,,,,,,,,,,,,,,,
,,,,,,,,24,2021-11-26_12h14.12.466,premceCat2_ses-02_part-02_label-phase2,2020.2.10,MacIntel,60,,,,,,,,,,,,,,,,0,105,105,28,1,stimuli/objects/backpack01a.jpg,left,old,29,,,,,,,,
,,,,,,,,24,2021-11-26_12h14.12.466,premceCat2_ses-02_part-02_label-phase2,2020.2.10,MacIntel,60,,,,,left,1.1566,4,0.6558,left,0.6784,0,0,0,0,1,,,,,,,,,,,,,,,,,
,,,,,,,,24,2021-11-26_12h14.12.466,premceCat2_ses-02_part-02_label-phase2,2020.2.10,MacIntel,60,,,,,,,,,,,,,,,,0,106,106,49,1,stimuli/objects/badmintonracket.jpg,left,old,50,,,,,,,,
,,,,,,,,24,2021-11-26_12h14.12.466,premceCat2_ses-02_part-02_label-phase2,2020.2.10,MacIntel,60,,,,,left,1.4185,4,1.2579,right,0.3856,0,0,0,0,1,,,,,,,,,,,,,,,,,
,,,,,,,,24,2021-11-26_12h14.12.466,premceCat2_ses-02_part-02_label-phase2,2020.2.10,MacIntel,60,,,,,,,,,,,,,,,,0,107,107,50,1,stimuli/objects/chisel02b.jpg,right,new,51,,,,,,,,
,,,,,,,,24,2021-11-26_12h14.12.466,premceCat2_ses-02_part-02_label-phase2,2020.2.10,MacIntel,60,,,,,right,1.6745,2,0.7582,,,,,,,,0,108,108,73,1,stimuli/objects/clock01a.jpg,right,new,74,,,,,,,,
,,,,,,,,24,2021-11-26_12h14.12.466,premceCat2_ses-02_part-02_label-phase2,2020.2.10,MacIntel,60,,,,,left,1.1028,4,0.5273,left,1.2303,0,0,0,0,1,,,,,,,,,,,,,,,,,
,,,,,,,,24,2021-11-26_12h14.12.466,premceCat2_ses-02_part-02_label-phase2,2020.2.10,MacIntel,60,,,,,,,,,,,,,,,,0,109,109,52,1,stimuli/objects/bottlecap.jpg,left,old,53,,,,,,,,
,,,,,,,,24,2021-11-26_12h14.12.466,premceCat2_ses-02_part-02_label-phase2,2020.2.10,MacIntel,60,,,,,left,2.906,2,0.5842,right,1.1882,0,0,0,0,1,,,,,,,,,,,,,,,,,
,,,,,,,,24,2021-11-26_12h14.12.466,premceCat2_ses-02_part-02_label-phase2,2020.2.10,MacIntel,60,,,,,,,,,,,,,,,,0,110,110,72,1,stimuli/objects/cclamp.jpg,right,new,73,,,,,,,,
,,,,,,,,24,2021-11-26_12h14.12.466,premceCat2_ses-02_part-02_label-phase2,2020.2.10,MacIntel,60,,,,,left,2.192,4,0.5467,right,1.3907,0,0,0,0,1,,,,,,,,,,,,,,,,,
,,,,,,,,24,2021-11-26_12h14.12.466,premceCat2_ses-02_part-02_label-phase2,2020.2.10,MacIntel,60,,,,,,,,,,,,,,,,0,111,111,44,1,stimuli/objects/toyhardhat.jpg,left,old,45,,,,,,,,
,,,,,,,,24,2021-11-26_12h14.12.466,premceCat2_ses-02_part-02_label-phase2,2020.2.10,MacIntel,60,,,,,right,1.545,2,0.5553,,,,,,,,0,112,112,124,1,stimuli/objects/baseball01a.jpg,left,old,125,,,,,,,,
,,,,,,,,24,2021-11-26_12h14.12.466,premceCat2_ses-02_part-02_label-phase2,2020.2.10,MacIntel,60,,,,,left,1.021,4,1.0258,left,0.7578,0,0,0,0,1,,,,,,,,,,,,,,,,,
,,,,,,,,24,2021-11-26_12h14.12.466,premceCat2_ses-02_part-02_label-phase2,2020.2.10,MacIntel,60,,,,,,,,,,,,,,,,0,113,113,67,1,stimuli/objects/lifesaver.jpg,left,old,68,,,,,,,,
,,,,,,,,24,2021-11-26_12h14.12.466,premceCat2_ses-02_part-02_label-phase2,2020.2.10,MacIntel,60,,,,,left,3.2322,2,0.3643,right,1.1224,0,0,0,0,1,,,,,,,,,,,,,,,,,
,,,,,,,,24,2021-11-26_12h14.12.466,premceCat2_ses-02_part-02_label-phase2,2020.2.10,MacIntel,60,,,,,,,,,,,,,,,,0,114,114,71,1,stimuli/objects/faxmachine.jpg,right,new,72,,,,,,,,
,,,,,,,,24,2021-11-26_12h14.12.466,premceCat2_ses-02_part-02_label-phase2,2020.2.10,MacIntel,60,,,,,left,1.6283,4,1.4491,right,0.4363,0,0,0,0,1,,,,,,,,,,,,,,,,,
,,,,,,,,24,2021-11-26_12h14.12.466,premceCat2_ses-02_part-02_label-phase2,2020.2.10,MacIntel,60,,,,,,,,,,,,,,,,0,115,115,11,1,stimuli/objects/videocamera01a.jpg,left,old,12,,,,,,,,
,,,,,,,,24,2021-11-26_12h14.12.466,premceCat2_ses-02_part-02_label-phase2,2020.2.10,MacIntel,60,,,,,left,1.187,4,0.7549,left,0.4745,0,0,0,0,1,,,,,,,,,,,,,,,,,
,,,,,,,,24,2021-11-26_12h14.12.466,premceCat2_ses-02_part-02_label-phase2,2020.2.10,MacIntel,60,,,,,,,,,,,,,,,,0,116,116,107,1,stimuli/objects/martiniglass01b.jpg,left,old,108,,,,,,,,
,,,,,,,,24,2021-11-26_12h14.12.466,premceCat2_ses-02_part-02_label-phase2,2020.2.10,MacIntel,60,,,,,left,1.8699,4,0.4416,right,0.4575,0,0,0,0,1,,,,,,,,,,,,,,,,,
,,,,,,,,24,2021-11-26_12h14.12.466,premceCat2_ses-02_part-02_label-phase2,2020.2.10,MacIntel,60,,,,,,,,,,,,,,,,0,117,117,101,1,stimuli/objects/fuse.jpg,left,old,102,,,,,,,,
,,,,,,,,24,2021-11-26_12h14.12.466,premceCat2_ses-02_part-02_label-phase2,2020.2.10,MacIntel,60,,,,,right,1.4497,2,0.3265,,,,,,,,0,118,118,60,1,stimuli/objects/glass02a.jpg,right,new,61,,,,,,,,
,,,,,,,,24,2021-11-26_12h14.12.466,premceCat2_ses-02_part-02_label-phase2,2020.2.10,MacIntel,60,,,,,left,4.8012,4,1.1309,right,0.5418,0,0,0,0,1,,,,,,,,,,,,,,,,,
,,,,,,,,24,2021-11-26_12h14.12.466,premceCat2_ses-02_part-02_label-phase2,2020.2.10,MacIntel,60,,,,,,,,,,,,,,,,0,119,119,115,1,stimuli/objects/flooringstapler.jpg,left,old,116,,,,,,,,
,,,,,,,,24,2021-11-26_12h14.12.466,premceCat2_ses-02_part-02_label-phase2,2020.2.10,MacIntel,60,,,,,left,2.4819,2,0.351,left,1.0445,0,0,0,0,1,,,,,,,,,,,,,,,,,
,,,,,,,,24,2021-11-26_12h14.12.466,premceCat2_ses-02_part-02_label-phase2,2020.2.10,MacIntel,60,,,,,,,,,,,,,,,,0,120,120,123,1,stimuli/objects/breadknife.jpg,left,old,124,,,,,,,,
,,,,,,,,24,2021-11-26_12h14.12.466,premceCat2_ses-02_part-02_label-phase2,2020.2.10,MacIntel,60,,,,,right,2.2025,2,0.4827,,,,,,,,0,121,121,102,1,stimuli/objects/skihelmet01.jpg,left,old,103,,,,,,,,
,,,,,,,,24,2021-11-26_12h14.12.466,premceCat2_ses-02_part-02_label-phase2,2020.2.10,MacIntel,60,,,,,right,2.1519,2,0.6525,,,,,,,,0,122,122,130,1,stimuli/objects/hockeypuck.jpg,left,old,131,,,,,,,,
,,,,,,,,24,2021-11-26_12h14.12.466,premceCat2_ses-02_part-02_label-phase2,2020.2.10,MacIntel,60,,,,,right,1.2627,4,1.1888,,,,,,,,0,123,123,111,1,stimuli/objects/speaker04.jpg,right,new,112,,,,,,,,
,,,,,,,,24,2021-11-26_12h14.12.466,premceCat2_ses-02_part-02_label-phase2,2020.2.10,MacIntel,60,,,,,right,1.3083,4,0.6652,,,,,,,,0,124,124,17,1,stimuli/objects/exercisebench.jpg,right,new,18,,,,,,,,
,,,,,,,,24,2021-11-26_12h14.12.466,premceCat2_ses-02_part-02_label-phase2,2020.2.10,MacIntel,60,,,,,left,1.2761,4,0.5625,left,0.4306,0,0,0,0,1,,,,,,,,,,,,,,,,,
,,,,,,,,24,2021-11-26_12h14.12.466,premceCat2_ses-02_part-02_label-phase2,2020.2.10,MacIntel,60,,,,,,,,,,,,,,,,0,125,125,45,1,stimuli/objects/butterknife.jpg,left,old,46,,,,,,,,
,,,,,,,,24,2021-11-26_12h14.12.466,premceCat2_ses-02_part-02_label-phase2,2020.2.10,MacIntel,60,,,,,left,1.61,2,0.7339,left,0.6409,0,0,0,0,1,,,,,,,,,,,,,,,,,
,,,,,,,,24,2021-11-26_12h14.12.466,premceCat2_ses-02_part-02_label-phase2,2020.2.10,MacIntel,60,,,,,,,,,,,,,,,,0,126,126,114,1,stimuli/objects/pitcher02b.jpg,left,old,115,,,,,,,,
,,,,,,,,24,2021-11-26_12h14.12.466,premceCat2_ses-02_part-02_label-phase2,2020.2.10,MacIntel,60,,,,,left,3.6332,1,0.4677,left,1.5023,0,0,0,0,1,,,,,,,,,,,,,,,,,
,,,,,,,,24,2021-11-26_12h14.12.466,premceCat2_ses-02_part-02_label-phase2,2020.2.10,MacIntel,60,,,,,,,,,,,,,,,,0,127,127,98,1,stimuli/objects/toyhockeystick01.jpg,left,old,99,,,,,,,,
,,,,,,,,24,2021-11-26_12h14.12.466,premceCat2_ses-02_part-02_label-phase2,2020.2.10,MacIntel,60,,,,,left,2.0183,4,1.3965,left,0.8368,0,0,0,0,1,,,,,,,,,,,,,,,,,
,,,,,,,,24,2021-11-26_12h14.12.466,premceCat2_ses-02_part-02_label-phase2,2020.2.10,MacIntel,60,,,,,,,,,,,,,,,,0,128,128,79,1,stimuli/objects/gps.jpg,left,old,80,,,,,,,,
,,,,,,,,24,2021-11-26_12h14.12.466,premceCat2_ses-02_part-02_label-phase2,2020.2.10,MacIntel,60,,,,,right,9.1709,2,1.3207,,,,,,,,0,129,129,33,1,stimuli/objects/microwave.jpg,right,new,34,,,,,,,,
,,,,,,,,24,2021-11-26_12h14.12.466,premceCat2_ses-02_part-02_label-phase2,2020.2.10,MacIntel,60,,,,,right,2.1463,2,0.6632,,,,,,,,0,130,130,88,1,stimuli/objects/cowbell.jpg,left,old,89,,,,,,,,
,,,,,,,,24,2021-11-26_12h14.12.466,premceCat2_ses-02_part-02_label-phase2,2020.2.10,MacIntel,60,,,,,left,1.5863,4,1.6938,right,1.7532,0,0,0,0,1,,,,,,,,,,,,,,,,,
,,,,,,,,24,2021-11-26_12h14.12.466,premceCat2_ses-02_part-02_label-phase2,2020.2.10,MacIntel,60,,,,,,,,,,,,,,,,0,131,131,65,1,stimuli/objects/tape02a.jpg,left,old,66,,,,,,,,
,,,,,,,,24,2021-11-26_12h14.12.466,premceCat2_ses-02_part-02_label-phase2,2020.2.10,MacIntel,60,,,,,left,1.3342,4,0.666,left,0.4253,0,0,0,0,1,,,,,,,,,,,,,,,,,
,,,,,,,,24,2021-11-26_12h14.12.466,premceCat2_ses-02_part-02_label-phase2,2020.2.10,MacIntel,60,,,,,,,,,,,,,,,,0,132,132,6,1,stimuli/objects/contactlens.jpg,left,old,7,,,,,,,,
,,,,,,,,24,2021-11-26_12h14.12.466,premceCat2_ses-02_part-02_label-phase2,2020.2.10,MacIntel,60,,,,,right,1.8162,2,0.3178,,,,,,,,0,133,133,30,1,stimuli/objects/printer02.jpg,right,new,31,,,,,,,,
,,,,,,,,24,2021-11-26_12h14.12.466,premceCat2_ses-02_part-02_label-phase2,2020.2.10,MacIntel,60,,,,,right,2.1569,4,0.6333,,,,,,,,0,134,134,29,1,stimuli/objects/ipad02.jpg,left,old,30,,,,,,,,
,,,,,,,,24,2021-11-26_12h14.12.466,premceCat2_ses-02_part-02_label-phase2,2020.2.10,MacIntel,60,,,,,right,1.2416,2,0.2407,,,,,,,,0,135,135,85,1,stimuli/objects/golfball.jpg,right,new,86,,,,,,,,
,,,,,,,,24,2021-11-26_12h14.12.466,premceCat2_ses-02_part-02_label-phase2,2020.2.10,MacIntel,60,,,,,left,1.142,4,0.4819,left,1.026,0,0,0,0,1,,,,,,,,,,,,,,,,,
,,,,,,,,24,2021-11-26_12h14.12.466,premceCat2_ses-02_part-02_label-phase2,2020.2.10,MacIntel,60,,,,,,,,,,,,,,,,0,136,136,70,1,stimuli/objects/oven.jpg,left,old,71,,,,,,,,
,,,,,,,,24,2021-11-26_12h14.12.466,premceCat2_ses-02_part-02_label-phase2,2020.2.10,MacIntel,60,,,,,left,1.742,4,0.5417,right,0.9574,0,0,0,0,1,,,,,,,,,,,,,,,,,
,,,,,,,,24,2021-11-26_12h14.12.466,premceCat2_ses-02_part-02_label-phase2,2020.2.10,MacIntel,60,,,,,,,,,,,,,,,,0,137,137,117,1,stimuli/objects/videotape01b.jpg,right,new,118,,,,,,,,
,,,,,,,,24,2021-11-26_12h14.12.466,premceCat2_ses-02_part-02_label-phase2,2020.2.10,MacIntel,60,,,,,left,1.1363,4,0.6296,right,0.4322,0,0,0,0,1,,,,,,,,,,,,,,,,,
,,,,,,,,24,2021-11-26_12h14.12.466,premceCat2_ses-02_part-02_label-phase2,2020.2.10,MacIntel,60,,,,,,,,,,,,,,,,0,138,138,91,1,stimuli/objects/puttyknife.jpg,left,old,92,,,,,,,,
,,,,,,,,24,2021-11-26_12h14.12.466,premceCat2_ses-02_part-02_label-phase2,2020.2.10,MacIntel,60,,,,,right,1.0482,4,0.5629,,,,,,,,0,139,139,110,1,stimuli/objects/lock03a.jpg,right,new,111,,,,,,,,
,,,,,,,,24,2021-11-26_12h14.12.466,premceCat2_ses-02_part-02_label-phase2,2020.2.10,MacIntel,60,,,,,right,0.9116,4,0.4644,,,,,,,,0,140,140,119,1,stimuli/objects/tongs01b.jpg,right,new,120,,,,,,,,
,,,,,,,,24,2021-11-26_12h14.12.466,premceCat2_ses-02_part-02_label-phase2,2020.2.10,MacIntel,60,,,,,right,0.7094,4,0.2378,,,,,,,,0,141,141,22,1,stimuli/objects/umbrella04.jpg,right,new,23,,,,,,,,
,,,,,,,,24,2021-11-26_12h14.12.466,premceCat2_ses-02_part-02_label-phase2,2020.2.10,MacIntel,60,,,,,left,1.2068,2,2.1135,right,1.0582,0,0,0,0,1,,,,,,,,,,,,,,,,,
,,,,,,,,24,2021-11-26_12h14.12.466,premceCat2_ses-02_part-02_label-phase2,2020.2.10,MacIntel,60,,,,,,,,,,,,,,,,0,142,142,137,1,stimuli/objects/podium.jpg,left,old,138,,,,,,,,
,,,,,,,,24,2021-11-26_12h14.12.466,premceCat2_ses-02_part-02_label-phase2,2020.2.10,MacIntel,60,,,,,,,,,,,,,,,,,,,,,,,,,space,23.0354,0,0,0,0,1,condition_files/ImagesforRecog1_1.csv
,,,,,,,,24,2021-11-26_12h14.12.466,premceCat2_ses-02_part-02_label-phase2,2020.2.10,MacIntel,60,,,,,right,1.8766,4,1.845,,,,,,,,0,0,0,6,1,stimuli/objects/solderingwire.jpg,right,new,150,,,,,,,,
,,,,,,,,24,2021-11-26_12h14.12.466,premceCat2_ses-02_part-02_label-phase2,2020.2.10,MacIntel,60,,,,,left,2.4999,4,1.3122,right,1.2166,0,0,0,0,1,,,,,,,,,,,,,,,,,
,,,,,,,,24,2021-11-26_12h14.12.466,premceCat2_ses-02_part-02_label-phase2,2020.2.10,MacIntel,60,,,,,,,,,,,,,,,,0,1,1,20,1,stimuli/objects/fishinghook03.jpg,left,old,164,,,,,,,,
,,,,,,,,24,2021-11-26_12h14.12.466,premceCat2_ses-02_part-02_label-phase2,2020.2.10,MacIntel,60,,,,,right,1.8156,4,0.4361,,,,,,,,0,2,2,5,1,stimuli/objects/pickaxe02.jpg,right,new,149,,,,,,,,
,,,,,,,,24,2021-11-26_12h14.12.466,premceCat2_ses-02_part-02_label-phase2,2020.2.10,MacIntel,60,,,,,right,0.9584,4,0.4221,,,,,,,,0,3,3,131,1,stimuli/objects/handblender.jpg,right,new,275,,,,,,,,
,,,,,,,,24,2021-11-26_12h14.12.466,premceCat2_ses-02_part-02_label-phase2,2020.2.10,MacIntel,60,,,,,left,1.6999,1,2.5134,right,0.9749,0,0,0,0,1,,,,,,,,,,,,,,,,,
,,,,,,,,24,2021-11-26_12h14.12.466,premceCat2_ses-02_part-02_label-phase2,2020.2.10,MacIntel,60,,,,,,,,,,,,,,,,0,4,4,76,1,stimuli/objects/satellitedish01.jpg,left,old,220,,,,,,,,
,,,,,,,,24,2021-11-26_12h14.12.466,premceCat2_ses-02_part-02_label-phase2,2020.2.10,MacIntel,60,,,,,left,3.3896,3,0.0746,right,1.1771,0,0,0,0,1,,,,,,,,,,,,,,,,,
,,,,,,,,24,2021-11-26_12h14.12.466,premceCat2_ses-02_part-02_label-phase2,2020.2.10,MacIntel,60,,,,,,,,,,,,,,,,0,5,5,128,1,stimuli/objects/espressomachine.jpg,left,old,272,,,,,,,,
,,,,,,,,24,2021-11-26_12h14.12.466,premceCat2_ses-02_part-02_label-phase2,2020.2.10,MacIntel,60,,,,,right,1.6226,3,0.3307,,,,,,,,0,6,6,47,1,stimuli/objects/plate01b.jpg,right,new,191,,,,,,,,
,,,,,,,,24,2021-11-26_12h14.12.466,premceCat2_ses-02_part-02_label-phase2,2020.2.10,MacIntel,60,,,,,right,1.02,3,0.4774,,,,,,,,0,7,7,46,1,stimuli/objects/waterbottleholder.jpg,right,new,190,,,,,,,,
,,,,,,,,24,2021-11-26_12h14.12.466,premceCat2_ses-02_part-02_label-phase2,2020.2.10,MacIntel,60,,,,,left,1.8172,3,0.4496,left,0.9264,0,0,0,0,1,,,,,,,,,,,,,,,,,
,,,,,,,,24,2021-11-26_12h14.12.466,premceCat2_ses-02_part-02_label-phase2,2020.2.10,MacIntel,60,,,,,,,,,,,,,,,,0,8,8,90,1,stimuli/objects/patioumbrella.jpg,left,old,234,,,,,,,,
,,,,,,,,24,2021-11-26_12h14.12.466,premceCat2_ses-02_part-02_label-phase2,2020.2.10,MacIntel,60,,,,,left,1.9503,3,0.3964,left,0.9392,0,0,0,0,1,,,,,,,,,,,,,,,,,
,,,,,,,,24,2021-11-26_12h14.12.466,premceCat2_ses-02_part-02_label-phase2,2020.2.10,MacIntel,60,,,,,,,,,,,,,,,,0,9,9,100,1,stimuli/objects/lawnmower.jpg,left,old,244,,,,,,,,
,,,,,,,,24,2021-11-26_12h14.12.466,premceCat2_ses-02_part-02_label-phase2,2020.2.10,MacIntel,60,,,,,right,1.3504,4,1.966,,,,,,,,0,10,10,59,1,stimuli/objects/speedball.jpg,right,new,203,,,,,,,,
,,,,,,,,24,2021-11-26_12h14.12.466,premceCat2_ses-02_part-02_label-phase2,2020.2.10,MacIntel,60,,,,,left,1.9443,2,0.1935,left,1.9045,0,0,0,0,1,,,,,,,,,,,,,,,,,
,,,,,,,,24,2021-11-26_12h14.12.466,premceCat2_ses-02_part-02_label-phase2,2020.2.10,MacIntel,60,,,,,,,,,,,,,,,,0,11,11,70,1,stimuli/objects/shovel01.jpg,right,new,214,,,,,,,,
,,,,,,,,24,2021-11-26_12h14.12.466,premceCat2_ses-02_part-02_label-phase2,2020.2.10,MacIntel,60,,,,,left,2.362,3,0.387,left,1.0817,0,0,0,0,1,,,,,,,,,,,,,,,,,
,,,,,,,,24,2021-11-26_12h14.12.466,premceCat2_ses-02_part-02_label-phase2,2020.2.10,MacIntel,60,,,,,,,,,,,,,,,,0,12,12,114,1,stimuli/objects/drinkshaker.jpg,right,new,258,,,,,,,,
,,,,,,,,24,2021-11-26_12h14.12.466,premceCat2_ses-02_part-02_label-phase2,2020.2.10,MacIntel,60,,,,,left,1.4821,4,0.0953,right,0.7084,0,0,0,0,1,,,,,,,,,,,,,,,,,
,,,,,,,,24,2021-11-26_12h14.12.466,premceCat2_ses-02_part-02_label-phase2,2020.2.10,MacIntel,60,,,,,,,,,,,,,,,,0,13,13,1,1,stimuli/objects/expansioncard.jpg,left,old,145,,,,,,,,
,,,,,,,,24,2021-11-26_12h14.12.466,premceCat2_ses-02_part-02_label-phase2,2020.2.10,MacIntel,60,,,,,right,1.3227,4,1.5153,,,,,,,,0,14,14,29,1,stimuli/objects/ipod.jpg,left,old,173,,,,,,,,
,,,,,,,,24,2021-11-26_12h14.12.466,premceCat2_ses-02_part-02_label-phase2,2020.2.10,MacIntel,60,,,,,left,1.8677,3,1.2867,right,0.4771,0,0,0,0,1,,,,,,,,,,,,,,,,,
,,,,,,,,24,2021-11-26_12h14.12.466,premceCat2_ses-02_part-02_label-phase2,2020.2.10,MacIntel,60,,,,,,,,,,,,,,,,0,15,15,106,1,stimuli/objects/usbcable01a.jpg,left,old,250,,,,,,,,
,,,,,,,,24,2021-11-26_12h14.12.466,premceCat2_ses-02_part-02_label-phase2,2020.2.10,MacIntel,60,,,,,right,1.7455,3,0.9177,,,,,,,,0,16,16,102,1,stimuli/objects/beachumbrella01.jpg,right,new,246,,,,,,,,
,,,,,,,,24,2021-11-26_12h14.12.466,premceCat2_ses-02_part-02_label-phase2,2020.2.10,MacIntel,60,,,,,left,1.6611,4,0.6693,right,1.2133,0,0,0,0,1,,,,,,,,,,,,,,,,,
,,,,,,,,24,2021-11-26_12h14.12.466,premceCat2_ses-02_part-02_label-phase2,2020.2.10,MacIntel,60,,,,,,,,,,,,,,,,0,17,17,17,1,stimuli/objects/propanetank01.jpg,left,old,161,,,,,,,,
,,,,,,,,24,2021-11-26_12h14.12.466,premceCat2_ses-02_part-02_label-phase2,2020.2.10,MacIntel,60,,,,,right,1.4043,4,0.2586,,,,,,,,0,18,18,0,1,stimuli/objects/smokedetector02.jpg,right,new,144,,,,,,,,
,,,,,,,,24,2021-11-26_12h14.12.466,premceCat2_ses-02_part-02_label-phase2,2020.2.10,MacIntel,60,,,,,right,1.0151,4,0.1353,,,,,,,,0,19,19,86,1,stimuli/objects/trampoline.jpg,right,new,230,,,,,,,,
,,,,,,,,24,2021-11-26_12h14.12.466,premceCat2_ses-02_part-02_label-phase2,2020.2.10,MacIntel,60,,,,,right,1.1465,4,0.0005,,,,,,,,0,20,20,142,1,stimuli/objects/needlenosepliers01.jpg,right,new,286,,,,,,,,
,,,,,,,,24,2021-11-26_12h14.12.466,premceCat2_ses-02_part-02_label-phase2,2020.2.10,MacIntel,60,,,,,right,0.8866,4,0.6155,,,,,,,,0,21,21,44,1,stimuli/objects/toaster01.jpg,right,new,188,,,,,,,,
,,,,,,,,24,2021-11-26_12h14.12.466,premceCat2_ses-02_part-02_label-phase2,2020.2.10,MacIntel,60,,,,,left,2.0009,4,0.1217,left,1.3655,0,0,0,0,1,,,,,,,,,,,,,,,,,
,,,,,,,,24,2021-11-26_12h14.12.466,premceCat2_ses-02_part-02_label-phase2,2020.2.10,MacIntel,60,,,,,,,,,,,,,,,,0,22,22,118,1,stimuli/objects/pressurewasher.jpg,left,old,262,,,,,,,,
,,,,,,,,24,2021-11-26_12h14.12.466,premceCat2_ses-02_part-02_label-phase2,2020.2.10,MacIntel,60,,,,,left,1.7325,4,0.0728,left,1.2089,0,0,0,0,1,,,,,,,,,,,,,,,,,
,,,,,,,,24,2021-11-26_12h14.12.466,premceCat2_ses-02_part-02_label-phase2,2020.2.10,MacIntel,60,,,,,,,,,,,,,,,,0,23,23,7,1,stimuli/objects/handmixer01d.jpg,left,old,151,,,,,,,,
,,,,,,,,24,2021-11-26_12h14.12.466,premceCat2_ses-02_part-02_label-phase2,2020.2.10,MacIntel,60,,,,,right,1.6982,2,1.6607,,,,,,,,0,24,24,125,1,stimuli/objects/saw02b.jpg,left,old,269,,,,,,,,
,,,,,,,,24,2021-11-26_12h14.12.466,premceCat2_ses-02_part-02_label-phase2,2020.2.10,MacIntel,60,,,,,left,1.6166,4,0.0773,left,1.1985,0,0,0,0,1,,,,,,,,,,,,,,,,,
,,,,,,,,24,2021-11-26_12h14.12.466,premceCat2_ses-02_part-02_label-phase2,2020.2.10,MacIntel,60,,,,,,,,,,,,,,,,0,25,25,28,1,stimuli/objects/saladspinner.jpg,left,old,172,,,,,,,,
,,,,,,,,24,2021-11-26_12h14.12.466,premceCat2_ses-02_part-02_label-phase2,2020.2.10,MacIntel,60,,,,,left,1.3262,4,1.0548,left,0.9259,0,0,0,0,1,,,,,,,,,,,,,,,,,
,,,,,,,,24,2021-11-26_12h14.12.466,premceCat2_ses-02_part-02_label-phase2,2020.2.10,MacIntel,60,,,,,,,,,,,,,,,,0,26,26,139,1,stimuli/objects/measuringcup01.jpg,left,old,283,,,,,,,,
,,,,,,,,24,2021-11-26_12h14.12.466,premceCat2_ses-02_part-02_label-phase2,2020.2.10,MacIntel,60,,,,,right,1.3108,2,1.0454,,,,,,,,0,27,27,3,1,stimuli/objects/boxingglove01.jpg,right,new,147,,,,,,,,
,,,,,,,,24,2021-11-26_12h14.12.466,premceCat2_ses-02_part-02_label-phase2,2020.2.10,MacIntel,60,,,,,right,2.331,3,0.6494,,,,,,,,0,28,28,19,1,stimuli/objects/mug01.jpg,right,new,163,,,,,,,,
,,,,,,,,24,2021-11-26_12h14.12.466,premceCat2_ses-02_part-02_label-phase2,2020.2.10,MacIntel,60,,,,,right,1.6114,4,0.5605,,,,,,,,0,29,29,16,1,stimuli/objects/bottleopener01.jpg,right,new,160,,,,,,,,
,,,,,,,,24,2021-11-26_12h14.12.466,premceCat2_ses-02_part-02_label-phase2,2020.2.10,MacIntel,60,,,,,left,2.78,1,0.1243,right,0.9706,0,0,0,0,1,,,,,,,,,,,,,,,,,
,,,,,,,,24,2021-11-26_12h14.12.466,premceCat2_ses-02_part-02_label-phase2,2020.2.10,MacIntel,60,,,,,,,,,,,,,,,,0,30,30,12,1,stimuli/objects/fanheater.jpg,right,new,156,,,,,,,,
,,,,,,,,24,2021-11-26_12h14.12.466,premceCat2_ses-02_part-02_label-phase2,2020.2.10,MacIntel,60,,,,,left,2.037,4,1.3263,right,1.0009,0,0,0,0,1,,,,,,,,,,,,,,,,,
,,,,,,,,24,2021-11-26_12h14.12.466,premceCat2_ses-02_part-02_label-phase2,2020.2.10,MacIntel,60,,,,,,,,,,,,,,,,0,31,31,85,1,stimuli/objects/fan.jpg,left,old,229,,,,,,,,
,,,,,,,,24,2021-11-26_12h14.12.466,premceCat2_ses-02_part-02_label-phase2,2020.2.10,MacIntel,60,,,,,right,1.3121,4,0.7962,,,,,,,,0,32,32,98,1,stimuli/objects/cameracase01a.jpg,right,new,242,,,,,,,,
,,,,,,,,24,2021-11-26_12h14.12.466,premceCat2_ses-02_part-02_label-phase2,2020.2.10,MacIntel,60,,,,,left,2.0425,4,0.7903,left,0.8311,0,0,0,0,1,,,,,,,,,,,,,,,,,
,,,,,,,,24,2021-11-26_12h14.12.466,premceCat2_ses-02_part-02_label-phase2,2020.2.10,MacIntel,60,,,,,,,,,,,,,,,,0,33,33,71,1,stimuli/objects/anchor.jpg,left,old,215,,,,,,,,
,,,,,,,,24,2021-11-26_12h14.12.466,premceCat2_ses-02_part-02_label-phase2,2020.2.10,MacIntel,60,,,,,left,1.8408,4,0.9923,right,0.8936,0,0,0,0,1,,,,,,,,,,,,,,,,,
,,,,,,,,24,2021-11-26_12h14.12.466,premceCat2_ses-02_part-02_label-phase2,2020.2.10,MacIntel,60,,,,,,,,,,,,,,,,0,34,34,37,1,stimuli/objects/papershredder.jpg,left,old,181,,,,,,,,
,,,,,,,,24,2021-11-26_12h14.12.466,premceCat2_ses-02_part-02_label-phase2,2020.2.10,MacIntel,60,,,,,left,1.2656,4,0.0646,left,0.5442,0,0,0,0,1,,,,,,,,,,,,,,,,,
,,,,,,,,24,2021-11-26_12h14.12.466,premceCat2_ses-02_part-02_label-phase2,2020.2.10,MacIntel,60,,,,,,,,,,,,,,,,0,35,35,84,1,stimuli/objects/sportbag.jpg,left,old,228,,,,,,,,
,,,,,,,,24,2021-11-26_12h14.12.466,premceCat2_ses-02_part-02_label-phase2,2020.2.10,MacIntel,60,,,,,right,0.9734,4,0.8591,,,,,,,,0,36,36,15,1,stimuli/objects/computermouse06.jpg,right,new,159,,,,,,,,
,,,,,,,,24,2021-11-26_12h14.12.466,premceCat2_ses-02_part-02_label-phase2,2020.2.10,MacIntel,60,,,,,left,2.2626,1,0.1122,left,1.0063,0,0,0,0,1,,,,,,,,,,,,,,,,,
,,,,,,,,24,2021-11-26_12h14.12.466,premceCat2_ses-02_part-02_label-phase2,2020.2.10,MacIntel,60,,,,,,,,,,,,,,,,0,37,37,105,1,stimuli/objects/cork02.jpg,left,old,249,,,,,,,,
,,,,,,,,24,2021-11-26_12h14.12.466,premceCat2_ses-02_part-02_label-phase2,2020.2.10,MacIntel,60,,,,,left,1.7567,4,0.5736,right,0.3677,0,0,0,0,1,,,,,,,,,,,,,,,,,
,,,,,,,,24,2021-11-26_12h14.12.466,premceCat2_ses-02_part-02_label-phase2,2020.2.10,MacIntel,60,,,,,,,,,,,,,,,,0,38,38,18,1,stimuli/objects/dvdplayer.jpg,left,old,162,,,,,,,,
,,,,,,,,24,2021-11-26_12h14.12.466,premceCat2_ses-02_part-02_label-phase2,2020.2.10,MacIntel,60,,,,,left,1.1321,4,0.892,left,0.3164,0,0,0,0,1,,,,,,,,,,,,,,,,,
,,,,,,,,24,2021-11-26_12h14.12.466,premceCat2_ses-02_part-02_label-phase2,2020.2.10,MacIntel,60,,,,,,,,,,,,,,,,0,39,39,79,1,stimuli/objects/snowboard.jpg,left,old,223,,,,,,,,
,,,,,,,,24,2021-11-26_12h14.12.466,premceCat2_ses-02_part-02_label-phase2,2020.2.10,MacIntel,60,,,,,right,1.182,4,0.8793,,,,,,,,0,40,40,39,1,stimuli/objects/wafflemaker.jpg,right,new,183,,,,,,,,
,,,,,,,,24,2021-11-26_12h14.12.466,premceCat2_ses-02_part-02_label-phase2,2020.2.10,MacIntel,60,,,,,right,2.1422,1,0.4309,,,,,,,,0,41,41,124,1,stimuli/objects/basketball01.jpg,right,new,268,,,,,,,,
,,,,,,,,24,2021-11-26_12h14.12.466,premceCat2_ses-02_part-02_label-phase2,2020.2.10,MacIntel,60,,,,,right,1.3144,1,0.7022,,,,,,,,0,42,42,116,1,stimuli/objects/lockingplier.jpg,right,new,260,,,,,,,,
,,,,,,,,24,2021-11-26_12h14.12.466,premceCat2_ses-02_part-02_label-phase2,2020.2.10,MacIntel,60,,,,,right,0.8689,4,0.5188,,,,,,,,0,43,43,133,1,stimuli/objects/birdie.jpg,right,new,277,,,,,,,,
,,,,,,,,24,2021-11-26_12h14.12.466,premceCat2_ses-02_part-02_label-phase2,2020.2.10,MacIntel,60,,,,,right,0.9011,4,0.6757,,,,,,,,0,44,44,103,1,stimuli/objects/swissarmyknife01a.jpg,right,new,247,,,,,,,,
,,,,,,,,24,2021-11-26_12h14.12.466,premceCat2_ses-02_part-02_label-phase2,2020.2.10,MacIntel,60,,,,,right,1.1298,4,0.028,,,,,,,,0,45,45,14,1,stimuli/objects/canoepaddle02.jpg,left,old,158,,,,,,,,
,,,,,,,,24,2021-11-26_12h14.12.466,premceCat2_ses-02_part-02_label-phase2,2020.2.10,MacIntel,60,,,,,right,0.9751,4,0.1276,,,,,,,,0,46,46,69,1,stimuli/objects/straw.jpg,right,new,213,,,,,,,,
,,,,,,,,24,2021-11-26_12h14.12.466,premceCat2_ses-02_part-02_label-phase2,2020.2.10,MacIntel,60,,,,,right,1.4306,4,0.1032,,,,,,,,0,47,47,48,1,stimuli/objects/eggslicer.jpg,right,new,192,,,,,,,,
,,,,,,,,24,2021-11-26_12h14.12.466,premceCat2_ses-02_part-02_label-phase2,2020.2.10,MacIntel,60,,,,,left,2.6154,1,0.2317,left,1.1988,0,0,0,0,1,,,,,,,,,,,,,,,,,
,,,,,,,,24,2021-11-26_12h14.12.466,premceCat2_ses-02_part-02_label-phase2,2020.2.10,MacIntel,60,,,,,,,,,,,,,,,,0,48,48,81,1,stimuli/objects/grill.jpg,right,new,225,,,,,,,,
,,,,,,,,24,2021-11-26_12h14.12.466,premceCat2_ses-02_part-02_label-phase2,2020.2.10,MacIntel,60,,,,,left,2.0301,2,1.6268,right,0.8644,0,0,0,0,1,,,,,,,,,,,,,,,,,
,,,,,,,,24,2021-11-26_12h14.12.466,premceCat2_ses-02_part-02_label-phase2,2020.2.10,MacIntel,60,,,,,,,,,,,,,,,,0,49,49,67,1,stimuli/objects/nintendods.jpg,left,old,211,,,,,,,,
,,,,,,,,24,2021-11-26_12h14.12.466,premceCat2_ses-02_part-02_label-phase2,2020.2.10,MacIntel,60,,,,,left,2.463,3,0.5552,right,1.247,0,0,0,0,1,,,,,,,,,,,,,,,,,
,,,,,,,,24,2021-11-26_12h14.12.466,premceCat2_ses-02_part-02_label-phase2,2020.2.10,MacIntel,60,,,,,,,,,,,,,,,,0,50,50,34,1,stimuli/objects/kneepad01c.jpg,right,new,178,,,,,,,,
,,,,,,,,24,2021-11-26_12h14.12.466,premceCat2_ses-02_part-02_label-phase2,2020.2.10,MacIntel,60,,,,,left,1.3231,4,0.1309,right,0.37,0,0,0,0,1,,,,,,,,,,,,,,,,,
,,,,,,,,24,2021-11-26_12h14.12.466,premceCat2_ses-02_part-02_label-phase2,2020.2.10,MacIntel,60,,,,,,,,,,,,,,,,0,51,51,104,1,stimuli/objects/lectern01.jpg,left,old,248,,,,,,,,
,,,,,,,,24,2021-11-26_12h14.12.466,premceCat2_ses-02_part-02_label-phase2,2020.2.10,MacIntel,60,,,,,left,1.0529,4,0.7098,right,0.4503,0,0,0,0,1,,,,,,,,,,,,,,,,,
,,,,,,,,24,2021-11-26_12h14.12.466,premceCat2_ses-02_part-02_label-phase2,2020.2.10,MacIntel,60,,,,,,,,,,,,,,,,0,52,52,11,1,stimuli/objects/antenna.jpg,left,old,155,,,,,,,,
,,,,,,,,24,2021-11-26_12h14.12.466,premceCat2_ses-02_part-02_label-phase2,2020.2.10,MacIntel,60,,,,,right,2.2093,4,0.3446,,,,,,,,0,53,53,135,1,stimuli/objects/mortarandpestle.jpg,right,new,279,,,,,,,,
,,,,,,,,24,2021-11-26_12h14.12.466,premceCat2_ses-02_part-02_label-phase2,2020.2.10,MacIntel,60,,,,,right,1.7257,2,0.4328,,,,,,,,0,54,54,129,1,stimuli/objects/jigsaw.jpg,left,old,273,,,,,,,,
,,,,,,,,24,2021-11-26_12h14.12.466,premceCat2_ses-02_part-02_label-phase2,2020.2.10,MacIntel,60,,,,,left,1.435,4,0.3658,left,1.2947,0,0,0,0,1,,,,,,,,,,,,,,,,,
,,,,,,,,24,2021-11-26_12h14.12.466,premceCat2_ses-02_part-02_label-phase2,2020.2.10,MacIntel,60,,,,,,,,,,,,,,,,0,55,55,13,1,stimuli/objects/leafrake.jpg,left,old,157,,,,,,,,
,,,,,,,,24,2021-11-26_12h14.12.466,premceCat2_ses-02_part-02_label-phase2,2020.2.10,MacIntel,60,,,,,right,1.1688,2,0.4831,,,,,,,,0,56,56,91,1,stimuli/objects/cuttingpliers02.jpg,right,new,235,,,,,,,,
,,,,,,,,24,2021-11-26_12h14.12.466,premceCat2_ses-02_part-02_label-phase2,2020.2.10,MacIntel,60,,,,,right,1.5033,4,0.2421,,,,,,,,0,57,57,40,1,stimuli/objects/tablesaw.jpg,right,new,184,,,,,,,,
,,,,,,,,24,2021-11-26_12h14.12.466,premceCat2_ses-02_part-02_label-phase2,2020.2.10,MacIntel,60,,,,,left,1.9495,3,0.062,right,0.4511,0,0,0,0,1,,,,,,,,,,,,,,,,,
,,,,,,,,24,2021-11-26_12h14.12.466,premceCat2_ses-02_part-02_label-phase2,2020.2.10,MacIntel,60,,,,,,,,,,,,,,,,0,58,58,96,1,stimuli/objects/knifesharpener.jpg,left,old,240,,,,,,,,
,,,,,,,,24,2021-11-26_12h14.12.466,premceCat2_ses-02_part-02_label-phase2,2020.2.10,MacIntel,60,,,,,right,1.1605,4,0.3267,,,,,,,,0,59,59,121,1,stimuli/objects/parachute.jpg,right,new,265,,,,,,,,
,,,,,,,,24,2021-11-26_12h14.12.466,premceCat2_ses-02_part-02_label-phase2,2020.2.10,MacIntel,60,,,,,right,0.8678,4,0.1108,,,,,,,,0,60,60,138,1,stimuli/objects/beermug01a.jpg,right,new,282,,,,,,,,
,,,,,,,,24,2021-11-26_12h14.12.466,premceCat2_ses-02_part-02_label-phase2,2020.2.10,MacIntel,60,,,,,left,1.7241,3,0.1519,right,1.1769,0,0,0,0,1,,,,,,,,,,,,,,,,,
,,,,,,,,24,2021-11-26_12h14.12.466,premceCat2_ses-02_part-02_label-phase2,2020.2.10,MacIntel,60,,,,,,,,,,,,,,,,0,61,61,130,1,stimuli/objects/scanner.jpg,left,old,274,,,,,,,,
,,,,,,,,24,2021-11-26_12h14.12.466,premceCat2_ses-02_part-02_label-phase2,2020.2.10,MacIntel,60,,,,,right,1.9945,3,0.8151,,,,,,,,0,62,62,26,1,stimuli/objects/flashlight02b.jpg,right,new,170,,,,,,,,
,,,,,,,,24,2021-11-26_12h14.12.466,premceCat2_ses-02_part-02_label-phase2,2020.2.10,MacIntel,60,,,,,left,1.473,4,0.1589,left,1.1577,0,0,0,0,1,,,,,,,,,,,,,,,,,
,,,,,,,,24,2021-11-26_12h14.12.466,premceCat2_ses-02_part-02_label-phase2,2020.2.10,MacIntel,60,,,,,,,,,,,,,,,,0,63,63,117,1,stimuli/objects/iceskate.jpg,left,old,261,,,,,,,,
,,,,,,,,24,2021-11-26_12h14.12.466,premceCat2_ses-02_part-02_label-phase2,2020.2.10,MacIntel,60,,,,,left,1.8087,4,0.3454,left,0.8424,0,0,0,0,1,,,,,,,,,,,,,,,,,
,,,,,,,,24,2021-11-26_12h14.12.466,premceCat2_ses-02_part-02_label-phase2,2020.2.10,MacIntel,60,,,,,,,,,,,,,,,,0,64,64,63,1,stimuli/objects/watercooler.jpg,left,old,207,,,,,,,,
,,,,,,,,24,2021-11-26_12h14.12.466,premceCat2_ses-02_part-02_label-phase2,2020.2.10,MacIntel,60,,,,,left,1.8314,3,0.4284,right,0.4404,0,0,0,0,1,,,,,,,,,,,,,,,,,
,,,,,,,,24,2021-11-26_12h14.12.466,premceCat2_ses-02_part-02_label-phase2,2020.2.10,MacIntel,60,,,,,,,,,,,,,,,,0,65,65,8,1,stimuli/objects/sledgehammer.jpg,left,old,152,,,,,,,,
,,,,,,,,24,2021-11-26_12h14.12.466,premceCat2_ses-02_part-02_label-phase2,2020.2.10,MacIntel,60,,,,,left,1.1864,4,0.5511,left,0.8587,0,0,0,0,1,,,,,,,,,,,,,,,,,
,,,,,,,,24,2021-11-26_12h14.12.466,premceCat2_ses-02_part-02_label-phase2,2020.2.10,MacIntel,60,,,,,,,,,,,,,,,,0,66,66,10,1,stimuli/objects/downhillski.jpg,left,old,154,,,,,,,,
,,,,,,,,24,2021-11-26_12h14.12.466,premceCat2_ses-02_part-02_label-phase2,2020.2.10,MacIntel,60,,,,,right,1.193,4,0.2424,,,,,,,,0,67,67,24,1,stimuli/objects/monitor.jpg,right,new,168,,,,,,,,
,,,,,,,,24,2021-11-26_12h14.12.466,premceCat2_ses-02_part-02_label-phase2,2020.2.10,MacIntel,60,,,,,left,1.3602,4,0.0006,right,0.4433,0,0,0,0,1,,,,,,,,,,,,,,,,,
,,,,,,,,24,2021-11-26_12h14.12.466,premceCat2_ses-02_part-02_label-phase2,2020.2.10,MacIntel,60,,,,,,,,,,,,,,,,0,68,68,61,1,stimuli/objects/setsquare.jpg,left,old,205,,,,,,,,
,,,,,,,,24,2021-11-26_12h14.12.466,premceCat2_ses-02_part-02_label-phase2,2020.2.10,MacIntel,60,,,,,right,1.2953,4,0.1909,,,,,,,,0,69,69,32,1,stimuli/objects/potatomasher03b.jpg,left,old,176,,,,,,,,
,,,,,,,,24,2021-11-26_12h14.12.466,premceCat2_ses-02_part-02_label-phase2,2020.2.10,MacIntel,60,,,,,left,1.5969,4,1.8855,right,0.8496,0,0,0,0,1,,,,,,,,,,,,,,,,,
,,,,,,,,24,2021-11-26_12h14.12.466,premceCat2_ses-02_part-02_label-phase2,2020.2.10,MacIntel,60,,,,,,,,,,,,,,,,0,70,70,65,1,stimuli/objects/hoe.jpg,left,old,209,,,,,,,,
,,,,,,,,24,2021-11-26_12h14.12.466,premceCat2_ses-02_part-02_label-phase2,2020.2.10,MacIntel,60,,,,,left,1.8566,2,0.1126,left,1.7777,0,0,0,0,1,,,,,,,,,,,,,,,,,
,,,,,,,,24,2021-11-26_12h14.12.466,premceCat2_ses-02_part-02_label-phase2,2020.2.10,MacIntel,60,,,,,,,,,,,,,,,,0,71,71,89,1,stimuli/objects/pastaspoon.jpg,left,old,233,,,,,,,,
,,,,,,,,24,2021-11-26_12h14.12.466,premceCat2_ses-02_part-02_label-phase2,2020.2.10,MacIntel,60,,,,,left,2.8103,1,0.3399,left,0.929,0,0,0,0,1,,,,,,,,,,,,,,,,,
,,,,,,,,24,2021-11-26_12h14.12.466,premceCat2_ses-02_part-02_label-phase2,2020.2.10,MacIntel,60,,,,,,,,,,,,,,,,0,72,72,23,1,stimuli/objects/baseballglove.jpg,left,old,167,,,,,,,,
,,,,,,,,24,2021-11-26_12h14.12.466,premceCat2_ses-02_part-02_label-phase2,2020.2.10,MacIntel,60,,,,,left,1.658,1,0.6576,right,0.3526,0,0,0,0,1,,,,,,,,,,,,,,,,,
,,,,,,,,24,2021-11-26_12h14.12.466,premceCat2_ses-02_part-02_label-phase2,2020.2.10,MacIntel,60,,,,,,,,,,,,,,,,0,73,73,36,1,stimuli/objects/loppingshears.jpg,right,new,180,,,,,,,,
,,,,,,,,24,2021-11-26_12h14.12.466,premceCat2_ses-02_part-02_label-phase2,2020.2.10,MacIntel,60,,,,,left,1.5428,4,0.2916,right,5.5915,0,0,0,0,1,,,,,,,,,,,,,,,,,
,,,,,,,,24,2021-11-26_12h14.12.466,premceCat2_ses-02_part-02_label-phase2,2020.2.10,MacIntel,60,,,,,,,,,,,,,,,,0,74,74,27,1,stimuli/objects/wateringcan.jpg,left,old,171,,,,,,,,
,,,,,,,,24,2021-11-26_12h14.12.466,premceCat2_ses-02_part-02_label-phase2,2020.2.10,MacIntel,60,,,,,right,1.2576,4,1.6895,,,,,,,,0,75,75,66,1,stimuli/objects/heatpump.jpg,right,new,210,,,,,,,,
,,,,,,,,24,2021-11-26_12h14.12.466,premceCat2_ses-02_part-02_label-phase2,2020.2.10,MacIntel,60,,,,,right,2.6495,1,0.1128,,,,,,,,0,76,76,64,1,stimuli/objects/fishingrod.jpg,left,old,208,,,,,,,,
,,,,,,,,24,2021-11-26_12h14.12.466,premceCat2_ses-02_part-02_label-phase2,2020.2.10,MacIntel,60,,,,,right,3.0671,2,0.3805,,,,,,,,0,77,77,77,1,stimuli/objects/thermos.jpg,left,old,221,,,,,,,,
,,,,,,,,24,2021-11-26_12h14.12.466,premceCat2_ses-02_part-02_label-phase2,2020.2.10,MacIntel,60,,,,,right,1.2879,4,0.4122,,,,,,,,0,78,78,87,1,stimuli/objects/wiicontroller.jpg,right,new,231,,,,,,,,
,,,,,,,,24,2021-11-26_12h14.12.466,premceCat2_ses-02_part-02_label-phase2,2020.2.10,MacIntel,60,,,,,left,2.1733,1,1.7301,right,1.1513,0,0,0,0,1,,,,,,,,,,,,,,,,,
,,,,,,,,24,2021-11-26_12h14.12.466,premceCat2_ses-02_part-02_label-phase2,2020.2.10,MacIntel,60,,,,,,,,,,,,,,,,0,79,79,108,1,stimuli/objects/slidetray.jpg,left,old,252,,,,,,,,
,,,,,,,,24,2021-11-26_12h14.12.466,premceCat2_ses-02_part-02_label-phase2,2020.2.10,MacIntel,60,,,,,left,3.6263,1,1.1957,left,1.2872,0,0,0,0,1,,,,,,,,,,,,,,,,,
,,,,,,,,24,2021-11-26_12h14.12.466,premceCat2_ses-02_part-02_label-phase2,2020.2.10,MacIntel,60,,,,,,,,,,,,,,,,0,80,80,126,1,stimuli/objects/shinpad.jpg,left,old,270,,,,,,,,
,,,,,,,,24,2021-11-26_12h14.12.466,premceCat2_ses-02_part-02_label-phase2,2020.2.10,MacIntel,60,,,,,right,2.5881,1,0.8157,,,,,,,,0,81,81,109,1,stimuli/objects/peeler01.jpg,left,old,253,,,,,,,,
,,,,,,,,24,2021-11-26_12h14.12.466,premceCat2_ses-02_part-02_label-phase2,2020.2.10,MacIntel,60,,,,,left,1.4146,4,1.4889,left,0.6435,0,0,0,0,1,,,,,,,,,,,,,,,,,
,,,,,,,,24,2021-11-26_12h14.12.466,premceCat2_ses-02_part-02_label-phase2,2020.2.10,MacIntel,60,,,,,,,,,,,,,,,,0,82,82,80,1,stimuli/objects/barbecue03.jpg,right,new,224,,,,,,,,
,,,,,,,,24,2021-11-26_12h14.12.466,premceCat2_ses-02_part-02_label-phase2,2020.2.10,MacIntel,60,,,,,left,1.471,2,1.252,left,0.8304,0,0,0,0,1,,,,,,,,,,,,,,,,,
,,,,,,,,24,2021-11-26_12h14.12.466,premceCat2_ses-02_part-02_label-phase2,2020.2.10,MacIntel,60,,,,,,,,,,,,,,,,0,83,83,38,1,stimuli/objects/rollingpin01a.jpg,left,old,182,,,,,,,,
,,,,,,,,24,2021-11-26_12h14.12.466,premceCat2_ses-02_part-02_label-phase2,2020.2.10,MacIntel,60,,,,,right,1.0012,4,0.455,,,,,,,,0,84,84,60,1,stimuli/objects/kite.jpg,right,new,204,,,,,,,,
,,,,,,,,24,2021-11-26_12h14.12.466,premceCat2_ses-02_part-02_label-phase2,2020.2.10,MacIntel,60,,,,,right,1.1159,4,0.2473,,,,,,,,0,85,85,43,1,stimuli/objects/bowrake.jpg,right,new,187,,,,,,,,
,,,,,,,,24,2021-11-26_12h14.12.466,premceCat2_ses-02_part-02_label-phase2,2020.2.10,MacIntel,60,,,,,left,2.162,4,0.0835,right,0.4748,0,0,0,0,1,,,,,,,,,,,,,,,,,
,,,,,,,,24,2021-11-26_12h14.12.466,premceCat2_ses-02_part-02_label-phase2,2020.2.10,MacIntel,60,,,,,,,,,,,,,,,,0,86,86,22,1,stimuli/objects/pipewrench.jpg,left,old,166,,,,,,,,
,,,,,,,,24,2021-11-26_12h14.12.466,premceCat2_ses-02_part-02_label-phase2,2020.2.10,MacIntel,60,,,,,right,1.6477,2,0.9503,,,,,,,,0,87,87,51,1,stimuli/objects/cheeseknife01.jpg,right,new,195,,,,,,,,
,,,,,,,,24,2021-11-26_12h14.12.466,premceCat2_ses-02_part-02_label-phase2,2020.2.10,MacIntel,60,,,,,left,1.5111,3,0.6567,right,0.4623,0,0,0,0,1,,,,,,,,,,,,,,,,,
,,,,,,,,24,2021-11-26_12h14.12.466,premceCat2_ses-02_part-02_label-phase2,2020.2.10,MacIntel,60,,,,,,,,,,,,,,,,0,88,88,33,1,stimuli/objects/ethernetcable02.jpg,left,old,177,,,,,,,,
,,,,,,,,24,2021-11-26_12h14.12.466,premceCat2_ses-02_part-02_label-phase2,2020.2.10,MacIntel,60,,,,,right,1.1306,4,0.1682,,,,,,,,0,89,89,101,1,stimuli/objects/lifejacket.jpg,right,new,245,,,,,,,,
,,,,,,,,24,2021-11-26_12h14.12.466,premceCat2_ses-02_part-02_label-phase2,2020.2.10,MacIntel,60,,,,,left,1.7809,4,0.9706,left,1.0089,0,0,0,0,1,,,,,,,,,,,,,,,,,
,,,,,,,,24,2021-11-26_12h14.12.466,premceCat2_ses-02_part-02_label-phase2,2020.2.10,MacIntel,60,,,,,,,,,,,,,,,,0,90,90,45,1,stimuli/objects/bikelock.jpg,left,old,189,,,,,,,,
,,,,,,,,24,2021-11-26_12h14.12.466,premceCat2_ses-02_part-02_label-phase2,2020.2.10,MacIntel,60,,,,,right,1.1959,4,0.3302,,,,,,,,0,91,91,41,1,stimuli/objects/flask.jpg,right,new,185,,,,,,,,
,,,,,,,,24,2021-11-26_12h14.12.466,premceCat2_ses-02_part-02_label-phase2,2020.2.10,MacIntel,60,,,,,left,1.2903,4,0.0285,right,0.4187,0,0,0,0,1,,,,,,,,,,,,,,,,,
,,,,,,,,24,2021-11-26_12h14.12.466,premceCat2_ses-02_part-02_label-phase2,2020.2.10,MacIntel,60,,,,,,,,,,,,,,,,0,92,92,75,1,stimuli/objects/ladder.jpg,left,old,219,,,,,,,,
,,,,,,,,24,2021-11-26_12h14.12.466,premceCat2_ses-02_part-02_label-phase2,2020.2.10,MacIntel,60,,,,,right,2.0256,4,0.035,,,,,,,,0,93,93,127,1,stimuli/objects/skigoggles01.jpg,right,new,271,,,,,,,,
,,,,,,,,24,2021-11-26_12h14.12.466,premceCat2_ses-02_part-02_label-phase2,2020.2.10,MacIntel,60,,,,,right,1.65,4,0.287,,,,,,,,0,94,94,9,1,stimuli/objects/alarmsystem.jpg,right,new,153,,,,,,,,
,,,,,,,,24,2021-11-26_12h14.12.466,premceCat2_ses-02_part-02_label-phase2,2020.2.10,MacIntel,60,,,,,left,1.8336,4,0.1307,left,0.8716,0,0,0,0,1,,,,,,,,,,,,,,,,,
,,,,,,,,24,2021-11-26_12h14.12.466,premceCat2_ses-02_part-02_label-phase2,2020.2.10,MacIntel,60,,,,,,,,,,,,,,,,0,95,95,50,1,stimuli/objects/magneticcompass.jpg,left,old,194,,,,,,,,
,,,,,,,,24,2021-11-26_12h14.12.466,premceCat2_ses-02_part-02_label-phase2,2020.2.10,MacIntel,60,,,,,left,1.8711,1,0.8451,right,0.5501,0,0,0,0,1,,,,,,,,,,,,,,,,,
,,,,,,,,24,2021-11-26_12h14.12.466,premceCat2_ses-02_part-02_label-phase2,2020.2.10,MacIntel,60,,,,,,,,,,,,,,,,0,96,96,113,1,stimuli/objects/boltcutter.jpg,left,old,257,,,,,,,,
,,,,,,,,24,2021-11-26_12h14.12.466,premceCat2_ses-02_part-02_label-phase2,2020.2.10,MacIntel,60,,,,,right,1.4275,4,0.0474,,,,,,,,0,97,97,95,1,stimuli/objects/tennisball01b.jpg,right,new,239,,,,,,,,
,,,,,,,,24,2021-11-26_12h14.12.466,premceCat2_ses-02_part-02_label-phase2,2020.2.10,MacIntel,60,,,,,right,1.1314,4,0.0725,,,,,,,,0,98,98,137,1,stimuli/objects/nutcracker01.jpg,right,new,281,,,,,,,,
,,,,,,,,24,2021-11-26_12h14.12.466,premceCat2_ses-02_part-02_label-phase2,2020.2.10,MacIntel,60,,,,,right,1.0701,4,1.6748,,,,,,,,0,99,99,35,1,stimuli/objects/stroller.jpg,right,new,179,,,,,,,,
,,,,,,,,24,2021-11-26_12h14.12.466,premceCat2_ses-02_part-02_label-phase2,2020.2.10,MacIntel,60,,,,,left,1.2607,4,0.1462,right,0.6118,0,0,0,0,1,,,,,,,,,,,,,,,,,
,,,,,,,,24,2021-11-26_12h14.12.466,premceCat2_ses-02_part-02_label-phase2,2020.2.10,MacIntel,60,,,,,,,,,,,,,,,,0,100,100,4,1,stimuli/objects/cassettetape01a.jpg,right,new,148,,,,,,,,
,,,,,,,,24,2021-11-26_12h14.12.466,premceCat2_ses-02_part-02_label-phase2,2020.2.10,MacIntel,60,,,,,left,2.2444,4,1.6977,right,0.7225,0,0,0,0,1,,,,,,,,,,,,,,,,,
,,,,,,,,24,2021-11-26_12h14.12.466,premceCat2_ses-02_part-02_label-phase2,2020.2.10,MacIntel,60,,,,,,,,,,,,,,,,0,101,101,112,1,stimuli/objects/filmroll.jpg,left,old,256,,,,,,,,
,,,,,,,,24,2021-11-26_12h14.12.466,premceCat2_ses-02_part-02_label-phase2,2020.2.10,MacIntel,60,,,,,right,1.0574,4,1.0453,,,,,,,,0,102,102,110,1,stimuli/objects/bikewheel.jpg,left,old,254,,,,,,,,
,,,,,,,,24,2021-11-26_12h14.12.466,premceCat2_ses-02_part-02_label-phase2,2020.2.10,MacIntel,60,,,,,right,0.7899,4,0.0399,,,,,,,,0,103,103,111,1,stimuli/objects/diaperbag.jpg,right,new,255,,,,,,,,
,,,,,,,,24,2021-11-26_12h14.12.466,premceCat2_ses-02_part-02_label-phase2,2020.2.10,MacIntel,60,,,,,left,1.4406,4,1.104,right,0.8887,0,0,0,0,1,,,,,,,,,,,,,,,,,
,,,,,,,,24,2021-11-26_12h14.12.466,premceCat2_ses-02_part-02_label-phase2,2020.2.10,MacIntel,60,,,,,,,,,,,,,,,,0,104,104,134,1,stimuli/objects/filmnegative.jpg,left,old,278,,,,,,,,
,,,,,,,,24,2021-11-26_12h14.12.466,premceCat2_ses-02_part-02_label-phase2,2020.2.10,MacIntel,60,,,,,left,1.3296,4,0.0326,left,0.8327,0,0,0,0,1,,,,,,,,,,,,,,,,,
,,,,,,,,24,2021-11-26_12h14.12.466,premceCat2_ses-02_part-02_label-phase2,2020.2.10,MacIntel,60,,,,,,,,,,,,,,,,0,105,105,141,1,stimuli/objects/coffeepot03a.jpg,left,old,285,,,,,,,,
,,,,,,,,24,2021-11-26_12h14.12.466,premceCat2_ses-02_part-02_label-phase2,2020.2.10,MacIntel,60,,,,,right,1.068,4,0.4703,,,,,,,,0,106,106,107,1,stimuli/objects/dolly01.jpg,right,new,251,,,,,,,,
,,,,,,,,24,2021-11-26_12h14.12.466,premceCat2_ses-02_part-02_label-phase2,2020.2.10,MacIntel,60,,,,,right,1.3399,2,0.328,,,,,,,,0,107,107,49,1,stimuli/objects/cakeplatter.jpg,right,new,193,,,,,,,,
,,,,,,,,24,2021-11-26_12h14.12.466,premceCat2_ses-02_part-02_label-phase2,2020.2.10,MacIntel,60,,,,,left,1.2185,4,0.045,right,1.1828,0,0,0,0,1,,,,,,,,,,,,,,,,,
,,,,,,,,24,2021-11-26_12h14.12.466,premceCat2_ses-02_part-02_label-phase2,2020.2.10,MacIntel,60,,,,,,,,,,,,,,,,0,108,108,31,1,stimuli/objects/outdoorheater.jpg,left,old,175,,,,,,,,
,,,,,,,,24,2021-11-26_12h14.12.466,premceCat2_ses-02_part-02_label-phase2,2020.2.10,MacIntel,60,,,,,right,1.6124,1,0.092,,,,,,,,0,109,109,122,1,stimuli/objects/hockeystick.jpg,right,new,266,,,,,,,,
,,,,,,,,24,2021-11-26_12h14.12.466,premceCat2_ses-02_part-02_label-phase2,2020.2.10,MacIntel,60,,,,,right,0.9967,2,0.4926,,,,,,,,0,110,110,83,1,stimuli/objects/icecubetray01a.jpg,right,new,227,,,,,,,,
,,,,,,,,24,2021-11-26_12h14.12.466,premceCat2_ses-02_part-02_label-phase2,2020.2.10,MacIntel,60,,,,,left,1.2847,4,0.0007,left,0.4321,0,0,0,0,1,,,,,,,,,,,,,,,,,
,,,,,,,,24,2021-11-26_12h14.12.466,premceCat2_ses-02_part-02_label-phase2,2020.2.10,MacIntel,60,,,,,,,,,,,,,,,,0,111,111,97,1,stimuli/objects/shotglass.jpg,left,old,241,,,,,,,,
,,,,,,,,24,2021-11-26_12h14.12.466,premceCat2_ses-02_part-02_label-phase2,2020.2.10,MacIntel,60,,,,,right,1.2682,2,0.3535,,,,,,,,0,112,112,55,1,stimuli/objects/fonduefork01.jpg,right,new,199,,,,,,,,
,,,,,,,,24,2021-11-26_12h14.12.466,premceCat2_ses-02_part-02_label-phase2,2020.2.10,MacIntel,60,,,,,left,1.3431,4,0.0622,left,1.7431,0,0,0,0,1,,,,,,,,,,,,,,,,,
,,,,,,,,24,2021-11-26_12h14.12.466,premceCat2_ses-02_part-02_label-phase2,2020.2.10,MacIntel,60,,,,,,,,,,,,,,,,0,113,113,53,1,stimuli/objects/chainsaw.jpg,left,old,197,,,,,,,,
,,,,,,,,24,2021-11-26_12h14.12.466,premceCat2_ses-02_part-02_label-phase2,2020.2.10,MacIntel,60,,,,,left,1.6555,4,0.0006,left,0.6471,0,0,0,0,1,,,,,,,,,,,,,,,,,
,,,,,,,,24,2021-11-26_12h14.12.466,premceCat2_ses-02_part-02_label-phase2,2020.2.10,MacIntel,60,,,,,,,,,,,,,,,,0,114,114,42,1,stimuli/objects/tennisracket.jpg,right,new,186,,,,,,,,
,,,,,,,,24,2021-11-26_12h14.12.466,premceCat2_ses-02_part-02_label-phase2,2020.2.10,MacIntel,60,,,,,right,1.8077,1,0.4693,,,,,,,,0,115,115,30,1,stimuli/objects/halogenlightbulb.jpg,right,new,174,,,,,,,,
,,,,,,,,24,2021-11-26_12h14.12.466,premceCat2_ses-02_part-02_label-phase2,2020.2.10,MacIntel,60,,,,,left,1.5363,4,1.8144,left,0.8968,0,0,0,0,1,,,,,,,,,,,,,,,,,
,,,,,,,,24,2021-11-26_12h14.12.466,premceCat2_ses-02_part-02_label-phase2,2020.2.10,MacIntel,60,,,,,,,,,,,,,,,,0,116,116,74,1,stimuli/objects/poolnet.jpg,left,old,218,,,,,,,,
,,,,,,,,24,2021-11-26_12h14.12.466,premceCat2_ses-02_part-02_label-phase2,2020.2.10,MacIntel,60,,,,,right,1.2632,4,0.5222,,,,,,,,0,117,117,94,1,stimuli/objects/file.jpg,right,new,238,,,,,,,,
,,,,,,,,24,2021-11-26_12h14.12.466,premceCat2_ses-02_part-02_label-phase2,2020.2.10,MacIntel,60,,,,,left,1.0584,4,0.247,left,0.3267,0,0,0,0,1,,,,,,,,,,,,,,,,,
,,,,,,,,24,2021-11-26_12h14.12.466,premceCat2_ses-02_part-02_label-phase2,2020.2.10,MacIntel,60,,,,,,,,,,,,,,,,0,118,118,58,1,stimuli/objects/ellipticalmachine.jpg,left,old,202,,,,,,,,
,,,,,,,,24,2021-11-26_12h14.12.466,premceCat2_ses-02_part-02_label-phase2,2020.2.10,MacIntel,60,,,,,left,3.1126,4,1.8766,left,0.4296,0,0,0,0,1,,,,,,,,,,,,,,,,,
,,,,,,,,24,2021-11-26_12h14.12.466,premceCat2_ses-02_part-02_label-phase2,2020.2.10,MacIntel,60,,,,,,,,,,,,,,,,0,119,119,62,1,stimuli/objects/spoon01.jpg,left,old,206,,,,,,,,
,,,,,,,,24,2021-11-26_12h14.12.466,premceCat2_ses-02_part-02_label-phase2,2020.2.10,MacIntel,60,,,,,right,1.1661,4,0.0754,,,,,,,,0,120,120,78,1,stimuli/objects/lightswitch01.jpg,right,new,222,,,,,,,,
,,,,,,,,24,2021-11-26_12h14.12.466,premceCat2_ses-02_part-02_label-phase2,2020.2.10,MacIntel,60,,,,,right,1.6181,1,0.4534,,,,,,,,0,121,121,93,1,stimuli/objects/axe01.jpg,left,old,237,,,,,,,,
,,,,,,,,24,2021-11-26_12h14.12.466,premceCat2_ses-02_part-02_label-phase2,2020.2.10,MacIntel,60,,,,,right,1.2963,2,0.2762,,,,,,,,0,122,122,132,1,stimuli/objects/wirestripper.jpg,right,new,276,,,,,,,,
,,,,,,,,24,2021-11-26_12h14.12.466,premceCat2_ses-02_part-02_label-phase2,2020.2.10,MacIntel,60,,,,,left,0.891,4,0.001,left,0.3707,0,0,0,0,1,,,,,,,,,,,,,,,,,
,,,,,,,,24,2021-11-26_12h14.12.466,premceCat2_ses-02_part-02_label-phase2,2020.2.10,MacIntel,60,,,,,,,,,,,,,,,,0,123,123,136,1,stimuli/objects/exercisebike.jpg,left,old,280,,,,,,,,
,,,,,,,,24,2021-11-26_12h14.12.466,premceCat2_ses-02_part-02_label-phase2,2020.2.10,MacIntel,60,,,,,left,1.3014,4,0.683,right,0.3337,0,0,0,0,1,,,,,,,,,,,,,,,,,
,,,,,,,,24,2021-11-26_12h14.12.466,premceCat2_ses-02_part-02_label-phase2,2020.2.10,MacIntel,60,,,,,,,,,,,,,,,,0,124,124,72,1,stimuli/objects/wheel01.jpg,left,old,216,,,,,,,,
,,,,,,,,24,2021-11-26_12h14.12.466,premceCat2_ses-02_part-02_label-phase2,2020.2.10,MacIntel,60,,,,,right,1.0299,4,0.001,,,,,,,,0,125,125,2,1,stimuli/objects/wetfloorsign.jpg,right,new,146,,,,,,,,
,,,,,,,,24,2021-11-26_12h14.12.466,premceCat2_ses-02_part-02_label-phase2,2020.2.10,MacIntel,60,,,,,right,0.9173,4,0.621,,,,,,,,0,126,126,120,1,stimuli/objects/tent.jpg,right,new,264,,,,,,,,
,,,,,,,,24,2021-11-26_12h14.12.466,premceCat2_ses-02_part-02_label-phase2,2020.2.10,MacIntel,60,,,,,left,1.0987,4,0.9418,left,0.3168,0,0,0,0,1,,,,,,,,,,,,,,,,,
,,,,,,,,24,2021-11-26_12h14.12.466,premceCat2_ses-02_part-02_label-phase2,2020.2.10,MacIntel,60,,,,,,,,,,,,,,,,0,127,127,92,1,stimuli/objects/gluetube.jpg,left,old,236,,,,,,,,
,,,,,,,,24,2021-11-26_12h14.12.466,premceCat2_ses-02_part-02_label-phase2,2020.2.10,MacIntel,60,,,,,right,1.045,2,0.1314,,,,,,,,0,128,128,57,1,stimuli/objects/soccerball.jpg,left,old,201,,,,,,,,
,,,,,,,,24,2021-11-26_12h14.12.466,premceCat2_ses-02_part-02_label-phase2,2020.2.10,MacIntel,60,,,,,left,0.927,4,0.3478,right,0.293,0,0,0,0,1,,,,,,,,,,,,,,,,,
,,,,,,,,24,2021-11-26_12h14.12.466,premceCat2_ses-02_part-02_label-phase2,2020.2.10,MacIntel,60,,,,,,,,,,,,,,,,0,129,129,54,1,stimuli/objects/stubbywrench01a.jpg,left,old,198,,,,,,,,
,,,,,,,,24,2021-11-26_12h14.12.466,premceCat2_ses-02_part-02_label-phase2,2020.2.10,MacIntel,60,,,,,left,1.0997,4,0.5965,left,0.3287,0,0,0,0,1,,,,,,,,,,,,,,,,,
,,,,,,,,24,2021-11-26_12h14.12.466,premceCat2_ses-02_part-02_label-phase2,2020.2.10,MacIntel,60,,,,,,,,,,,,,,,,0,130,130,56,1,stimuli/objects/hourglass.jpg,left,old,200,,,,,,,,
,,,,,,,,24,2021-11-26_12h14.12.466,premceCat2_ses-02_part-02_label-phase2,2020.2.10,MacIntel,60,,,,,left,0.9621,4,0.7276,right,0.3681,0,0,0,0,1,,,,,,,,,,,,,,,,,
,,,,,,,,24,2021-11-26_12h14.12.466,premceCat2_ses-02_part-02_label-phase2,2020.2.10,MacIntel,60,,,,,,,,,,,,,,,,0,131,131,73,1,stimuli/objects/weight01.jpg,left,old,217,,,,,,,,
,,,,,,,,24,2021-11-26_12h14.12.466,premceCat2_ses-02_part-02_label-phase2,2020.2.10,MacIntel,60,,,,,right,0.9079,4,0.2926,,,,,,,,0,132,132,82,1,stimuli/objects/shopvac.jpg,right,new,226,,,,,,,,
,,,,,,,,24,2021-11-26_12h14.12.466,premceCat2_ses-02_part-02_label-phase2,2020.2.10,MacIntel,60,,,,,left,1.9138,1,0.8071,left,0.8649,0,0,0,0,1,,,,,,,,,,,,,,,,,
,,,,,,,,24,2021-11-26_12h14.12.466,premceCat2_ses-02_part-02_label-phase2,2020.2.10,MacIntel,60,,,,,,,,,,,,,,,,0,133,133,52,1,stimuli/objects/extensioncord.jpg,left,old,196,,,,,,,,
,,,,,,,,24,2021-11-26_12h14.12.466,premceCat2_ses-02_part-02_label-phase2,2020.2.10,MacIntel,60,,,,,right,1.6913,2,0.2492,,,,,,,,0,134,134,140,1,stimuli/objects/wineglass01.jpg,right,new,284,,,,,,,,
,,,,,,,,24,2021-11-26_12h14.12.466,premceCat2_ses-02_part-02_label-phase2,2020.2.10,MacIntel,60,,,,,right,1.3958,2,0.0007,,,,,,,,0,135,135,21,1,stimuli/objects/adjustablewrench01b.jpg,left,old,165,,,,,,,,
,,,,,,,,24,2021-11-26_12h14.12.466,premceCat2_ses-02_part-02_label-phase2,2020.2.10,MacIntel,60,,,,,left,1.2706,4,0.7957,left,0.9229,0,0,0,0,1,,,,,,,,,,,,,,,,,
,,,,,,,,24,2021-11-26_12h14.12.466,premceCat2_ses-02_part-02_label-phase2,2020.2.10,MacIntel,60,,,,,,,,,,,,,,,,0,136,136,25,1,stimuli/objects/gravyboat.jpg,left,old,169,,,,,,,,
,,,,,,,,24,2021-11-26_12h14.12.466,premceCat2_ses-02_part-02_label-phase2,2020.2.10,MacIntel,60,,,,,right,1.0568,3,1.202,,,,,,,,0,137,137,68,1,stimuli/objects/ladle02a.jpg,right,new,212,,,,,,,,
,,,,,,,,24,2021-11-26_12h14.12.466,premceCat2_ses-02_part-02_label-phase2,2020.2.10,MacIntel,60,,,,,left,1.1649,4,0.4755,left,0.0507,0,0,0,0,1,,,,,,,,,,,,,,,,,
,,,,,,,,24,2021-11-26_12h14.12.466,premceCat2_ses-02_part-02_label-phase2,2020.2.10,MacIntel,60,,,,,,,,,,,,,,,,0,138,138,115,1,stimuli/objects/dishrack.jpg,left,old,259,,,,,,,,
,,,,,,,,24,2021-11-26_12h14.12.466,premceCat2_ses-02_part-02_label-phase2,2020.2.10,MacIntel,60,,,,,left,2.3657,4,0.41,left,0.5642,0,0,0,0,1,,,,,,,,,,,,,,,,,
,,,,,,,,24,2021-11-26_12h14.12.466,premceCat2_ses-02_part-02_label-phase2,2020.2.10,MacIntel,60,,,,,,,,,,,,,,,,0,139,139,88,1,stimuli/objects/charcoalbarbecue.jpg,left,old,232,,,,,,,,
,,,,,,,,24,2021-11-26_12h14.12.466,premceCat2_ses-02_part-02_label-phase2,2020.2.10,MacIntel,60,,,,,left,1.4825,4,0.0005,left,0.3707,0,0,0,0,1,,,,,,,,,,,,,,,,,
,,,,,,,,24,2021-11-26_12h14.12.466,premceCat2_ses-02_part-02_label-phase2,2020.2.10,MacIntel,60,,,,,,,,,,,,,,,,0,140,140,123,1,stimuli/objects/jackhammer.jpg,right,new,267,,,,,,,,
,,,,,,,,24,2021-11-26_12h14.12.466,premceCat2_ses-02_part-02_label-phase2,2020.2.10,MacIntel,60,,,,,right,1.0654,4,0.2816,,,,,,,,0,141,141,99,1,stimuli/objects/floodlight.jpg,right,new,243,,,,,,,,
,,,,,,,,24,2021-11-26_12h14.12.466,premceCat2_ses-02_part-02_label-phase2,2020.2.10,MacIntel,60,,,,,left,1.3271,4,0.3248,left,0.3247,0,0,0,0,1,,,,,,,,,,,,,,,,,
,,,,,,,,24,2021-11-26_12h14.12.466,premceCat2_ses-02_part-02_label-phase2,2020.2.10,MacIntel,60,,,,,,,,,,,,,,,,0,142,142,119,1,stimuli/objects/cookiecutter.jpg,left,old,263,,,,,,,,
,,,,,,,,24,2021-11-26_12h14.12.466,premceCat2_ses-02_part-02_label-phase2,2020.2.10,MacIntel,60,,,,,,,,,,,,,,,,,,,,,,,,,space,4.0279,0,1,1,1,1,condition_files/ImagesforRecog1_2.csv
