myownaccuracy,respcorrs,minNrPractice,considerNrTrials,Instr_resp.keys,Instr_resp.rt,key_resp_2.keys,key_resp_2.rt,Instruction_loop.thisRepN,Instruction_loop.thisTrialN,Instruction_loop.thisN,Instruction_loop.thisIndex,Instruction_loop.ran,slides,participant,date,expName,psychopyVersion,OS,frameRate,key_resp_3.keys,key_resp_3.rt,taskGoresp.keys,taskGoresp.rt,pract_resp.keys,pract_resp.corr,pract_resp.rt,myownaccuracyCORR,pract_loop.thisRepN,pract_loop.thisTrialN,pract_loop.thisN,pract_loop.thisIndex,pract_loop.ran,first_character,second_character,Cue,left_categ,centleft_categ,centright_categ,right_categ,corr_ans,trial_cond,switch_cond,cuedCharacter,corrCat,image,rep_resp.keys,rep_resp.rt,repeat_pract.thisRepN,repeat_pract.thisTrialN,repeat_pract.thisN,repeat_pract.thisIndex,repeat_pract.ran,task_resp.keys,task_resp.corr,task_resp.rt,task_loop.thisRepN,task_loop.thisTrialN,task_loop.thisN,task_loop.thisIndex,task_loop.ran,obj_category,rep_resp_2.keys,rep_resp_2.rt,repeat_task2.thisRepN,repeat_task2.thisTrialN,repeat_task2.thisN,repeat_task2.thisIndex,repeat_task2.ran
[],[],10,10,space,99.7383,space,9.483,0,0,0,0,1,stimuli/slide1.png,24,2021-11-25_10h07.02.887,premceCat2_ses-01_part-01_label-phase1,2020.2.9,MacIntel,60,,,,,,,,,,,,,,,,,,,,,,,,,,,,,,,,,,,,,,,,,,,,,,,,,
,,,,,,space,15.6708,0,1,1,1,1,stimuli/slide2.png,24,2021-11-25_10h07.02.887,premceCat2_ses-01_part-01_label-phase1,2020.2.9,MacIntel,60,,,,,,,,,,,,,,,,,,,,,,,,,,,,,,,,,,,,,,,,,,,,,,,,,
,,,,,,space,18.1254,0,2,2,2,1,stimuli/slide3.png,24,2021-11-25_10h07.02.887,premceCat2_ses-01_part-01_label-phase1,2020.2.9,MacIntel,60,,,,,,,,,,,,,,,,,,,,,,,,,,,,,,,,,,,,,,,,,,,,,,,,,
,,,,,,space,16.2707,0,3,3,3,1,stimuli/slide4.png,24,2021-11-25_10h07.02.887,premceCat2_ses-01_part-01_label-phase1,2020.2.9,MacIntel,60,,,,,,,,,,,,,,,,,,,,,,,,,,,,,,,,,,,,,,,,,,,,,,,,,
,,,,,,space,10.8089,0,4,4,4,1,stimuli/slide5.png,24,2021-11-25_10h07.02.887,premceCat2_ses-01_part-01_label-phase1,2020.2.9,MacIntel,60,,,,,,,,,,,,,,,,,,,,,,,,,,,,,,,,,,,,,,,,,,,,,,,,,
,,,,,,space,5.3772,0,5,5,5,1,stimuli/slide6.png,24,2021-11-25_10h07.02.887,premceCat2_ses-01_part-01_label-phase1,2020.2.9,MacIntel,60,,,,,,,,,,,,,,,,,,,,,,,,,,,,,,,,,,,,,,,,,,,,,,,,,
0,[],,,,,,,,,,,,,24,2021-11-25_10h07.02.887,premceCat2_ses-01_part-01_label-phase1,2020.2.9,MacIntel,60,space,53.3961,space,16.1544,2,0,2.4391,0,0,0,0,0,1,stimuli/m1.jpg,stimuli/m4.jpg,2,stimuli/Stationary & school supply.png,stimuli/Vehicle.png,stimuli/Gamestoy & entertainment.png,stimuli/Clothing.png,4,1,0,stimuli/m4.jpg,Clothing,stimuli/objects/sneaker03b.jpg,,,,,,,,,,,,,,,,,,,,,,,
0,[0],,,,,,,,,,,,,24,2021-11-25_10h07.02.887,premceCat2_ses-01_part-01_label-phase1,2020.2.9,MacIntel,60,,,,,,0,,0,0,1,1,1,1,stimuli/m1.jpg,stimuli/m4.jpg,2,stimuli/Stationary & school supply.png,stimuli/Clothing.png,stimuli/Vehicle.png,stimuli/Gamestoy & entertainment.png,1,0,0,stimuli/m4.jpg,Stationary & school supply,stimuli/objects/paperclip01b.jpg,,,,,,,,,,,,,,,,,,,,,,,
0,[0],,,,,,,,,,,,,24,2021-11-25_10h07.02.887,premceCat2_ses-01_part-01_label-phase1,2020.2.9,MacIntel,60,,,,,3,0,2.9272,0,0,2,2,2,1,stimuli/m1.jpg,stimuli/m4.jpg,1,stimuli/Vehicle.png,stimuli/Stationary & school supply.png,stimuli/Clothing.png,stimuli/Gamestoy & entertainment.png,2,1,0,stimuli/m1.jpg,Stationary & school supply,stimuli/objects/protractor.jpg,,,,,,,,,,,,,,,,,,,,,,,
0,"[0,0]",,,,,,,,,,,,,24,2021-11-25_10h07.02.887,premceCat2_ses-01_part-01_label-phase1,2020.2.9,MacIntel,60,,,,,1,0,2.233,0,0,3,3,3,1,stimuli/m4.jpg,stimuli/m1.jpg,1,stimuli/Stationary & school supply.png,stimuli/Vehicle.png,stimuli/Gamestoy & entertainment.png,stimuli/Clothing.png,4,1,0,stimuli/m4.jpg,Clothing,stimuli/objects/hikingshoe01.jpg,,,,,,,,,,,,,,,,,,,,,,,
1,"[0,0,0]",,,,,,,,,,,,,24,2021-11-25_10h07.02.887,premceCat2_ses-01_part-01_label-phase1,2020.2.9,MacIntel,60,,,,,2,1,1.7321,1,0,4,4,4,1,stimuli/m1.jpg,stimuli/m4.jpg,1,stimuli/Clothing.png,stimuli/Stationary & school supply.png,stimuli/Vehicle.png,stimuli/Gamestoy & entertainment.png,2,1,0,stimuli/m1.jpg,Stationary & school supply,stimuli/objects/book01b.jpg,,,,,,,,,,,,,,,,,,,,,,,
0,"[0,0,0,1]",,,,,,,,,,,,,24,2021-11-25_10h07.02.887,premceCat2_ses-01_part-01_label-phase1,2020.2.9,MacIntel,60,,,,,1,0,3.2041,0,0,5,5,5,1,stimuli/m4.jpg,stimuli/m1.jpg,1,stimuli/Stationary & school supply.png,stimuli/Gamestoy & entertainment.png,stimuli/Vehicle.png,stimuli/Clothing.png,4,1,0,stimuli/m4.jpg,Clothing,stimuli/objects/shoelace.jpg,,,,,,,,,,,,,,,,,,,,,,,
0,"[0,0,0,1,0]",,,,,,,,,,,,,24,2021-11-25_10h07.02.887,premceCat2_ses-01_part-01_label-phase1,2020.2.9,MacIntel,60,,,,,,0,,0,0,6,6,6,1,stimuli/m1.jpg,stimuli/m4.jpg,2,stimuli/Clothing.png,stimuli/Stationary & school supply.png,stimuli/Vehicle.png,stimuli/Gamestoy & entertainment.png,1,1,0,stimuli/m4.jpg,Clothing,stimuli/objects/moccasin.jpg,,,,,,,,,,,,,,,,,,,,,,,
0,"[0,0,0,1,0,0]",,,,,,,,,,,,,24,2021-11-25_10h07.02.887,premceCat2_ses-01_part-01_label-phase1,2020.2.9,MacIntel,60,,,,,3,0,1.8497,0,0,7,7,7,1,stimuli/m1.jpg,stimuli/m4.jpg,2,stimuli/Gamestoy & entertainment.png,stimuli/Clothing.png,stimuli/Stationary & school supply.png,stimuli/Vehicle.png,2,1,0,stimuli/m4.jpg,Clothing,stimuli/objects/waders.jpg,,,,,,,,,,,,,,,,,,,,,,,
0,"[0,0,0,1,0,0,0]",,,,,,,,,,,,,24,2021-11-25_10h07.02.887,premceCat2_ses-01_part-01_label-phase1,2020.2.9,MacIntel,60,,,,,2,0,2.3349,0,0,8,8,8,1,stimuli/m4.jpg,stimuli/m1.jpg,2,stimuli/Vehicle.png,stimuli/Gamestoy & entertainment.png,stimuli/Stationary & school supply.png,stimuli/Clothing.png,3,1,0,stimuli/m1.jpg,Stationary & school supply,stimuli/objects/eraser.jpg,,,,,,,,,,,,,,,,,,,,,,,
0,"[0,0,0,1,0,0,0,0]",,,,,,,,,,,,,24,2021-11-25_10h07.02.887,premceCat2_ses-01_part-01_label-phase1,2020.2.9,MacIntel,60,,,,,3,0,2.2308,0,0,9,9,9,1,stimuli/m4.jpg,stimuli/m1.jpg,2,stimuli/Stationary & school supply.png,stimuli/Vehicle.png,stimuli/Clothing.png,stimuli/Gamestoy & entertainment.png,1,1,0,stimuli/m1.jpg,Stationary & school supply,stimuli/objects/fountainpen.jpg,,,,,,,,,,,,,,,,,,,,,,,
0,"[0,0,0,1,0,0,0,0,0]",,,,,,,,,,,,,24,2021-11-25_10h07.02.887,premceCat2_ses-01_part-01_label-phase1,2020.2.9,MacIntel,60,,,,,1,0,1.6788,0,0,10,10,10,1,stimuli/m4.jpg,stimuli/m1.jpg,1,stimuli/Vehicle.png,stimuli/Clothing.png,stimuli/Stationary & school supply.png,stimuli/Gamestoy & entertainment.png,2,1,0,stimuli/m4.jpg,Clothing,stimuli/objects/visor.jpg,,,,,,,,,,,,,,,,,,,,,,,
0,"[0,0,0,1,0,0,0,0,0,0]",,,,,,,,,,,,,24,2021-11-25_10h07.02.887,premceCat2_ses-01_part-01_label-phase1,2020.2.9,MacIntel,60,,,,,4,0,1.8848,0,0,11,11,11,1,stimuli/m4.jpg,stimuli/m1.jpg,1,stimuli/Stationary & school supply.png,stimuli/Clothing.png,stimuli/Vehicle.png,stimuli/Gamestoy & entertainment.png,2,1,0,stimuli/m4.jpg,Clothing,stimuli/objects/mitten04.jpg,,,,,,,,,,,,,,,,,,,,,,,
1,"[0,0,0,1,0,0,0,0,0,0,0]",,,,,,,,,,,,,24,2021-11-25_10h07.02.887,premceCat2_ses-01_part-01_label-phase1,2020.2.9,MacIntel,60,,,,,2,1,3.3004,1,0,12,12,12,1,stimuli/m4.jpg,stimuli/m1.jpg,2,stimuli/Clothing.png,stimuli/Stationary & school supply.png,stimuli/Vehicle.png,stimuli/Gamestoy & entertainment.png,2,1,0,stimuli/m1.jpg,Stationary & school supply,stimuli/objects/notebook03a.jpg,,,,,,,,,,,,,,,,,,,,,,,
0,"[0,0,0,1,0,0,0,0,0,0,0,1]",,,,,,,,,,,,,24,2021-11-25_10h07.02.887,premceCat2_ses-01_part-01_label-phase1,2020.2.9,MacIntel,60,,,,,4,0,2.6536,1,0,13,13,13,1,stimuli/m4.jpg,stimuli/m1.jpg,1,stimuli/Vehicle.png,stimuli/Clothing.png,stimuli/Gamestoy & entertainment.png,stimuli/Stationary & school supply.png,1,0,0,stimuli/m4.jpg,Vehicle,stimuli/objects/locomotive.jpg,,,,,,,,,,,,,,,,,,,,,,,
1,"[0,0,0,1,0,0,0,0,0,0,0,1]",,,,,,,,,,,,,24,2021-11-25_10h07.02.887,premceCat2_ses-01_part-01_label-phase1,2020.2.9,MacIntel,60,,,,,2,1,2.9114,1,0,14,14,14,1,stimuli/m4.jpg,stimuli/m1.jpg,2,stimuli/Gamestoy & entertainment.png,stimuli/Stationary & school supply.png,stimuli/Vehicle.png,stimuli/Clothing.png,2,1,0,stimuli/m1.jpg,Stationary & school supply,stimuli/objects/mechanicalpencil02.jpg,,,,,,,,,,,,,,,,,,,,,,,
0,"[0,0,0,1,0,0,0,0,0,0,0,1,1]",,,,,,,,,,,,,24,2021-11-25_10h07.02.887,premceCat2_ses-01_part-01_label-phase1,2020.2.9,MacIntel,60,,,,,2,0,2.1062,1,0,15,15,15,1,stimuli/m4.jpg,stimuli/m1.jpg,1,stimuli/Gamestoy & entertainment.png,stimuli/Clothing.png,stimuli/Stationary & school supply.png,stimuli/Vehicle.png,1,0,0,stimuli/m4.jpg,Gamestoy & entertainment,stimuli/objects/rattle.jpg,,,,,,,,,,,,,,,,,,,,,,,
0,"[0,0,0,1,0,0,0,0,0,0,0,1,1]",,,,,,,,,,,,,24,2021-11-25_10h07.02.887,premceCat2_ses-01_part-01_label-phase1,2020.2.9,MacIntel,60,,,,,,0,,0,0,16,16,16,1,stimuli/m4.jpg,stimuli/m1.jpg,1,stimuli/Gamestoy & entertainment.png,stimuli/Vehicle.png,stimuli/Stationary & school supply.png,stimuli/Clothing.png,4,1,0,stimuli/m4.jpg,Clothing,stimuli/objects/sheriffhat.jpg,,,,,,,,,,,,,,,,,,,,,,,
1,"[0,0,0,1,0,0,0,0,0,0,0,1,1,0]",,,,,,,,,,,,,24,2021-11-25_10h07.02.887,premceCat2_ses-01_part-01_label-phase1,2020.2.9,MacIntel,60,,,,,2,1,1.4151,1,0,17,17,17,1,stimuli/m4.jpg,stimuli/m1.jpg,1,stimuli/Gamestoy & entertainment.png,stimuli/Clothing.png,stimuli/Vehicle.png,stimuli/Stationary & school supply.png,2,1,0,stimuli/m4.jpg,Clothing,stimuli/objects/jeans01.jpg,,,,,,,,,,,,,,,,,,,,,,,
1,"[0,0,0,1,0,0,0,0,0,0,0,1,1,0,1]",,,,,,,,,,,,,24,2021-11-25_10h07.02.887,premceCat2_ses-01_part-01_label-phase1,2020.2.9,MacIntel,60,,,,,4,1,1.7632,1,0,18,18,18,1,stimuli/m1.jpg,stimuli/m4.jpg,2,stimuli/Stationary & school supply.png,stimuli/Gamestoy & entertainment.png,stimuli/Vehicle.png,stimuli/Clothing.png,4,1,0,stimuli/m4.jpg,Clothing,stimuli/objects/bowtie.jpg,,,,,,,,,,,,,,,,,,,,,,,
0,"[0,0,0,1,0,0,0,0,0,0,0,1,1,0,1,1]",,,,,,,,,,,,,24,2021-11-25_10h07.02.887,premceCat2_ses-01_part-01_label-phase1,2020.2.9,MacIntel,60,,,,,1,0,1.6983,1,0,19,19,19,1,stimuli/m1.jpg,stimuli/m4.jpg,1,stimuli/Stationary & school supply.png,stimuli/Clothing.png,stimuli/Vehicle.png,stimuli/Gamestoy & entertainment.png,3,0,0,stimuli/m1.jpg,Vehicle,stimuli/objects/porsche.jpg,,,,,,,,,,,,,,,,,,,,,,,
0,"[0,0,0,1,0,0,0,0,0,0,0,1,1,0,1,1]",,,,,,,,,,,,,24,2021-11-25_10h07.02.887,premceCat2_ses-01_part-01_label-phase1,2020.2.9,MacIntel,60,,,,,1,0,1.2025,1,0,20,20,20,1,stimuli/m1.jpg,stimuli/m4.jpg,1,stimuli/Vehicle.png,stimuli/Gamestoy & entertainment.png,stimuli/Clothing.png,stimuli/Stationary & school supply.png,3,0,0,stimuli/m1.jpg,Clothing,stimuli/objects/sandal.jpg,,,,,,,,,,,,,,,,,,,,,,,
0,"[0,0,0,1,0,0,0,0,0,0,0,1,1,0,1,1]",,,,,,,,,,,,,24,2021-11-25_10h07.02.887,premceCat2_ses-01_part-01_label-phase1,2020.2.9,MacIntel,60,,,,,1,0,1.0226,0,0,21,21,21,1,stimuli/m4.jpg,stimuli/m1.jpg,2,stimuli/Vehicle.png,stimuli/Clothing.png,stimuli/Gamestoy & entertainment.png,stimuli/Stationary & school supply.png,4,1,0,stimuli/m1.jpg,Stationary & school supply,stimuli/objects/chalkboard01.jpg,,,,,,,,,,,,,,,,,,,,,,,
0,"[0,0,0,1,0,0,0,0,0,0,0,1,1,0,1,1,0]",,,,,,,,,,,,,24,2021-11-25_10h07.02.887,premceCat2_ses-01_part-01_label-phase1,2020.2.9,MacIntel,60,,,,,4,0,3.343,0,0,22,22,22,1,stimuli/m4.jpg,stimuli/m1.jpg,1,stimuli/Gamestoy & entertainment.png,stimuli/Stationary & school supply.png,stimuli/Clothing.png,stimuli/Vehicle.png,3,1,0,stimuli/m4.jpg,Clothing,stimuli/objects/tie02.jpg,,,,,,,,,,,,,,,,,,,,,,,
0,"[0,0,0,1,0,0,0,0,0,0,0,1,1,0,1,1,0,0]",,,,,,,,,,,,,24,2021-11-25_10h07.02.887,premceCat2_ses-01_part-01_label-phase1,2020.2.9,MacIntel,60,,,,,3,0,2.2314,0,0,23,23,23,1,stimuli/m4.jpg,stimuli/m1.jpg,2,stimuli/Vehicle.png,stimuli/Gamestoy & entertainment.png,stimuli/Clothing.png,stimuli/Stationary & school supply.png,4,1,0,stimuli/m1.jpg,Stationary & school supply,stimuli/objects/papertray.jpg,,,,,,,,,,,,,,,,,,,,,,,
0,"[0,0,0,1,0,0,0,0,0,0,0,1,1,0,1,1,0,0,0]",,,,,,,,,,,,,24,2021-11-25_10h07.02.887,premceCat2_ses-01_part-01_label-phase1,2020.2.9,MacIntel,60,,,,,4,0,2.4297,0,0,24,24,24,1,stimuli/m4.jpg,stimuli/m1.jpg,1,stimuli/Clothing.png,stimuli/Gamestoy & entertainment.png,stimuli/Vehicle.png,stimuli/Stationary & school supply.png,1,1,0,stimuli/m4.jpg,Clothing,stimuli/objects/shirt02.jpg,,,,,,,,,,,,,,,,,,,,,,,
0,"[0,0,0,1,0,0,0,0,0,0,0,1,1,0,1,1,0,0,0,0]",,,,,,,,,,,,,24,2021-11-25_10h07.02.887,premceCat2_ses-01_part-01_label-phase1,2020.2.9,MacIntel,60,,,,,4,0,2.1056,0,0,25,25,25,1,stimuli/m4.jpg,stimuli/m1.jpg,2,stimuli/Vehicle.png,stimuli/Stationary & school supply.png,stimuli/Gamestoy & entertainment.png,stimuli/Clothing.png,2,1,0,stimuli/m1.jpg,Stationary & school supply,stimuli/objects/pen04b.jpg,,,,,,,,,,,,,,,,,,,,,,,
1,"[0,0,0,1,0,0,0,0,0,0,0,1,1,0,1,1,0,0,0,0,0]",,,,,,,,,,,,,24,2021-11-25_10h07.02.887,premceCat2_ses-01_part-01_label-phase1,2020.2.9,MacIntel,60,,,,,4,1,2.2374,1,0,26,26,26,1,stimuli/m4.jpg,stimuli/m1.jpg,2,stimuli/Clothing.png,stimuli/Gamestoy & entertainment.png,stimuli/Vehicle.png,stimuli/Stationary & school supply.png,4,1,0,stimuli/m1.jpg,Stationary & school supply,stimuli/objects/divider02.jpg,,,,,,,,,,,,,,,,,,,,,,,
0,"[0,0,0,1,0,0,0,0,0,0,0,1,1,0,1,1,0,0,0,0,0,1]",,,,,,,,,,,,,24,2021-11-25_10h07.02.887,premceCat2_ses-01_part-01_label-phase1,2020.2.9,MacIntel,60,,,,,3,0,1.9894,1,0,27,27,27,1,stimuli/m4.jpg,stimuli/m1.jpg,1,stimuli/Vehicle.png,stimuli/Gamestoy & entertainment.png,stimuli/Clothing.png,stimuli/Stationary & school supply.png,4,0,0,stimuli/m4.jpg,Stationary & school supply,stimuli/objects/expandablefolder03a.jpg,,,,,,,,,,,,,,,,,,,,,,,
0,"[0,0,0,1,0,0,0,0,0,0,0,1,1,0,1,1,0,0,0,0,0,1]",,,,,,,,,,,,,24,2021-11-25_10h07.02.887,premceCat2_ses-01_part-01_label-phase1,2020.2.9,MacIntel,60,,,,,,0,,0,0,28,28,28,1,stimuli/m1.jpg,stimuli/m4.jpg,2,stimuli/Vehicle.png,stimuli/Stationary & school supply.png,stimuli/Clothing.png,stimuli/Gamestoy & entertainment.png,3,1,0,stimuli/m4.jpg,Clothing,stimuli/objects/sock01a.jpg,,,,,,,,,,,,,,,,,,,,,,,
0,"[0,0,0,1,0,0,0,0,0,0,0,1,1,0,1,1,0,0,0,0,0,1,0]",,,,,,,,,,,,,24,2021-11-25_10h07.02.887,premceCat2_ses-01_part-01_label-phase1,2020.2.9,MacIntel,60,,,,,1,0,2.6619,0,0,29,29,29,1,stimuli/m1.jpg,stimuli/m4.jpg,1,stimuli/Gamestoy & entertainment.png,stimuli/Vehicle.png,stimuli/Clothing.png,stimuli/Stationary & school supply.png,4,1,0,stimuli/m1.jpg,Stationary & school supply,stimuli/objects/pencilsharpener02a.jpg,,,,,,,,,,,,,,,,,,,,,,,
0,"[0,0,0,1,0,0,0,0,0,0,0,1,1,0,1,1,0,0,0,0,0,1,0,0]",,,,,,,,,,,,,24,2021-11-25_10h07.02.887,premceCat2_ses-01_part-01_label-phase1,2020.2.9,MacIntel,60,,,,,4,0,2.3124,0,0,30,30,30,1,stimuli/m4.jpg,stimuli/m1.jpg,2,stimuli/Clothing.png,stimuli/Vehicle.png,stimuli/Gamestoy & entertainment.png,stimuli/Stationary & school supply.png,3,0,0,stimuli/m1.jpg,Gamestoy & entertainment,stimuli/objects/interlockingbuildingblock03b.jpg,,,,,,,,,,,,,,,,,,,,,,,
0,"[0,0,0,1,0,0,0,0,0,0,0,1,1,0,1,1,0,0,0,0,0,1,0,0]",,,,,,,,,,,,,24,2021-11-25_10h07.02.887,premceCat2_ses-01_part-01_label-phase1,2020.2.9,MacIntel,60,,,,,2,0,3.252,0,0,31,31,31,1,stimuli/m4.jpg,stimuli/m1.jpg,2,stimuli/Clothing.png,stimuli/Gamestoy & entertainment.png,stimuli/Stationary & school supply.png,stimuli/Vehicle.png,3,1,0,stimuli/m1.jpg,Stationary & school supply,stimuli/objects/scotchtape.jpg,,,,,,,,,,,,,,,,,,,,,,,
0,"[0,0,0,1,0,0,0,0,0,0,0,1,1,0,1,1,0,0,0,0,0,1,0,0,0]",,,,,,,,,,,,,24,2021-11-25_10h07.02.887,premceCat2_ses-01_part-01_label-phase1,2020.2.9,MacIntel,60,,,,,,0,,0,0,32,32,32,1,stimuli/m4.jpg,stimuli/m1.jpg,2,stimuli/Stationary & school supply.png,stimuli/Vehicle.png,stimuli/Gamestoy & entertainment.png,stimuli/Clothing.png,2,0,0,stimuli/m1.jpg,Vehicle,stimuli/objects/mailtruck.jpg,,,,,,,,,,,,,,,,,,,,,,,
1,"[0,0,0,1,0,0,0,0,0,0,0,1,1,0,1,1,0,0,0,0,0,1,0,0,0]",,,,,,,,,,,,,24,2021-11-25_10h07.02.887,premceCat2_ses-01_part-01_label-phase1,2020.2.9,MacIntel,60,,,,,3,1,2.6659,1,0,33,33,33,1,stimuli/m1.jpg,stimuli/m4.jpg,2,stimuli/Stationary & school supply.png,stimuli/Vehicle.png,stimuli/Clothing.png,stimuli/Gamestoy & entertainment.png,3,1,0,stimuli/m4.jpg,Clothing,stimuli/objects/flipflop01b.jpg,,,,,,,,,,,,,,,,,,,,,,,
1,"[0,0,0,1,0,0,0,0,0,0,0,1,1,0,1,1,0,0,0,0,0,1,0,0,0,1]",,,,,,,,,,,,,24,2021-11-25_10h07.02.887,premceCat2_ses-01_part-01_label-phase1,2020.2.9,MacIntel,60,,,,,2,1,1.179,1,0,34,34,34,1,stimuli/m1.jpg,stimuli/m4.jpg,2,stimuli/Vehicle.png,stimuli/Clothing.png,stimuli/Stationary & school supply.png,stimuli/Gamestoy & entertainment.png,2,1,0,stimuli/m4.jpg,Clothing,stimuli/objects/witchhat.jpg,,,,,,,,,,,,,,,,,,,,,,,
1,"[0,0,0,1,0,0,0,0,0,0,0,1,1,0,1,1,0,0,0,0,0,1,0,0,0,1,1]",,,,,,,,,,,,,24,2021-11-25_10h07.02.887,premceCat2_ses-01_part-01_label-phase1,2020.2.9,MacIntel,60,,,,,4,1,2.2256,1,0,35,35,35,1,stimuli/m1.jpg,stimuli/m4.jpg,1,stimuli/Clothing.png,stimuli/Vehicle.png,stimuli/Gamestoy & entertainment.png,stimuli/Stationary & school supply.png,4,1,0,stimuli/m1.jpg,Stationary & school supply,stimuli/objects/chalk.jpg,,,,,,,,,,,,,,,,,,,,,,,
1,"[0,0,0,1,0,0,0,0,0,0,0,1,1,0,1,1,0,0,0,0,0,1,0,0,0,1,1,1]",,,,,,,,,,,,,24,2021-11-25_10h07.02.887,premceCat2_ses-01_part-01_label-phase1,2020.2.9,MacIntel,60,,,,,4,1,1.3148,1,0,36,36,36,1,stimuli/m4.jpg,stimuli/m1.jpg,2,stimuli/Gamestoy & entertainment.png,stimuli/Vehicle.png,stimuli/Clothing.png,stimuli/Stationary & school supply.png,4,1,0,stimuli/m1.jpg,Stationary & school supply,stimuli/objects/stapleremover.jpg,,,,,,,,,,,,,,,,,,,,,,,
1,"[0,0,0,1,0,0,0,0,0,0,0,1,1,0,1,1,0,0,0,0,0,1,0,0,0,1,1,1,1]",,,,,,,,,,,,,24,2021-11-25_10h07.02.887,premceCat2_ses-01_part-01_label-phase1,2020.2.9,MacIntel,60,,,,,2,1,1.4854,1,0,37,37,37,1,stimuli/m4.jpg,stimuli/m1.jpg,2,stimuli/Clothing.png,stimuli/Stationary & school supply.png,stimuli/Gamestoy & entertainment.png,stimuli/Vehicle.png,2,1,0,stimuli/m1.jpg,Stationary & school supply,stimuli/objects/highlighter02b.jpg,,,,,,,,,,,,,,,,,,,,,,,
1,"[0,0,0,1,0,0,0,0,0,0,0,1,1,0,1,1,0,0,0,0,0,1,0,0,0,1,1,1,1,1]",,,,,,,,,,,,,24,2021-11-25_10h07.02.887,premceCat2_ses-01_part-01_label-phase1,2020.2.9,MacIntel,60,,,,,2,1,2.6333,1,0,38,38,38,1,stimuli/m1.jpg,stimuli/m4.jpg,2,stimuli/Stationary & school supply.png,stimuli/Clothing.png,stimuli/Gamestoy & entertainment.png,stimuli/Vehicle.png,2,1,0,stimuli/m4.jpg,Clothing,stimuli/objects/hat03b.jpg,,,,,,,,,,,,,,,,,,,,,,,
0,"[0,0,0,1,0,0,0,0,0,0,0,1,1,0,1,1,0,0,0,0,0,1,0,0,0,1,1,1,1,1,1]",,,,,,,,,,,,,24,2021-11-25_10h07.02.887,premceCat2_ses-01_part-01_label-phase1,2020.2.9,MacIntel,60,,,,,,0,,0,0,39,39,39,1,stimuli/m1.jpg,stimuli/m4.jpg,1,stimuli/Gamestoy & entertainment.png,stimuli/Vehicle.png,stimuli/Stationary & school supply.png,stimuli/Clothing.png,1,0,0,stimuli/m1.jpg,Gamestoy & entertainment,stimuli/objects/beachpaddle01a.jpg,,,,,,,,,,,,,,,,,,,,,,,
0,"[0,0,0,1,0,0,0,0,0,0,0,1,1,0,1,1,0,0,0,0,0,1,0,0,0,1,1,1,1,1,1]",,,,,,,,,,,,,24,2021-11-25_10h07.02.887,premceCat2_ses-01_part-01_label-phase1,2020.2.9,MacIntel,60,,,,,,0,,0,0,40,40,40,1,stimuli/m4.jpg,stimuli/m1.jpg,1,stimuli/Clothing.png,stimuli/Stationary & school supply.png,stimuli/Vehicle.png,stimuli/Gamestoy & entertainment.png,1,1,0,stimuli/m4.jpg,Clothing,stimuli/objects/overalls.jpg,,,,,,,,,,,,,,,,,,,,,,,
0,"[0,0,0,1,0,0,0,0,0,0,0,1,1,0,1,1,0,0,0,0,0,1,0,0,0,1,1,1,1,1,1,0]",,,,,,,,,,,,,24,2021-11-25_10h07.02.887,premceCat2_ses-01_part-01_label-phase1,2020.2.9,MacIntel,60,,,,,2,0,2.5778,0,0,41,41,41,1,stimuli/m1.jpg,stimuli/m4.jpg,2,stimuli/Clothing.png,stimuli/Stationary & school supply.png,stimuli/Gamestoy & entertainment.png,stimuli/Vehicle.png,1,1,0,stimuli/m4.jpg,Clothing,stimuli/objects/tuque03a.jpg,,,,,,,,,,,,,,,,,,,,,,,
0,"[0,0,0,1,0,0,0,0,0,0,0,1,1,0,1,1,0,0,0,0,0,1,0,0,0,1,1,1,1,1,1,0,0]",,,,,,,,,,,,,24,2021-11-25_10h07.02.887,premceCat2_ses-01_part-01_label-phase1,2020.2.9,MacIntel,60,,,,,2,0,1.337,0,0,42,42,42,1,stimuli/m1.jpg,stimuli/m4.jpg,2,stimuli/Gamestoy & entertainment.png,stimuli/Stationary & school supply.png,stimuli/Vehicle.png,stimuli/Clothing.png,4,1,0,stimuli/m4.jpg,Clothing,stimuli/objects/shirt01.jpg,,,,,,,,,,,,,,,,,,,,,,,
1,"[0,0,0,1,0,0,0,0,0,0,0,1,1,0,1,1,0,0,0,0,0,1,0,0,0,1,1,1,1,1,1,0,0,0]",,,,,,,,,,,,,24,2021-11-25_10h07.02.887,premceCat2_ses-01_part-01_label-phase1,2020.2.9,MacIntel,60,,,,,2,1,0.8814,1,0,43,43,43,1,stimuli/m1.jpg,stimuli/m4.jpg,1,stimuli/Vehicle.png,stimuli/Stationary & school supply.png,stimuli/Gamestoy & entertainment.png,stimuli/Clothing.png,2,1,0,stimuli/m1.jpg,Stationary & school supply,stimuli/objects/smartboard.jpg,,,,,,,,,,,,,,,,,,,,,,,
1,"[0,0,0,1,0,0,0,0,0,0,0,1,1,0,1,1,0,0,0,0,0,1,0,0,0,1,1,1,1,1,1,0,0,0,1]",,,,,,,,,,,,,24,2021-11-25_10h07.02.887,premceCat2_ses-01_part-01_label-phase1,2020.2.9,MacIntel,60,,,,,1,1,3.116,1,0,44,44,44,1,stimuli/m1.jpg,stimuli/m4.jpg,2,stimuli/Clothing.png,stimuli/Gamestoy & entertainment.png,stimuli/Stationary & school supply.png,stimuli/Vehicle.png,1,1,0,stimuli/m4.jpg,Clothing,stimuli/objects/belt02a.jpg,,,,,,,,,,,,,,,,,,,,,,,
1,"[0,0,0,1,0,0,0,0,0,0,0,1,1,0,1,1,0,0,0,0,0,1,0,0,0,1,1,1,1,1,1,0,0,0,1,1]",,,,,,,,,,,,,24,2021-11-25_10h07.02.887,premceCat2_ses-01_part-01_label-phase1,2020.2.9,MacIntel,60,,,,,1,1,1.8288,1,0,45,45,45,1,stimuli/m4.jpg,stimuli/m1.jpg,2,stimuli/Stationary & school supply.png,stimuli/Clothing.png,stimuli/Gamestoy & entertainment.png,stimuli/Vehicle.png,1,1,0,stimuli/m1.jpg,Stationary & school supply,stimuli/objects/clipboard.jpg,,,,,,,,,,,,,,,,,,,,,,,
1,"[0,0,0,1,0,0,0,0,0,0,0,1,1,0,1,1,0,0,0,0,0,1,0,0,0,1,1,1,1,1,1,0,0,0,1,1,1]",,,,,,,,,,,,,24,2021-11-25_10h07.02.887,premceCat2_ses-01_part-01_label-phase1,2020.2.9,MacIntel,60,,,,,1,1,2.3292,1,0,46,46,46,1,stimuli/m4.jpg,stimuli/m1.jpg,1,stimuli/Clothing.png,stimuli/Stationary & school supply.png,stimuli/Gamestoy & entertainment.png,stimuli/Vehicle.png,1,1,0,stimuli/m4.jpg,Clothing,stimuli/objects/athleticsock.jpg,,,,,,,,,,,,,,,,,,,,,,,
0,"[0,0,0,1,0,0,0,0,0,0,0,1,1,0,1,1,0,0,0,0,0,1,0,0,0,1,1,1,1,1,1,0,0,0,1,1,1,1]",,,,,,,,,,,,,24,2021-11-25_10h07.02.887,premceCat2_ses-01_part-01_label-phase1,2020.2.9,MacIntel,60,,,,,3,0,1.889,0,0,47,47,47,1,stimuli/m1.jpg,stimuli/m4.jpg,1,stimuli/Gamestoy & entertainment.png,stimuli/Stationary & school supply.png,stimuli/Clothing.png,stimuli/Vehicle.png,2,1,0,stimuli/m1.jpg,Stationary & school supply,stimuli/objects/mathcompass.jpg,,,,,,,,,,,,,,,,,,,,,,,
0,"[0,0,0,1,0,0,0,0,0,0,0,1,1,0,1,1,0,0,0,0,0,1,0,0,0,1,1,1,1,1,1,0,0,0,1,1,1,1,0]",,,,,,,,,,,,,24,2021-11-25_10h07.02.887,premceCat2_ses-01_part-01_label-phase1,2020.2.9,MacIntel,60,,,,,1,0,1.2684,0,0,48,48,48,1,stimuli/m4.jpg,stimuli/m1.jpg,2,stimuli/Stationary & school supply.png,stimuli/Clothing.png,stimuli/Vehicle.png,stimuli/Gamestoy & entertainment.png,2,0,0,stimuli/m1.jpg,Clothing,stimuli/objects/cap01a.jpg,,,,,,,,,,,,,,,,,,,,,,,
0,"[0,0,0,1,0,0,0,0,0,0,0,1,1,0,1,1,0,0,0,0,0,1,0,0,0,1,1,1,1,1,1,0,0,0,1,1,1,1,0]",,,,,,,,,,,,,24,2021-11-25_10h07.02.887,premceCat2_ses-01_part-01_label-phase1,2020.2.9,MacIntel,60,,,,,2,0,2.1952,0,0,49,49,49,1,stimuli/m4.jpg,stimuli/m1.jpg,1,stimuli/Vehicle.png,stimuli/Stationary & school supply.png,stimuli/Gamestoy & entertainment.png,stimuli/Clothing.png,3,0,0,stimuli/m4.jpg,Gamestoy & entertainment,stimuli/objects/playingcard.jpg,,,,,,,,,,,,,,,,,,,,,,,
0,"[0,0,0,1,0,0,0,0,0,0,0,1,1,0,1,1,0,0,0,0,0,1,0,0,0,1,1,1,1,1,1,0,0,0,1,1,1,1,0]",,,,,,,,,,,,,24,2021-11-25_10h07.02.887,premceCat2_ses-01_part-01_label-phase1,2020.2.9,MacIntel,60,,,,,1,0,2.0259,0,0,50,50,50,1,stimuli/m1.jpg,stimuli/m4.jpg,1,stimuli/Gamestoy & entertainment.png,stimuli/Clothing.png,stimuli/Vehicle.png,stimuli/Stationary & school supply.png,4,1,0,stimuli/m1.jpg,Stationary & school supply,stimuli/objects/chalkboarderaser01.jpg,,,,,,,,,,,,,,,,,,,,,,,
0,"[0,0,0,1,0,0,0,0,0,0,0,1,1,0,1,1,0,0,0,0,0,1,0,0,0,1,1,1,1,1,1,0,0,0,1,1,1,1,0,0]",,,,,,,,,,,,,24,2021-11-25_10h07.02.887,premceCat2_ses-01_part-01_label-phase1,2020.2.9,MacIntel,60,,,,,1,0,3.378,0,0,51,51,51,1,stimuli/m1.jpg,stimuli/m4.jpg,1,stimuli/Gamestoy & entertainment.png,stimuli/Clothing.png,stimuli/Stationary & school supply.png,stimuli/Vehicle.png,4,0,0,stimuli/m1.jpg,Vehicle,stimuli/objects/bus.jpg,,,,,,,,,,,,,,,,,,,,,,,
0,"[0,0,0,1,0,0,0,0,0,0,0,1,1,0,1,1,0,0,0,0,0,1,0,0,0,1,1,1,1,1,1,0,0,0,1,1,1,1,0,0]",,,,,,,,,,,,,24,2021-11-25_10h07.02.887,premceCat2_ses-01_part-01_label-phase1,2020.2.9,MacIntel,60,,,,,2,0,1.7678,0,0,52,52,52,1,stimuli/m1.jpg,stimuli/m4.jpg,2,stimuli/Clothing.png,stimuli/Gamestoy & entertainment.png,stimuli/Vehicle.png,stimuli/Stationary & school supply.png,3,0,0,stimuli/m4.jpg,Vehicle,stimuli/objects/convertible.jpg,,,,,,,,,,,,,,,,,,,,,,,
0,"[0,0,0,1,0,0,0,0,0,0,0,1,1,0,1,1,0,0,0,0,0,1,0,0,0,1,1,1,1,1,1,0,0,0,1,1,1,1,0,0]",,,,,,,,,,,,,24,2021-11-25_10h07.02.887,premceCat2_ses-01_part-01_label-phase1,2020.2.9,MacIntel,60,,,,,2,0,1.2207,0,0,53,53,53,1,stimuli/m1.jpg,stimuli/m4.jpg,1,stimuli/Stationary & school supply.png,stimuli/Gamestoy & entertainment.png,stimuli/Vehicle.png,stimuli/Clothing.png,1,1,0,stimuli/m1.jpg,Stationary & school supply,stimuli/objects/binder03b.jpg,,,,,,,,,,,,,,,,,,,,,,,
0,"[0,0,0,1,0,0,0,0,0,0,0,1,1,0,1,1,0,0,0,0,0,1,0,0,0,1,1,1,1,1,1,0,0,0,1,1,1,1,0,0,0]",,,,,,,,,,,,,24,2021-11-25_10h07.02.887,premceCat2_ses-01_part-01_label-phase1,2020.2.9,MacIntel,60,,,,,,0,,0,0,54,54,54,1,stimuli/m4.jpg,stimuli/m1.jpg,2,stimuli/Gamestoy & entertainment.png,stimuli/Vehicle.png,stimuli/Stationary & school supply.png,stimuli/Clothing.png,3,1,0,stimuli/m1.jpg,Stationary & school supply,stimuli/objects/calendar.jpg,,,,,,,,,,,,,,,,,,,,,,,
0,"[0,0,0,1,0,0,0,0,0,0,0,1,1,0,1,1,0,0,0,0,0,1,0,0,0,1,1,1,1,1,1,0,0,0,1,1,1,1,0,0,0,0]",,,,,,,,,,,,,24,2021-11-25_10h07.02.887,premceCat2_ses-01_part-01_label-phase1,2020.2.9,MacIntel,60,,,,,4,0,1.5635,0,0,55,55,55,1,stimuli/m1.jpg,stimuli/m4.jpg,1,stimuli/Clothing.png,stimuli/Gamestoy & entertainment.png,stimuli/Stationary & school supply.png,stimuli/Vehicle.png,3,1,0,stimuli/m1.jpg,Stationary & school supply,stimuli/objects/gluestick.jpg,,,,,,,,,,,,,,,,,,,,,,,
0,"[0,0,0,1,0,0,0,0,0,0,0,1,1,0,1,1,0,0,0,0,0,1,0,0,0,1,1,1,1,1,1,0,0,0,1,1,1,1,0,0,0,0,0]",,,,,,,,,,,,,24,2021-11-25_10h07.02.887,premceCat2_ses-01_part-01_label-phase1,2020.2.9,MacIntel,60,,,,,4,0,1.8696,0,0,56,56,56,1,stimuli/m4.jpg,stimuli/m1.jpg,1,stimuli/Clothing.png,stimuli/Vehicle.png,stimuli/Stationary & school supply.png,stimuli/Gamestoy & entertainment.png,1,1,0,stimuli/m4.jpg,Clothing,stimuli/objects/cap03.jpg,,,,,,,,,,,,,,,,,,,,,,,
1,"[0,0,0,1,0,0,0,0,0,0,0,1,1,0,1,1,0,0,0,0,0,1,0,0,0,1,1,1,1,1,1,0,0,0,1,1,1,1,0,0,0,0,0,0]",,,,,,,,,,,,,24,2021-11-25_10h07.02.887,premceCat2_ses-01_part-01_label-phase1,2020.2.9,MacIntel,60,,,,,2,1,1.848,1,0,57,57,57,1,stimuli/m1.jpg,stimuli/m4.jpg,1,stimuli/Gamestoy & entertainment.png,stimuli/Stationary & school supply.png,stimuli/Vehicle.png,stimuli/Clothing.png,2,1,0,stimuli/m1.jpg,Stationary & school supply,stimuli/objects/marker01a.jpg,,,,,,,,,,,,,,,,,,,,,,,
1,"[0,0,0,1,0,0,0,0,0,0,0,1,1,0,1,1,0,0,0,0,0,1,0,0,0,1,1,1,1,1,1,0,0,0,1,1,1,1,0,0,0,0,0,0,1]",,,,,,,,,,,,,24,2021-11-25_10h07.02.887,premceCat2_ses-01_part-01_label-phase1,2020.2.9,MacIntel,60,,,,,3,1,1.7677,1,0,58,58,58,1,stimuli/m1.jpg,stimuli/m4.jpg,2,stimuli/Stationary & school supply.png,stimuli/Gamestoy & entertainment.png,stimuli/Clothing.png,stimuli/Vehicle.png,3,1,0,stimuli/m4.jpg,Clothing,stimuli/objects/safarihat.jpg,,,,,,,,,,,,,,,,,,,,,,,
1,"[0,0,0,1,0,0,0,0,0,0,0,1,1,0,1,1,0,0,0,0,0,1,0,0,0,1,1,1,1,1,1,0,0,0,1,1,1,1,0,0,0,0,0,0,1,1]",,,,,,,,,,,,,24,2021-11-25_10h07.02.887,premceCat2_ses-01_part-01_label-phase1,2020.2.9,MacIntel,60,,,,,3,1,1.3141,1,0,59,59,59,1,stimuli/m4.jpg,stimuli/m1.jpg,1,stimuli/Clothing.png,stimuli/Vehicle.png,stimuli/Gamestoy & entertainment.png,stimuli/Stationary & school supply.png,3,0,0,stimuli/m4.jpg,Gamestoy & entertainment,stimuli/objects/mrpotatohead.jpg,,,,,,,,,,,,,,,,,,,,,,,
,,,,,,,,,,,,,,24,2021-11-25_10h07.02.887,premceCat2_ses-01_part-01_label-phase1,2020.2.9,MacIntel,60,,,,,,,,,,,,,,,,,,,,,,,,,,,j,29.3966,0,0,0,0,1,,,,,,,,,,,,,,,,
0,[],,,,,,,,,,,,,24,2021-11-25_10h07.02.887,premceCat2_ses-01_part-01_label-phase1,2020.2.9,MacIntel,60,,,,,1,0,3.4709,0,0,0,0,0,1,stimuli/m1.jpg,stimuli/m4.jpg,2,stimuli/Stationary & school supply.png,stimuli/Vehicle.png,stimuli/Gamestoy & entertainment.png,stimuli/Clothing.png,4,1,0,stimuli/m4.jpg,Clothing,stimuli/objects/sneaker03b.jpg,,,,,,,,,,,,,,,,,,,,,,,
1,[0],,,,,,,,,,,,,24,2021-11-25_10h07.02.887,premceCat2_ses-01_part-01_label-phase1,2020.2.9,MacIntel,60,,,,,1,1,2.6196,0,0,1,1,1,1,stimuli/m1.jpg,stimuli/m4.jpg,2,stimuli/Stationary & school supply.png,stimuli/Clothing.png,stimuli/Vehicle.png,stimuli/Gamestoy & entertainment.png,1,0,0,stimuli/m4.jpg,Stationary & school supply,stimuli/objects/paperclip01b.jpg,,,,,,,,,,,,,,,,,,,,,,,
0,[0],,,,,,,,,,,,,24,2021-11-25_10h07.02.887,premceCat2_ses-01_part-01_label-phase1,2020.2.9,MacIntel,60,,,,,3,0,1.6148,0,0,2,2,2,1,stimuli/m1.jpg,stimuli/m4.jpg,1,stimuli/Vehicle.png,stimuli/Stationary & school supply.png,stimuli/Clothing.png,stimuli/Gamestoy & entertainment.png,2,1,0,stimuli/m1.jpg,Stationary & school supply,stimuli/objects/protractor.jpg,,,,,,,,,,,,,,,,,,,,,,,
0,"[0,0]",,,,,,,,,,,,,24,2021-11-25_10h07.02.887,premceCat2_ses-01_part-01_label-phase1,2020.2.9,MacIntel,60,,,,,1,0,0.9783,0,0,3,3,3,1,stimuli/m4.jpg,stimuli/m1.jpg,1,stimuli/Stationary & school supply.png,stimuli/Vehicle.png,stimuli/Gamestoy & entertainment.png,stimuli/Clothing.png,4,1,0,stimuli/m4.jpg,Clothing,stimuli/objects/hikingshoe01.jpg,,,,,,,,,,,,,,,,,,,,,,,
1,"[0,0,0]",,,,,,,,,,,,,24,2021-11-25_10h07.02.887,premceCat2_ses-01_part-01_label-phase1,2020.2.9,MacIntel,60,,,,,2,1,1.7527,1,0,4,4,4,1,stimuli/m1.jpg,stimuli/m4.jpg,1,stimuli/Clothing.png,stimuli/Stationary & school supply.png,stimuli/Vehicle.png,stimuli/Gamestoy & entertainment.png,2,1,0,stimuli/m1.jpg,Stationary & school supply,stimuli/objects/book01b.jpg,,,,,,,,,,,,,,,,,,,,,,,
1,"[0,0,0,1]",,,,,,,,,,,,,24,2021-11-25_10h07.02.887,premceCat2_ses-01_part-01_label-phase1,2020.2.9,MacIntel,60,,,,,4,1,1.8129,1,0,5,5,5,1,stimuli/m4.jpg,stimuli/m1.jpg,1,stimuli/Stationary & school supply.png,stimuli/Gamestoy & entertainment.png,stimuli/Vehicle.png,stimuli/Clothing.png,4,1,0,stimuli/m4.jpg,Clothing,stimuli/objects/shoelace.jpg,,,,,,,,,,,,,,,,,,,,,,,
1,"[0,0,0,1,1]",,,,,,,,,,,,,24,2021-11-25_10h07.02.887,premceCat2_ses-01_part-01_label-phase1,2020.2.9,MacIntel,60,,,,,1,1,1.4514,1,0,6,6,6,1,stimuli/m1.jpg,stimuli/m4.jpg,2,stimuli/Clothing.png,stimuli/Stationary & school supply.png,stimuli/Vehicle.png,stimuli/Gamestoy & entertainment.png,1,1,0,stimuli/m4.jpg,Clothing,stimuli/objects/moccasin.jpg,,,,,,,,,,,,,,,,,,,,,,,
1,"[0,0,0,1,1,1]",,,,,,,,,,,,,24,2021-11-25_10h07.02.887,premceCat2_ses-01_part-01_label-phase1,2020.2.9,MacIntel,60,,,,,2,1,1.0959,1,0,7,7,7,1,stimuli/m1.jpg,stimuli/m4.jpg,2,stimuli/Gamestoy & entertainment.png,stimuli/Clothing.png,stimuli/Stationary & school supply.png,stimuli/Vehicle.png,2,1,0,stimuli/m4.jpg,Clothing,stimuli/objects/waders.jpg,,,,,,,,,,,,,,,,,,,,,,,
1,"[0,0,0,1,1,1,1]",,,,,,,,,,,,,24,2021-11-25_10h07.02.887,premceCat2_ses-01_part-01_label-phase1,2020.2.9,MacIntel,60,,,,,3,1,1.4844,1,0,8,8,8,1,stimuli/m4.jpg,stimuli/m1.jpg,2,stimuli/Vehicle.png,stimuli/Gamestoy & entertainment.png,stimuli/Stationary & school supply.png,stimuli/Clothing.png,3,1,0,stimuli/m1.jpg,Stationary & school supply,stimuli/objects/eraser.jpg,,,,,,,,,,,,,,,,,,,,,,,
1,"[0,0,0,1,1,1,1,1]",,,,,,,,,,,,,24,2021-11-25_10h07.02.887,premceCat2_ses-01_part-01_label-phase1,2020.2.9,MacIntel,60,,,,,1,1,1.0268,1,0,9,9,9,1,stimuli/m4.jpg,stimuli/m1.jpg,2,stimuli/Stationary & school supply.png,stimuli/Vehicle.png,stimuli/Clothing.png,stimuli/Gamestoy & entertainment.png,1,1,0,stimuli/m1.jpg,Stationary & school supply,stimuli/objects/fountainpen.jpg,,,,,,,,,,,,,,,,,,,,,,,
1,"[0,0,0,1,1,1,1,1,1]",,,,,,,,,,,,,24,2021-11-25_10h07.02.887,premceCat2_ses-01_part-01_label-phase1,2020.2.9,MacIntel,60,,,,,2,1,0.8323,1,0,10,10,10,1,stimuli/m4.jpg,stimuli/m1.jpg,1,stimuli/Vehicle.png,stimuli/Clothing.png,stimuli/Stationary & school supply.png,stimuli/Gamestoy & entertainment.png,2,1,0,stimuli/m4.jpg,Clothing,stimuli/objects/visor.jpg,,,,,,,,,,,,,,,,,,,,,,,
1,"[0,0,0,1,1,1,1,1,1,1]",,,,,,,,,,,,,24,2021-11-25_10h07.02.887,premceCat2_ses-01_part-01_label-phase1,2020.2.9,MacIntel,60,,,,,2,1,0.6712,1,0,11,11,11,1,stimuli/m4.jpg,stimuli/m1.jpg,1,stimuli/Stationary & school supply.png,stimuli/Clothing.png,stimuli/Vehicle.png,stimuli/Gamestoy & entertainment.png,2,1,0,stimuli/m4.jpg,Clothing,stimuli/objects/mitten04.jpg,,,,,,,,,,,,,,,,,,,,,,,
,,,,,,,,,,,,,,24,2021-11-25_10h07.02.887,premceCat2_ses-01_part-01_label-phase1,2020.2.9,MacIntel,60,,,,,,,,,,,,,,,,,,,,,,,,,,,n,13.5814,1,0,1,0,1,,,,,,,,,,,,,,,,
1,"[0,0,0,1,1,1,1,1,1,1,1]",,,,,,,,,,,,,24,2021-11-25_10h07.02.887,premceCat2_ses-01_part-01_label-phase1,2020.2.9,MacIntel,60,,,,,,,,1,,,,,,stimuli/m2.jpg,stimuli/m5.jpg,2,stimuli/Outdoor activity & sport item.png,stimuli/Hand labour tool & accessory.png,stimuli/Electronic device & accessory.png,stimuli/Kitchen & utensil.png,2,1,1,stimuli/m5.jpg,,stimuli/objects/jumpingjack.jpg,,,,,,,,2,1,1.5257,0,0,0,0,1,Hand labour tool & accessory,,,,,,,
1,"[0,0,0,1,1,1,1,1,1,1,1,1]",,,,,,,,,,,,,24,2021-11-25_10h07.02.887,premceCat2_ses-01_part-01_label-phase1,2020.2.9,MacIntel,60,,,,,,,,1,,,,,,stimuli/m2.jpg,stimuli/m5.jpg,2,stimuli/Hand labour tool & accessory.png,stimuli/Outdoor activity & sport item.png,stimuli/Electronic device & accessory.png,stimuli/Kitchen & utensil.png,1,1,1,stimuli/m5.jpg,,stimuli/objects/boxcutter03a.jpg,,,,,,,,1,1,1.5211,0,1,1,1,1,Hand labour tool & accessory,,,,,,,
0,"[0,0,0,1,1,1,1,1,1,1,1,1,1]",,,,,,,,,,,,,24,2021-11-25_10h07.02.887,premceCat2_ses-01_part-01_label-phase1,2020.2.9,MacIntel,60,,,,,,,,1,,,,,,stimuli/m2.jpg,stimuli/m5.jpg,1,stimuli/Hand labour tool & accessory.png,stimuli/Kitchen & utensil.png,stimuli/Electronic device & accessory.png,stimuli/Outdoor activity & sport item.png,2,0,1,stimuli/m2.jpg,,stimuli/objects/huntingknife.jpg,,,,,,,,4,0,2.8337,0,2,2,2,1,Kitchen & utensil,,,,,,,
0,"[0,0,0,1,1,1,1,1,1,1,1,1,1]",,,,,,,,,,,,,24,2021-11-25_10h07.02.887,premceCat2_ses-01_part-01_label-phase1,2020.2.9,MacIntel,60,,,,,,,,0,,,,,,stimuli/m5.jpg,stimuli/m2.jpg,2,stimuli/Kitchen & utensil.png,stimuli/Electronic device & accessory.png,stimuli/Hand labour tool & accessory.png,stimuli/Outdoor activity & sport item.png,4,1,1,stimuli/m2.jpg,,stimuli/objects/footballhelmet.jpg,,,,,,,,3,0,3.4145,0,3,3,3,1,Outdoor activity & sport item,,,,,,,
1,"[0,0,0,1,1,1,1,1,1,1,1,1,1,0]",,,,,,,,,,,,,24,2021-11-25_10h07.02.887,premceCat2_ses-01_part-01_label-phase1,2020.2.9,MacIntel,60,,,,,,,,1,,,,,,stimuli/m5.jpg,stimuli/m2.jpg,1,stimuli/Outdoor activity & sport item.png,stimuli/Hand labour tool & accessory.png,stimuli/Kitchen & utensil.png,stimuli/Electronic device & accessory.png,2,1,1,stimuli/m5.jpg,,stimuli/objects/handrake01a.jpg,,,,,,,,2,1,1.7515,0,4,4,4,1,Hand labour tool & accessory,,,,,,,
1,"[0,0,0,1,1,1,1,1,1,1,1,1,1,0,1]",,,,,,,,,,,,,24,2021-11-25_10h07.02.887,premceCat2_ses-01_part-01_label-phase1,2020.2.9,MacIntel,60,,,,,,,,1,,,,,,stimuli/m2.jpg,stimuli/m5.jpg,1,stimuli/Outdoor activity & sport item.png,stimuli/Electronic device & accessory.png,stimuli/Hand labour tool & accessory.png,stimuli/Kitchen & utensil.png,1,1,1,stimuli/m2.jpg,,stimuli/objects/crosscountryski.jpg,,,,,,,,1,1,1.7577,0,5,5,5,1,Outdoor activity & sport item,,,,,,,
0,"[0,0,0,1,1,1,1,1,1,1,1,1,1,0,1,1]",,,,,,,,,,,,,24,2021-11-25_10h07.02.887,premceCat2_ses-01_part-01_label-phase1,2020.2.9,MacIntel,60,,,,,,,,0,,,,,,stimuli/m5.jpg,stimuli/m2.jpg,2,stimuli/Hand labour tool & accessory.png,stimuli/Electronic device & accessory.png,stimuli/Outdoor activity & sport item.png,stimuli/Kitchen & utensil.png,2,0,1,stimuli/m2.jpg,,stimuli/objects/television.jpg,,,,,,,,,0,,0,6,6,6,1,Electronic device & accessory,,,,,,,
0,"[0,0,0,1,1,1,1,1,1,1,1,1,1,0,1,1]",,,,,,,,,,,,,24,2021-11-25_10h07.02.887,premceCat2_ses-01_part-01_label-phase1,2020.2.9,MacIntel,60,,,,,,,,0,,,,,,stimuli/m5.jpg,stimuli/m2.jpg,2,stimuli/Kitchen & utensil.png,stimuli/Outdoor activity & sport item.png,stimuli/Hand labour tool & accessory.png,stimuli/Electronic device & accessory.png,2,1,1,stimuli/m2.jpg,,stimuli/objects/hose.jpg,,,,,,,,4,0,2.4491,0,7,7,7,1,Outdoor activity & sport item,,,,,,,
1,"[0,0,0,1,1,1,1,1,1,1,1,1,1,0,1,1,0]",,,,,,,,,,,,,24,2021-11-25_10h07.02.887,premceCat2_ses-01_part-01_label-phase1,2020.2.9,MacIntel,60,,,,,,,,1,,,,,,stimuli/m2.jpg,stimuli/m5.jpg,2,stimuli/Hand labour tool & accessory.png,stimuli/Electronic device & accessory.png,stimuli/Kitchen & utensil.png,stimuli/Outdoor activity & sport item.png,1,1,1,stimuli/m5.jpg,,stimuli/objects/solderingiron.jpg,,,,,,,,1,1,2.4884,0,8,8,8,1,Hand labour tool & accessory,,,,,,,
0,"[0,0,0,1,1,1,1,1,1,1,1,1,1,0,1,1,0,1]",,,,,,,,,,,,,24,2021-11-25_10h07.02.887,premceCat2_ses-01_part-01_label-phase1,2020.2.9,MacIntel,60,,,,,,,,0,,,,,,stimuli/m2.jpg,stimuli/m5.jpg,2,stimuli/Electronic device & accessory.png,stimuli/Kitchen & utensil.png,stimuli/Hand labour tool & accessory.png,stimuli/Outdoor activity & sport item.png,3,1,1,stimuli/m5.jpg,,stimuli/objects/gavel.jpg,,,,,,,,4,0,2.2055,0,9,9,9,1,Hand labour tool & accessory,,,,,,,
0,"[0,0,0,1,1,1,1,1,1,1,1,1,1,0,1,1,0,1,0]",,,,,,,,,,,,,24,2021-11-25_10h07.02.887,premceCat2_ses-01_part-01_label-phase1,2020.2.9,MacIntel,60,,,,,,,,0,,,,,,stimuli/m5.jpg,stimuli/m2.jpg,1,stimuli/Kitchen & utensil.png,stimuli/Electronic device & accessory.png,stimuli/Outdoor activity & sport item.png,stimuli/Hand labour tool & accessory.png,4,1,1,stimuli/m5.jpg,,stimuli/objects/boxcutter03a.jpg,,,,,,,,1,0,2.8531,0,10,10,10,1,Hand labour tool & accessory,,,,,,,
0,"[0,0,0,1,1,1,1,1,1,1,1,1,1,0,1,1,0,1,0,0]",,,,,,,,,,,,,24,2021-11-25_10h07.02.887,premceCat2_ses-01_part-01_label-phase1,2020.2.9,MacIntel,60,,,,,,,,0,,,,,,stimuli/m2.jpg,stimuli/m5.jpg,2,stimuli/Electronic device & accessory.png,stimuli/Hand labour tool & accessory.png,stimuli/Outdoor activity & sport item.png,stimuli/Kitchen & utensil.png,1,0,1,stimuli/m5.jpg,,stimuli/objects/walkietalkie.jpg,,,,,,,,2,0,2.4379,0,11,11,11,1,Electronic device & accessory,,,,,,,
0,"[0,0,0,1,1,1,1,1,1,1,1,1,1,0,1,1,0,1,0,0]",,,,,,,,,,,,,24,2021-11-25_10h07.02.887,premceCat2_ses-01_part-01_label-phase1,2020.2.9,MacIntel,60,,,,,,,,0,,,,,,stimuli/m2.jpg,stimuli/m5.jpg,1,stimuli/Kitchen & utensil.png,stimuli/Electronic device & accessory.png,stimuli/Hand labour tool & accessory.png,stimuli/Outdoor activity & sport item.png,1,0,1,stimuli/m2.jpg,,stimuli/objects/coffeemaker.jpg,,,,,,,,,0,,0,12,12,12,1,Kitchen & utensil,,,,,,,
0,"[0,0,0,1,1,1,1,1,1,1,1,1,1,0,1,1,0,1,0,0]",,,,,,,,,,,,,24,2021-11-25_10h07.02.887,premceCat2_ses-01_part-01_label-phase1,2020.2.9,MacIntel,60,,,,,,,,0,,,,,,stimuli/m5.jpg,stimuli/m2.jpg,2,stimuli/Outdoor activity & sport item.png,stimuli/Electronic device & accessory.png,stimuli/Kitchen & utensil.png,stimuli/Hand labour tool & accessory.png,1,1,1,stimuli/m2.jpg,,stimuli/objects/bicycle.jpg,,,,,,,,3,0,1.2218,0,13,13,13,1,Outdoor activity & sport item,,,,,,,
0,"[0,0,0,1,1,1,1,1,1,1,1,1,1,0,1,1,0,1,0,0,0]",,,,,,,,,,,,,24,2021-11-25_10h07.02.887,premceCat2_ses-01_part-01_label-phase1,2020.2.9,MacIntel,60,,,,,,,,0,,,,,,stimuli/m2.jpg,stimuli/m5.jpg,1,stimuli/Kitchen & utensil.png,stimuli/Outdoor activity & sport item.png,stimuli/Electronic device & accessory.png,stimuli/Hand labour tool & accessory.png,2,1,1,stimuli/m2.jpg,,stimuli/objects/punchingbag.jpg,,,,,,,,1,0,1.4959,0,14,14,14,1,Outdoor activity & sport item,,,,,,,
1,"[0,0,0,1,1,1,1,1,1,1,1,1,1,0,1,1,0,1,0,0,0,0]",,,,,,,,,,,,,24,2021-11-25_10h07.02.887,premceCat2_ses-01_part-01_label-phase1,2020.2.9,MacIntel,60,,,,,,,,0,,,,,,stimuli/m5.jpg,stimuli/m2.jpg,1,stimuli/Electronic device & accessory.png,stimuli/Outdoor activity & sport item.png,stimuli/Hand labour tool & accessory.png,stimuli/Kitchen & utensil.png,2,0,1,stimuli/m5.jpg,,stimuli/objects/footballhelmet.jpg,,,,,,,,2,1,1.3526,0,15,15,15,1,Outdoor activity & sport item,,,,,,,
1,"[0,0,0,1,1,1,1,1,1,1,1,1,1,0,1,1,0,1,0,0,0,0]",,,,,,,,,,,,,24,2021-11-25_10h07.02.887,premceCat2_ses-01_part-01_label-phase1,2020.2.9,MacIntel,60,,,,,,,,0,,,,,,stimuli/m5.jpg,stimuli/m2.jpg,1,stimuli/Kitchen & utensil.png,stimuli/Hand labour tool & accessory.png,stimuli/Electronic device & accessory.png,stimuli/Outdoor activity & sport item.png,4,0,1,stimuli/m5.jpg,,stimuli/objects/swing.jpg,,,,,,,,4,1,2.4214,0,16,16,16,1,Outdoor activity & sport item,,,,,,,
0,"[0,0,0,1,1,1,1,1,1,1,1,1,1,0,1,1,0,1,0,0,0,0]",,,,,,,,,,,,,24,2021-11-25_10h07.02.887,premceCat2_ses-01_part-01_label-phase1,2020.2.9,MacIntel,60,,,,,,,,0,,,,,,stimuli/m2.jpg,stimuli/m5.jpg,2,stimuli/Hand labour tool & accessory.png,stimuli/Electronic device & accessory.png,stimuli/Outdoor activity & sport item.png,stimuli/Kitchen & utensil.png,1,1,1,stimuli/m5.jpg,,stimuli/objects/pitchfork.jpg,,,,,,,,3,0,1.6135,0,17,17,17,1,Hand labour tool & accessory,,,,,,,
0,"[0,0,0,1,1,1,1,1,1,1,1,1,1,0,1,1,0,1,0,0,0,0,0]",,,,,,,,,,,,,24,2021-11-25_10h07.02.887,premceCat2_ses-01_part-01_label-phase1,2020.2.9,MacIntel,60,,,,,,,,0,,,,,,stimuli/m5.jpg,stimuli/m2.jpg,2,stimuli/Hand labour tool & accessory.png,stimuli/Outdoor activity & sport item.png,stimuli/Electronic device & accessory.png,stimuli/Kitchen & utensil.png,2,1,1,stimuli/m2.jpg,,stimuli/objects/bicycle.jpg,,,,,,,,3,0,2.5037,0,18,18,18,1,Outdoor activity & sport item,,,,,,,
0,"[0,0,0,1,1,1,1,1,1,1,1,1,1,0,1,1,0,1,0,0,0,0,0,0]",,,,,,,,,,,,,24,2021-11-25_10h07.02.887,premceCat2_ses-01_part-01_label-phase1,2020.2.9,MacIntel,60,,,,,,,,0,,,,,,stimuli/m5.jpg,stimuli/m2.jpg,1,stimuli/Hand labour tool & accessory.png,stimuli/Outdoor activity & sport item.png,stimuli/Kitchen & utensil.png,stimuli/Electronic device & accessory.png,3,0,1,stimuli/m5.jpg,,stimuli/objects/freezer02.jpg,,,,,,,,2,0,1.6467,0,19,19,19,1,Kitchen & utensil,,,,,,,
0,"[0,0,0,1,1,1,1,1,1,1,1,1,1,0,1,1,0,1,0,0,0,0,0,0]",,,,,,,,,,,,,24,2021-11-25_10h07.02.887,premceCat2_ses-01_part-01_label-phase1,2020.2.9,MacIntel,60,,,,,,,,0,,,,,,stimuli/m2.jpg,stimuli/m5.jpg,1,stimuli/Kitchen & utensil.png,stimuli/Hand labour tool & accessory.png,stimuli/Electronic device & accessory.png,stimuli/Outdoor activity & sport item.png,2,0,1,stimuli/m2.jpg,,stimuli/objects/handrake01a.jpg,,,,,,,,4,0,2.1455,0,20,20,20,1,Hand labour tool & accessory,,,,,,,
0,"[0,0,0,1,1,1,1,1,1,1,1,1,1,0,1,1,0,1,0,0,0,0,0,0]",,,,,,,,,,,,,24,2021-11-25_10h07.02.887,premceCat2_ses-01_part-01_label-phase1,2020.2.9,MacIntel,60,,,,,,,,0,,,,,,stimuli/m5.jpg,stimuli/m2.jpg,1,stimuli/Outdoor activity & sport item.png,stimuli/Electronic device & accessory.png,stimuli/Hand labour tool & accessory.png,stimuli/Kitchen & utensil.png,3,1,1,stimuli/m5.jpg,,stimuli/objects/jumpingjack.jpg,,,,,,,,1,0,2.3354,0,21,21,21,1,Hand labour tool & accessory,,,,,,,
1,"[0,0,0,1,1,1,1,1,1,1,1,1,1,0,1,1,0,1,0,0,0,0,0,0,0]",,,,,,,,,,,,,24,2021-11-25_10h07.02.887,premceCat2_ses-01_part-01_label-phase1,2020.2.9,MacIntel,60,,,,,,,,1,,,,,,stimuli/m5.jpg,stimuli/m2.jpg,2,stimuli/Electronic device & accessory.png,stimuli/Kitchen & utensil.png,stimuli/Hand labour tool & accessory.png,stimuli/Outdoor activity & sport item.png,4,1,1,stimuli/m2.jpg,,stimuli/objects/bicycle.jpg,,,,,,,,4,1,2.2524,0,22,22,22,1,Outdoor activity & sport item,,,,,,,
1,"[0,0,0,1,1,1,1,1,1,1,1,1,1,0,1,1,0,1,0,0,0,0,0,0,0,1]",,,,,,,,,,,,,24,2021-11-25_10h07.02.887,premceCat2_ses-01_part-01_label-phase1,2020.2.9,MacIntel,60,,,,,,,,1,,,,,,stimuli/m5.jpg,stimuli/m2.jpg,1,stimuli/Hand labour tool & accessory.png,stimuli/Outdoor activity & sport item.png,stimuli/Electronic device & accessory.png,stimuli/Kitchen & utensil.png,1,1,1,stimuli/m5.jpg,,stimuli/objects/jumpingjack.jpg,,,,,,,,1,1,2.1816,0,23,23,23,1,Hand labour tool & accessory,,,,,,,
0,"[0,0,0,1,1,1,1,1,1,1,1,1,1,0,1,1,0,1,0,0,0,0,0,0,0,1,1]",,,,,,,,,,,,,24,2021-11-25_10h07.02.887,premceCat2_ses-01_part-01_label-phase1,2020.2.9,MacIntel,60,,,,,,,,1,,,,,,stimuli/m2.jpg,stimuli/m5.jpg,2,stimuli/Outdoor activity & sport item.png,stimuli/Electronic device & accessory.png,stimuli/Hand labour tool & accessory.png,stimuli/Kitchen & utensil.png,4,0,1,stimuli/m5.jpg,,stimuli/objects/jug.jpg,,,,,,,,1,0,2.2478,0,24,24,24,1,Kitchen & utensil,,,,,,,
0,"[0,0,0,1,1,1,1,1,1,1,1,1,1,0,1,1,0,1,0,0,0,0,0,0,0,1,1]",,,,,,,,,,,,,24,2021-11-25_10h07.02.887,premceCat2_ses-01_part-01_label-phase1,2020.2.9,MacIntel,60,,,,,,,,0,,,,,,stimuli/m2.jpg,stimuli/m5.jpg,1,stimuli/Electronic device & accessory.png,stimuli/Hand labour tool & accessory.png,stimuli/Kitchen & utensil.png,stimuli/Outdoor activity & sport item.png,4,1,1,stimuli/m2.jpg,,stimuli/objects/racquetballracket.jpg,,,,,,,,3,0,1.4904,0,25,25,25,1,Outdoor activity & sport item,,,,,,,
0,"[0,0,0,1,1,1,1,1,1,1,1,1,1,0,1,1,0,1,0,0,0,0,0,0,0,1,1,0]",,,,,,,,,,,,,24,2021-11-25_10h07.02.887,premceCat2_ses-01_part-01_label-phase1,2020.2.9,MacIntel,60,,,,,,,,0,,,,,,stimuli/m2.jpg,stimuli/m5.jpg,2,stimuli/Kitchen & utensil.png,stimuli/Outdoor activity & sport item.png,stimuli/Electronic device & accessory.png,stimuli/Hand labour tool & accessory.png,4,1,1,stimuli/m5.jpg,,stimuli/objects/jumpingjack.jpg,,,,,,,,2,0,1.6328,0,26,26,26,1,Hand labour tool & accessory,,,,,,,
0,"[0,0,0,1,1,1,1,1,1,1,1,1,1,0,1,1,0,1,0,0,0,0,0,0,0,1,1,0,0]",,,,,,,,,,,,,24,2021-11-25_10h07.02.887,premceCat2_ses-01_part-01_label-phase1,2020.2.9,MacIntel,60,,,,,,,,0,,,,,,stimuli/m2.jpg,stimuli/m5.jpg,2,stimuli/Hand labour tool & accessory.png,stimuli/Kitchen & utensil.png,stimuli/Electronic device & accessory.png,stimuli/Outdoor activity & sport item.png,1,1,1,stimuli/m5.jpg,,stimuli/objects/hedgetrimmer.jpg,,,,,,,,3,0,2.7318,0,27,27,27,1,Hand labour tool & accessory,,,,,,,
0,"[0,0,0,1,1,1,1,1,1,1,1,1,1,0,1,1,0,1,0,0,0,0,0,0,0,1,1,0,0,0]",,,,,,,,,,,,,24,2021-11-25_10h07.02.887,premceCat2_ses-01_part-01_label-phase1,2020.2.9,MacIntel,60,,,,,,,,0,,,,,,stimuli/m5.jpg,stimuli/m2.jpg,1,stimuli/Kitchen & utensil.png,stimuli/Outdoor activity & sport item.png,stimuli/Electronic device & accessory.png,stimuli/Hand labour tool & accessory.png,4,1,1,stimuli/m5.jpg,,stimuli/objects/gavel.jpg,,,,,,,,2,0,1.5228,0,28,28,28,1,Hand labour tool & accessory,,,,,,,
1,"[0,0,0,1,1,1,1,1,1,1,1,1,1,0,1,1,0,1,0,0,0,0,0,0,0,1,1,0,0,0,0]",,,,,,,,,,,,,24,2021-11-25_10h07.02.887,premceCat2_ses-01_part-01_label-phase1,2020.2.9,MacIntel,60,,,,,,,,1,,,,,,stimuli/m2.jpg,stimuli/m5.jpg,2,stimuli/Electronic device & accessory.png,stimuli/Hand labour tool & accessory.png,stimuli/Kitchen & utensil.png,stimuli/Outdoor activity & sport item.png,2,1,1,stimuli/m5.jpg,,stimuli/objects/gavel.jpg,,,,,,,,2,1,3.7978,0,29,29,29,1,Hand labour tool & accessory,,,,,,,
1,"[0,0,0,1,1,1,1,1,1,1,1,1,1,0,1,1,0,1,0,0,0,0,0,0,0,1,1,0,0,0,0,1]",,,,,,,,,,,,,24,2021-11-25_10h07.02.887,premceCat2_ses-01_part-01_label-phase1,2020.2.9,MacIntel,60,,,,,,,,1,,,,,,stimuli/m2.jpg,stimuli/m5.jpg,1,stimuli/Kitchen & utensil.png,stimuli/Hand labour tool & accessory.png,stimuli/Outdoor activity & sport item.png,stimuli/Electronic device & accessory.png,3,1,1,stimuli/m2.jpg,,stimuli/objects/racquetballracket.jpg,,,,,,,,3,1,3.5973,0,30,30,30,1,Outdoor activity & sport item,,,,,,,
1,"[0,0,0,1,1,1,1,1,1,1,1,1,1,0,1,1,0,1,0,0,0,0,0,0,0,1,1,0,0,0,0,1,1]",,,,,,,,,,,,,24,2021-11-25_10h07.02.887,premceCat2_ses-01_part-01_label-phase1,2020.2.9,MacIntel,60,,,,,,,,1,,,,,,stimuli/m5.jpg,stimuli/m2.jpg,2,stimuli/Kitchen & utensil.png,stimuli/Electronic device & accessory.png,stimuli/Outdoor activity & sport item.png,stimuli/Hand labour tool & accessory.png,3,1,1,stimuli/m2.jpg,,stimuli/objects/punchingbag.jpg,,,,,,,,3,1,1.5579,0,31,31,31,1,Outdoor activity & sport item,,,,,,,
0,"[0,0,0,1,1,1,1,1,1,1,1,1,1,0,1,1,0,1,0,0,0,0,0,0,0,1,1,0,0,0,0,1,1,1]",,,,,,,,,,,,,24,2021-11-25_10h07.02.887,premceCat2_ses-01_part-01_label-phase1,2020.2.9,MacIntel,60,,,,,,,,1,,,,,,stimuli/m2.jpg,stimuli/m5.jpg,2,stimuli/Outdoor activity & sport item.png,stimuli/Hand labour tool & accessory.png,stimuli/Kitchen & utensil.png,stimuli/Electronic device & accessory.png,4,0,1,stimuli/m5.jpg,,stimuli/objects/camera01a.jpg,,,,,,,,2,0,2.4233,0,32,32,32,1,Electronic device & accessory,,,,,,,
0,"[0,0,0,1,1,1,1,1,1,1,1,1,1,0,1,1,0,1,0,0,0,0,0,0,0,1,1,0,0,0,0,1,1,1]",,,,,,,,,,,,,24,2021-11-25_10h07.02.887,premceCat2_ses-01_part-01_label-phase1,2020.2.9,MacIntel,60,,,,,,,,0,,,,,,stimuli/m2.jpg,stimuli/m5.jpg,2,stimuli/Outdoor activity & sport item.png,stimuli/Electronic device & accessory.png,stimuli/Kitchen & utensil.png,stimuli/Hand labour tool & accessory.png,4,1,1,stimuli/m5.jpg,,stimuli/objects/jumpingjack.jpg,,,,,,,,2,0,2.8094,0,33,33,33,1,Hand labour tool & accessory,,,,,,,
1,"[0,0,0,1,1,1,1,1,1,1,1,1,1,0,1,1,0,1,0,0,0,0,0,0,0,1,1,0,0,0,0,1,1,1,0]",,,,,,,,,,,,,24,2021-11-25_10h07.02.887,premceCat2_ses-01_part-01_label-phase1,2020.2.9,MacIntel,60,,,,,,,,1,,,,,,stimuli/m2.jpg,stimuli/m5.jpg,1,stimuli/Electronic device & accessory.png,stimuli/Kitchen & utensil.png,stimuli/Outdoor activity & sport item.png,stimuli/Hand labour tool & accessory.png,3,1,1,stimuli/m2.jpg,,stimuli/objects/swing.jpg,,,,,,,,3,1,1.6311,0,34,34,34,1,Outdoor activity & sport item,,,,,,,
0,"[0,0,0,1,1,1,1,1,1,1,1,1,1,0,1,1,0,1,0,0,0,0,0,0,0,1,1,0,0,0,0,1,1,1,0,1]",,,,,,,,,,,,,24,2021-11-25_10h07.02.887,premceCat2_ses-01_part-01_label-phase1,2020.2.9,MacIntel,60,,,,,,,,0,,,,,,stimuli/m5.jpg,stimuli/m2.jpg,1,stimuli/Hand labour tool & accessory.png,stimuli/Kitchen & utensil.png,stimuli/Outdoor activity & sport item.png,stimuli/Electronic device & accessory.png,1,1,1,stimuli/m5.jpg,,stimuli/objects/pitchfork.jpg,,,,,,,,4,0,2.5641,0,35,35,35,1,Hand labour tool & accessory,,,,,,,
1,"[0,0,0,1,1,1,1,1,1,1,1,1,1,0,1,1,0,1,0,0,0,0,0,0,0,1,1,0,0,0,0,1,1,1,0,1,0]",,,,,,,,,,,,,24,2021-11-25_10h07.02.887,premceCat2_ses-01_part-01_label-phase1,2020.2.9,MacIntel,60,,,,,,,,1,,,,,,stimuli/m2.jpg,stimuli/m5.jpg,1,stimuli/Electronic device & accessory.png,stimuli/Outdoor activity & sport item.png,stimuli/Hand labour tool & accessory.png,stimuli/Kitchen & utensil.png,2,1,1,stimuli/m2.jpg,,stimuli/objects/racquetballracket.jpg,,,,,,,,2,1,1.7431,0,36,36,36,1,Outdoor activity & sport item,,,,,,,
1,"[0,0,0,1,1,1,1,1,1,1,1,1,1,0,1,1,0,1,0,0,0,0,0,0,0,1,1,0,0,0,0,1,1,1,0,1,0,1]",,,,,,,,,,,,,24,2021-11-25_10h07.02.887,premceCat2_ses-01_part-01_label-phase1,2020.2.9,MacIntel,60,,,,,,,,1,,,,,,stimuli/m2.jpg,stimuli/m5.jpg,1,stimuli/Outdoor activity & sport item.png,stimuli/Hand labour tool & accessory.png,stimuli/Electronic device & accessory.png,stimuli/Kitchen & utensil.png,1,1,1,stimuli/m2.jpg,,stimuli/objects/telescope.jpg,,,,,,,,1,1,1.1442,0,37,37,37,1,Outdoor activity & sport item,,,,,,,
1,"[0,0,0,1,1,1,1,1,1,1,1,1,1,0,1,1,0,1,0,0,0,0,0,0,0,1,1,0,0,0,0,1,1,1,0,1,0,1,1]",,,,,,,,,,,,,24,2021-11-25_10h07.02.887,premceCat2_ses-01_part-01_label-phase1,2020.2.9,MacIntel,60,,,,,,,,1,,,,,,stimuli/m5.jpg,stimuli/m2.jpg,2,stimuli/Hand labour tool & accessory.png,stimuli/Kitchen & utensil.png,stimuli/Electronic device & accessory.png,stimuli/Outdoor activity & sport item.png,4,1,1,stimuli/m2.jpg,,stimuli/objects/footballhelmet.jpg,,,,,,,,4,1,1.963,0,38,38,38,1,Outdoor activity & sport item,,,,,,,
1,"[0,0,0,1,1,1,1,1,1,1,1,1,1,0,1,1,0,1,0,0,0,0,0,0,0,1,1,0,0,0,0,1,1,1,0,1,0,1,1,1]",,,,,,,,,,,,,24,2021-11-25_10h07.02.887,premceCat2_ses-01_part-01_label-phase1,2020.2.9,MacIntel,60,,,,,,,,1,,,,,,stimuli/m5.jpg,stimuli/m2.jpg,2,stimuli/Kitchen & utensil.png,stimuli/Hand labour tool & accessory.png,stimuli/Outdoor activity & sport item.png,stimuli/Electronic device & accessory.png,3,1,1,stimuli/m2.jpg,,stimuli/objects/swing.jpg,,,,,,,,3,1,1.5673,0,39,39,39,1,Outdoor activity & sport item,,,,,,,
0,"[0,0,0,1,1,1,1,1,1,1,1,1,1,0,1,1,0,1,0,0,0,0,0,0,0,1,1,0,0,0,0,1,1,1,0,1,0,1,1,1,1]",,,,,,,,,,,,,24,2021-11-25_10h07.02.887,premceCat2_ses-01_part-01_label-phase1,2020.2.9,MacIntel,60,,,,,,,,0,,,,,,stimuli/m5.jpg,stimuli/m2.jpg,1,stimuli/Outdoor activity & sport item.png,stimuli/Hand labour tool & accessory.png,stimuli/Electronic device & accessory.png,stimuli/Kitchen & utensil.png,2,1,1,stimuli/m5.jpg,,stimuli/objects/pitchfork.jpg,,,,,,,,4,0,3.4815,0,40,40,40,1,Hand labour tool & accessory,,,,,,,
1,"[0,0,0,1,1,1,1,1,1,1,1,1,1,0,1,1,0,1,0,0,0,0,0,0,0,1,1,0,0,0,0,1,1,1,0,1,0,1,1,1,1,0]",,,,,,,,,,,,,24,2021-11-25_10h07.02.887,premceCat2_ses-01_part-01_label-phase1,2020.2.9,MacIntel,60,,,,,,,,1,,,,,,stimuli/m2.jpg,stimuli/m5.jpg,1,stimuli/Hand labour tool & accessory.png,stimuli/Outdoor activity & sport item.png,stimuli/Electronic device & accessory.png,stimuli/Kitchen & utensil.png,2,1,1,stimuli/m2.jpg,,stimuli/objects/footballhelmet.jpg,,,,,,,,2,1,1.7094,0,41,41,41,1,Outdoor activity & sport item,,,,,,,
1,"[0,0,0,1,1,1,1,1,1,1,1,1,1,0,1,1,0,1,0,0,0,0,0,0,0,1,1,0,0,0,0,1,1,1,0,1,0,1,1,1,1,0,1]",,,,,,,,,,,,,24,2021-11-25_10h07.02.887,premceCat2_ses-01_part-01_label-phase1,2020.2.9,MacIntel,60,,,,,,,,1,,,,,,stimuli/m5.jpg,stimuli/m2.jpg,2,stimuli/Hand labour tool & accessory.png,stimuli/Outdoor activity & sport item.png,stimuli/Kitchen & utensil.png,stimuli/Electronic device & accessory.png,2,1,1,stimuli/m2.jpg,,stimuli/objects/rollerblade.jpg,,,,,,,,2,1,0.7672,0,42,42,42,1,Outdoor activity & sport item,,,,,,,
1,"[0,0,0,1,1,1,1,1,1,1,1,1,1,0,1,1,0,1,0,0,0,0,0,0,0,1,1,0,0,0,0,1,1,1,0,1,0,1,1,1,1,0,1,1]",,,,,,,,,,,,,24,2021-11-25_10h07.02.887,premceCat2_ses-01_part-01_label-phase1,2020.2.9,MacIntel,60,,,,,,,,1,,,,,,stimuli/m2.jpg,stimuli/m5.jpg,1,stimuli/Outdoor activity & sport item.png,stimuli/Kitchen & utensil.png,stimuli/Hand labour tool & accessory.png,stimuli/Electronic device & accessory.png,1,1,1,stimuli/m2.jpg,,stimuli/objects/crosscountryski.jpg,,,,,,,,1,1,1.7523,0,43,43,43,1,Outdoor activity & sport item,,,,,,,
0,"[0,0,0,1,1,1,1,1,1,1,1,1,1,0,1,1,0,1,0,0,0,0,0,0,0,1,1,0,0,0,0,1,1,1,0,1,0,1,1,1,1,0,1,1,1]",,,,,,,,,,,,,24,2021-11-25_10h07.02.887,premceCat2_ses-01_part-01_label-phase1,2020.2.9,MacIntel,60,,,,,,,,0,,,,,,stimuli/m5.jpg,stimuli/m2.jpg,1,stimuli/Kitchen & utensil.png,stimuli/Outdoor activity & sport item.png,stimuli/Hand labour tool & accessory.png,stimuli/Electronic device & accessory.png,3,1,1,stimuli/m5.jpg,,stimuli/objects/solderingiron.jpg,,,,,,,,2,0,1.4951,0,44,44,44,1,Hand labour tool & accessory,,,,,,,
0,"[0,0,0,1,1,1,1,1,1,1,1,1,1,0,1,1,0,1,0,0,0,0,0,0,0,1,1,0,0,0,0,1,1,1,0,1,0,1,1,1,1,0,1,1,1,0]",,,,,,,,,,,,,24,2021-11-25_10h07.02.887,premceCat2_ses-01_part-01_label-phase1,2020.2.9,MacIntel,60,,,,,,,,0,,,,,,stimuli/m5.jpg,stimuli/m2.jpg,2,stimuli/Kitchen & utensil.png,stimuli/Hand labour tool & accessory.png,stimuli/Electronic device & accessory.png,stimuli/Outdoor activity & sport item.png,2,0,1,stimuli/m2.jpg,,stimuli/objects/boxcutter03a.jpg,,,,,,,,4,0,2.2993,0,45,45,45,1,Hand labour tool & accessory,,,,,,,
0,"[0,0,0,1,1,1,1,1,1,1,1,1,1,0,1,1,0,1,0,0,0,0,0,0,0,1,1,0,0,0,0,1,1,1,0,1,0,1,1,1,1,0,1,1,1,0]",,,,,,,,,,,,,24,2021-11-25_10h07.02.887,premceCat2_ses-01_part-01_label-phase1,2020.2.9,MacIntel,60,,,,,,,,0,,,,,,stimuli/m2.jpg,stimuli/m5.jpg,2,stimuli/Kitchen & utensil.png,stimuli/Electronic device & accessory.png,stimuli/Hand labour tool & accessory.png,stimuli/Outdoor activity & sport item.png,3,1,1,stimuli/m5.jpg,,stimuli/objects/gavel.jpg,,,,,,,,4,0,2.1318,0,46,46,46,1,Hand labour tool & accessory,,,,,,,
1,"[0,0,0,1,1,1,1,1,1,1,1,1,1,0,1,1,0,1,0,0,0,0,0,0,0,1,1,0,0,0,0,1,1,1,0,1,0,1,1,1,1,0,1,1,1,0,0]",,,,,,,,,,,,,24,2021-11-25_10h07.02.887,premceCat2_ses-01_part-01_label-phase1,2020.2.9,MacIntel,60,,,,,,,,0,,,,,,stimuli/m5.jpg,stimuli/m2.jpg,2,stimuli/Outdoor activity & sport item.png,stimuli/Hand labour tool & accessory.png,stimuli/Kitchen & utensil.png,stimuli/Electronic device & accessory.png,4,0,1,stimuli/m2.jpg,,stimuli/objects/jack.jpg,,,,,,,,4,1,3.165,0,47,47,47,1,Electronic device & accessory,,,,,,,
,,,,,,,,,,,,,,24,2021-11-25_10h07.02.887,premceCat2_ses-01_part-01_label-phase1,2020.2.9,MacIntel,60,,,,,,,,,,,,,,,,,,,,,,,,,,,,,,,,,,,,,,,,,,,n,17.7755,0,0,0,0,1
