instructions_loop.thisRepN,instructions_loop.thisTrialN,instructions_loop.thisN,instructions_loop.thisIndex,instructions_loop.ran,text1,text2,text3,participant,date,expName,psychopyVersion,OS,frameRate,key_resp_2.keys,key_resp_2.rt,key_resp_3.keys,key_resp_3.rt,recog_resp.keys,recog_resp.rt,conf_resp.keys,conf_resp.rt,resp_assoc.keys,resp_assoc.rt,assoc_loop.thisRepN,assoc_loop.thisTrialN,assoc_loop.thisN,assoc_loop.thisIndex,assoc_loop.ran,recog_loop.thisRepN,recog_loop.thisTrialN,recog_loop.thisN,recog_loop.thisIndex,recog_loop.ran,images,corr_ans,type,order,key_resp_break.keys,key_resp_break.rt,list_loop.thisRepN,list_loop.thisTrialN,list_loop.thisN,list_loop.thisIndex,list_loop.ran,recog_list
0,0,0,0,1,Welcome to the last phase of this experiment!,.,Please press the space bar to continue,25,2021-11-26_13h32.04.971,premceCat2_ses-02_part-02_label-phase2,2020.2.10,Win32,60,,,,,,,,,,,,,,,,,,,,,,,,,,,,,,,,
0,1,1,1,1,.,"In this phase, you will see some objects. 

For each object, you should indicate whether you have seen it before during the experiment.

Press LEFT ARROW for YES
Press RIGHT ARROW for NO

",Please press the space bar to continue ,25,2021-11-26_13h32.04.971,premceCat2_ses-02_part-02_label-phase2,2020.2.10,Win32,60,,,,,,,,,,,,,,,,,,,,,,,,,,,,,,,,
0,2,2,2,1,.,"After that, you will be asked how confident you are of your choice.

Please rate the confidence in your choice with the numbers from 1 to 4 of your keyboard. 

The numbers correspond to:

1 = Very unsure
2 = Unsure
3 = Sure
4 = Very Sure",Please press the space bar to continue,25,2021-11-26_13h32.04.971,premceCat2_ses-02_part-02_label-phase2,2020.2.10,Win32,60,,,,,,,,,,,,,,,,,,,,,,,,,,,,,,,,
,,,,,,,,25,2021-11-26_13h32.04.971,premceCat2_ses-02_part-02_label-phase2,2020.2.10,Win32,60,space,7.8214,space,9.0865,left,3.3627,2,2.2365,left,3.6257,0,0,0,0,1,,,,,,,,,,,,,,,,,
,,,,,,,,25,2021-11-26_13h32.04.971,premceCat2_ses-02_part-02_label-phase2,2020.2.10,Win32,60,,,,,,,,,,,,,,,,0,0,0,97,1,stimuli/objects/coffeepot03a.jpg,left,old,241,,,,,,,,
,,,,,,,,25,2021-11-26_13h32.04.971,premceCat2_ses-02_part-02_label-phase2,2020.2.10,Win32,60,,,,,right,1.8999,2,1.0186,,,,,,,,0,1,1,87,1,stimuli/objects/wiicontroller.jpg,right,new,231,,,,,,,,
,,,,,,,,25,2021-11-26_13h32.04.971,premceCat2_ses-02_part-02_label-phase2,2020.2.10,Win32,60,,,,,left,1.0155,4,1.1861,left,1.2263,0,0,0,0,1,,,,,,,,,,,,,,,,,
,,,,,,,,25,2021-11-26_13h32.04.971,premceCat2_ses-02_part-02_label-phase2,2020.2.10,Win32,60,,,,,,,,,,,,,,,,0,2,2,57,1,stimuli/objects/soccerball.jpg,left,old,201,,,,,,,,
,,,,,,,,25,2021-11-26_13h32.04.971,premceCat2_ses-02_part-02_label-phase2,2020.2.10,Win32,60,,,,,right,1.5793,3,0.8669,,,,,,,,0,3,3,29,1,stimuli/objects/coffeemachine.jpg,left,old,173,,,,,,,,
,,,,,,,,25,2021-11-26_13h32.04.971,premceCat2_ses-02_part-02_label-phase2,2020.2.10,Win32,60,,,,,left,3.1703,1,0.9038,right,0.4486,0,0,0,0,1,,,,,,,,,,,,,,,,,
,,,,,,,,25,2021-11-26_13h32.04.971,premceCat2_ses-02_part-02_label-phase2,2020.2.10,Win32,60,,,,,,,,,,,,,,,,0,4,4,114,1,stimuli/objects/drinkshaker.jpg,right,new,258,,,,,,,,
,,,,,,,,25,2021-11-26_13h32.04.971,premceCat2_ses-02_part-02_label-phase2,2020.2.10,Win32,60,,,,,right,1.0883,3,0.465,,,,,,,,0,5,5,103,1,stimuli/objects/swissarmyknife01a.jpg,right,new,247,,,,,,,,
,,,,,,,,25,2021-11-26_13h32.04.971,premceCat2_ses-02_part-02_label-phase2,2020.2.10,Win32,60,,,,,left,2.0668,3,0.4104,left,1.2731,0,0,0,0,1,,,,,,,,,,,,,,,,,
,,,,,,,,25,2021-11-26_13h32.04.971,premceCat2_ses-02_part-02_label-phase2,2020.2.10,Win32,60,,,,,,,,,,,,,,,,0,6,6,84,1,stimuli/objects/patioumbrella.jpg,left,old,228,,,,,,,,
,,,,,,,,25,2021-11-26_13h32.04.971,premceCat2_ses-02_part-02_label-phase2,2020.2.10,Win32,60,,,,,right,1.5963,2,0.5299,,,,,,,,0,7,7,9,1,stimuli/objects/alarmsystem.jpg,right,new,153,,,,,,,,
,,,,,,,,25,2021-11-26_13h32.04.971,premceCat2_ses-02_part-02_label-phase2,2020.2.10,Win32,60,,,,,left,1.1139,4,0.4742,left,1.2191,0,0,0,0,1,,,,,,,,,,,,,,,,,
,,,,,,,,25,2021-11-26_13h32.04.971,premceCat2_ses-02_part-02_label-phase2,2020.2.10,Win32,60,,,,,,,,,,,,,,,,0,8,8,141,1,stimuli/objects/spatula04.jpg,left,old,285,,,,,,,,
,,,,,,,,25,2021-11-26_13h32.04.971,premceCat2_ses-02_part-02_label-phase2,2020.2.10,Win32,60,,,,,right,1.3151,3,0.8611,,,,,,,,0,9,9,121,1,stimuli/objects/parachute.jpg,right,new,265,,,,,,,,
,,,,,,,,25,2021-11-26_13h32.04.971,premceCat2_ses-02_part-02_label-phase2,2020.2.10,Win32,60,,,,,left,0.8685,4,0.3144,left,2.3898,0,0,0,0,1,,,,,,,,,,,,,,,,,
,,,,,,,,25,2021-11-26_13h32.04.971,premceCat2_ses-02_part-02_label-phase2,2020.2.10,Win32,60,,,,,,,,,,,,,,,,0,10,10,31,1,stimuli/objects/hockeygoaliemask.jpg,left,old,175,,,,,,,,
,,,,,,,,25,2021-11-26_13h32.04.971,premceCat2_ses-02_part-02_label-phase2,2020.2.10,Win32,60,,,,,left,1.2142,4,0.4484,right,0.5258,0,0,0,0,1,,,,,,,,,,,,,,,,,
,,,,,,,,25,2021-11-26_13h32.04.971,premceCat2_ses-02_part-02_label-phase2,2020.2.10,Win32,60,,,,,,,,,,,,,,,,0,11,11,11,1,stimuli/objects/fuse.jpg,left,old,155,,,,,,,,
,,,,,,,,25,2021-11-26_13h32.04.971,premceCat2_ses-02_part-02_label-phase2,2020.2.10,Win32,60,,,,,right,1.8534,2,0.7601,,,,,,,,0,12,12,94,1,stimuli/objects/file.jpg,right,new,238,,,,,,,,
,,,,,,,,25,2021-11-26_13h32.04.971,premceCat2_ses-02_part-02_label-phase2,2020.2.10,Win32,60,,,,,left,0.8355,4,0.5085,right,1.519,0,0,0,0,1,,,,,,,,,,,,,,,,,
,,,,,,,,25,2021-11-26_13h32.04.971,premceCat2_ses-02_part-02_label-phase2,2020.2.10,Win32,60,,,,,,,,,,,,,,,,0,13,13,105,1,stimuli/objects/gasburner.jpg,left,old,249,,,,,,,,
,,,,,,,,25,2021-11-26_13h32.04.971,premceCat2_ses-02_part-02_label-phase2,2020.2.10,Win32,60,,,,,left,0.9773,4,0.3529,right,0.3638,0,0,0,0,1,,,,,,,,,,,,,,,,,
,,,,,,,,25,2021-11-26_13h32.04.971,premceCat2_ses-02_part-02_label-phase2,2020.2.10,Win32,60,,,,,,,,,,,,,,,,0,14,14,113,1,stimuli/objects/gluetube.jpg,left,old,257,,,,,,,,
,,,,,,,,25,2021-11-26_13h32.04.971,premceCat2_ses-02_part-02_label-phase2,2020.2.10,Win32,60,,,,,left,1.3315,2,0.4706,left,1.7232,0,0,0,0,1,,,,,,,,,,,,,,,,,
,,,,,,,,25,2021-11-26_13h32.04.971,premceCat2_ses-02_part-02_label-phase2,2020.2.10,Win32,60,,,,,,,,,,,,,,,,0,15,15,32,1,stimuli/objects/pastaspoon.jpg,left,old,176,,,,,,,,
,,,,,,,,25,2021-11-26_13h32.04.971,premceCat2_ses-02_part-02_label-phase2,2020.2.10,Win32,60,,,,,left,1.3105,3,0.9721,right,2.6045,0,0,0,0,1,,,,,,,,,,,,,,,,,
,,,,,,,,25,2021-11-26_13h32.04.971,premceCat2_ses-02_part-02_label-phase2,2020.2.10,Win32,60,,,,,,,,,,,,,,,,0,16,16,88,1,stimuli/objects/kiddiepool.jpg,left,old,232,,,,,,,,
,,,,,,,,25,2021-11-26_13h32.04.971,premceCat2_ses-02_part-02_label-phase2,2020.2.10,Win32,60,,,,,right,1.3713,1,0.4608,,,,,,,,0,17,17,49,1,stimuli/objects/cakeplatter.jpg,right,new,193,,,,,,,,
,,,,,,,,25,2021-11-26_13h32.04.971,premceCat2_ses-02_part-02_label-phase2,2020.2.10,Win32,60,,,,,left,1.4119,2,0.3187,right,1.293,0,0,0,0,1,,,,,,,,,,,,,,,,,
,,,,,,,,25,2021-11-26_13h32.04.971,premceCat2_ses-02_part-02_label-phase2,2020.2.10,Win32,60,,,,,,,,,,,,,,,,0,18,18,25,1,stimuli/objects/jar02.jpg,left,old,169,,,,,,,,
,,,,,,,,25,2021-11-26_13h32.04.971,premceCat2_ses-02_part-02_label-phase2,2020.2.10,Win32,60,,,,,left,0.8103,4,0.395,left,0.2944,0,0,0,0,1,,,,,,,,,,,,,,,,,
,,,,,,,,25,2021-11-26_13h32.04.971,premceCat2_ses-02_part-02_label-phase2,2020.2.10,Win32,60,,,,,,,,,,,,,,,,0,19,19,71,1,stimuli/objects/handgripper.jpg,left,old,215,,,,,,,,
,,,,,,,,25,2021-11-26_13h32.04.971,premceCat2_ses-02_part-02_label-phase2,2020.2.10,Win32,60,,,,,right,0.9175,2,0.4775,,,,,,,,0,20,20,35,1,stimuli/objects/stroller.jpg,right,new,179,,,,,,,,
,,,,,,,,25,2021-11-26_13h32.04.971,premceCat2_ses-02_part-02_label-phase2,2020.2.10,Win32,60,,,,,right,2.0504,1,0.3851,,,,,,,,0,21,21,5,1,stimuli/objects/pickaxe02.jpg,right,new,149,,,,,,,,
,,,,,,,,25,2021-11-26_13h32.04.971,premceCat2_ses-02_part-02_label-phase2,2020.2.10,Win32,60,,,,,left,1.7813,1,0.2895,right,0.9907,0,0,0,0,1,,,,,,,,,,,,,,,,,
,,,,,,,,25,2021-11-26_13h32.04.971,premceCat2_ses-02_part-02_label-phase2,2020.2.10,Win32,60,,,,,,,,,,,,,,,,0,22,22,112,1,stimuli/objects/telephone01b.jpg,left,old,256,,,,,,,,
,,,,,,,,25,2021-11-26_13h32.04.971,premceCat2_ses-02_part-02_label-phase2,2020.2.10,Win32,60,,,,,right,0.786,3,0.8902,,,,,,,,0,23,23,2,1,stimuli/objects/wetfloorsign.jpg,right,new,146,,,,,,,,
,,,,,,,,25,2021-11-26_13h32.04.971,premceCat2_ses-02_part-02_label-phase2,2020.2.10,Win32,60,,,,,left,0.9635,4,0.5361,right,1.9356,0,0,0,0,1,,,,,,,,,,,,,,,,,
,,,,,,,,25,2021-11-26_13h32.04.971,premceCat2_ses-02_part-02_label-phase2,2020.2.10,Win32,60,,,,,,,,,,,,,,,,0,24,24,7,1,stimuli/objects/dishrack.jpg,left,old,151,,,,,,,,
,,,,,,,,25,2021-11-26_13h32.04.971,premceCat2_ses-02_part-02_label-phase2,2020.2.10,Win32,60,,,,,left,1.1661,4,0.386,left,0.521,0,0,0,0,1,,,,,,,,,,,,,,,,,
,,,,,,,,25,2021-11-26_13h32.04.971,premceCat2_ses-02_part-02_label-phase2,2020.2.10,Win32,60,,,,,,,,,,,,,,,,0,25,25,139,1,stimuli/objects/toothpick02.jpg,left,old,283,,,,,,,,
,,,,,,,,25,2021-11-26_13h32.04.971,premceCat2_ses-02_part-02_label-phase2,2020.2.10,Win32,60,,,,,left,0.8854,4,0.4004,right,0.2974,0,0,0,0,1,,,,,,,,,,,,,,,,,
,,,,,,,,25,2021-11-26_13h32.04.971,premceCat2_ses-02_part-02_label-phase2,2020.2.10,Win32,60,,,,,,,,,,,,,,,,0,26,26,1,1,stimuli/objects/photocopier.jpg,left,old,145,,,,,,,,
,,,,,,,,25,2021-11-26_13h32.04.971,premceCat2_ses-02_part-02_label-phase2,2020.2.10,Win32,60,,,,,left,0.7475,4,0.3202,left,1.6696,0,0,0,0,1,,,,,,,,,,,,,,,,,
,,,,,,,,25,2021-11-26_13h32.04.971,premceCat2_ses-02_part-02_label-phase2,2020.2.10,Win32,60,,,,,,,,,,,,,,,,0,27,27,77,1,stimuli/objects/corkscrew03a.jpg,left,old,221,,,,,,,,
,,,,,,,,25,2021-11-26_13h32.04.971,premceCat2_ses-02_part-02_label-phase2,2020.2.10,Win32,60,,,,,right,1.1809,3,0.2879,,,,,,,,0,28,28,82,1,stimuli/objects/shopvac.jpg,right,new,226,,,,,,,,
,,,,,,,,25,2021-11-26_13h32.04.971,premceCat2_ses-02_part-02_label-phase2,2020.2.10,Win32,60,,,,,left,1.0821,3,0.2955,right,1.0204,0,0,0,0,1,,,,,,,,,,,,,,,,,
,,,,,,,,25,2021-11-26_13h32.04.971,premceCat2_ses-02_part-02_label-phase2,2020.2.10,Win32,60,,,,,,,,,,,,,,,,0,29,29,89,1,stimuli/objects/saladspinner.jpg,left,old,233,,,,,,,,
,,,,,,,,25,2021-11-26_13h32.04.971,premceCat2_ses-02_part-02_label-phase2,2020.2.10,Win32,60,,,,,right,0.8601,4,0.3742,,,,,,,,0,30,30,120,1,stimuli/objects/tent.jpg,right,new,264,,,,,,,,
,,,,,,,,25,2021-11-26_13h32.04.971,premceCat2_ses-02_part-02_label-phase2,2020.2.10,Win32,60,,,,,left,1.6204,2,0.3764,right,1.084,0,0,0,0,1,,,,,,,,,,,,,,,,,
,,,,,,,,25,2021-11-26_13h32.04.971,premceCat2_ses-02_part-02_label-phase2,2020.2.10,Win32,60,,,,,,,,,,,,,,,,0,31,31,43,1,stimuli/objects/bowrake.jpg,right,new,187,,,,,,,,
,,,,,,,,25,2021-11-26_13h32.04.971,premceCat2_ses-02_part-02_label-phase2,2020.2.10,Win32,60,,,,,left,1.0237,4,0.7132,left,0.8179,0,0,0,0,1,,,,,,,,,,,,,,,,,
,,,,,,,,25,2021-11-26_13h32.04.971,premceCat2_ses-02_part-02_label-phase2,2020.2.10,Win32,60,,,,,,,,,,,,,,,,0,32,32,28,1,stimuli/objects/spoon01.jpg,left,old,172,,,,,,,,
,,,,,,,,25,2021-11-26_13h32.04.971,premceCat2_ses-02_part-02_label-phase2,2020.2.10,Win32,60,,,,,left,1.0101,2,0.6209,left,0.8121,0,0,0,0,1,,,,,,,,,,,,,,,,,
,,,,,,,,25,2021-11-26_13h32.04.971,premceCat2_ses-02_part-02_label-phase2,2020.2.10,Win32,60,,,,,,,,,,,,,,,,0,33,33,68,1,stimuli/objects/ladle02a.jpg,right,new,212,,,,,,,,
,,,,,,,,25,2021-11-26_13h32.04.971,premceCat2_ses-02_part-02_label-phase2,2020.2.10,Win32,60,,,,,left,0.9628,4,0.2747,right,0.3974,0,0,0,0,1,,,,,,,,,,,,,,,,,
,,,,,,,,25,2021-11-26_13h32.04.971,premceCat2_ses-02_part-02_label-phase2,2020.2.10,Win32,60,,,,,,,,,,,,,,,,0,34,34,27,1,stimuli/objects/hedgeshears.jpg,left,old,171,,,,,,,,
,,,,,,,,25,2021-11-26_13h32.04.971,premceCat2_ses-02_part-02_label-phase2,2020.2.10,Win32,60,,,,,left,1.9103,1,0.2357,left,0.2606,0,0,0,0,1,,,,,,,,,,,,,,,,,
,,,,,,,,25,2021-11-26_13h32.04.971,premceCat2_ses-02_part-02_label-phase2,2020.2.10,Win32,60,,,,,,,,,,,,,,,,0,35,35,104,1,stimuli/objects/lamp04a.jpg,left,old,248,,,,,,,,
,,,,,,,,25,2021-11-26_13h32.04.971,premceCat2_ses-02_part-02_label-phase2,2020.2.10,Win32,60,,,,,right,1.5417,2,1.0867,,,,,,,,0,36,36,69,1,stimuli/objects/straw.jpg,right,new,213,,,,,,,,
,,,,,,,,25,2021-11-26_13h32.04.971,premceCat2_ses-02_part-02_label-phase2,2020.2.10,Win32,60,,,,,left,0.8933,3,0.3916,right,0.3191,0,0,0,0,1,,,,,,,,,,,,,,,,,
,,,,,,,,25,2021-11-26_13h32.04.971,premceCat2_ses-02_part-02_label-phase2,2020.2.10,Win32,60,,,,,,,,,,,,,,,,0,37,37,73,1,stimuli/objects/propanetank01.jpg,left,old,217,,,,,,,,
,,,,,,,,25,2021-11-26_13h32.04.971,premceCat2_ses-02_part-02_label-phase2,2020.2.10,Win32,60,,,,,right,1.0409,2,0.239,,,,,,,,0,38,38,124,1,stimuli/objects/basketball01.jpg,right,new,268,,,,,,,,
,,,,,,,,25,2021-11-26_13h32.04.971,premceCat2_ses-02_part-02_label-phase2,2020.2.10,Win32,60,,,,,left,0.7432,3,0.2987,right,0.3354,0,0,0,0,1,,,,,,,,,,,,,,,,,
,,,,,,,,25,2021-11-26_13h32.04.971,premceCat2_ses-02_part-02_label-phase2,2020.2.10,Win32,60,,,,,,,,,,,,,,,,0,39,39,91,1,stimuli/objects/cuttingpliers02.jpg,right,new,235,,,,,,,,
,,,,,,,,25,2021-11-26_13h32.04.971,premceCat2_ses-02_part-02_label-phase2,2020.2.10,Win32,60,,,,,left,1.209,2,0.2406,right,0.5361,0,0,0,0,1,,,,,,,,,,,,,,,,,
,,,,,,,,25,2021-11-26_13h32.04.971,premceCat2_ses-02_part-02_label-phase2,2020.2.10,Win32,60,,,,,,,,,,,,,,,,0,40,40,66,1,stimuli/objects/heatpump.jpg,right,new,210,,,,,,,,
,,,,,,,,25,2021-11-26_13h32.04.971,premceCat2_ses-02_part-02_label-phase2,2020.2.10,Win32,60,,,,,left,1.1983,2,0.1919,right,0.2668,0,0,0,0,1,,,,,,,,,,,,,,,,,
,,,,,,,,25,2021-11-26_13h32.04.971,premceCat2_ses-02_part-02_label-phase2,2020.2.10,Win32,60,,,,,,,,,,,,,,,,0,41,41,116,1,stimuli/objects/lockingplier.jpg,right,new,260,,,,,,,,
,,,,,,,,25,2021-11-26_13h32.04.971,premceCat2_ses-02_part-02_label-phase2,2020.2.10,Win32,60,,,,,right,2.6772,2,0.8799,,,,,,,,0,42,42,16,1,stimuli/objects/bottleopener01.jpg,right,new,160,,,,,,,,
,,,,,,,,25,2021-11-26_13h32.04.971,premceCat2_ses-02_part-02_label-phase2,2020.2.10,Win32,60,,,,,left,1.5596,4,0.8847,left,0.3692,0,0,0,0,1,,,,,,,,,,,,,,,,,
,,,,,,,,25,2021-11-26_13h32.04.971,premceCat2_ses-02_part-02_label-phase2,2020.2.10,Win32,60,,,,,,,,,,,,,,,,0,43,43,62,1,stimuli/objects/hourglass.jpg,left,old,206,,,,,,,,
,,,,,,,,25,2021-11-26_13h32.04.971,premceCat2_ses-02_part-02_label-phase2,2020.2.10,Win32,60,,,,,left,0.7481,4,0.2597,left,0.3041,0,0,0,0,1,,,,,,,,,,,,,,,,,
,,,,,,,,25,2021-11-26_13h32.04.971,premceCat2_ses-02_part-02_label-phase2,2020.2.10,Win32,60,,,,,,,,,,,,,,,,0,44,44,130,1,stimuli/objects/fan.jpg,left,old,274,,,,,,,,
,,,,,,,,25,2021-11-26_13h32.04.971,premceCat2_ses-02_part-02_label-phase2,2020.2.10,Win32,60,,,,,left,0.8989,4,0.4292,left,0.5671,0,0,0,0,1,,,,,,,,,,,,,,,,,
,,,,,,,,25,2021-11-26_13h32.04.971,premceCat2_ses-02_part-02_label-phase2,2020.2.10,Win32,60,,,,,,,,,,,,,,,,0,45,45,42,1,stimuli/objects/tennisracket.jpg,right,new,186,,,,,,,,
,,,,,,,,25,2021-11-26_13h32.04.971,premceCat2_ses-02_part-02_label-phase2,2020.2.10,Win32,60,,,,,left,0.7734,4,0.6081,left,0.2575,0,0,0,0,1,,,,,,,,,,,,,,,,,
,,,,,,,,25,2021-11-26_13h32.04.971,premceCat2_ses-02_part-02_label-phase2,2020.2.10,Win32,60,,,,,,,,,,,,,,,,0,46,46,126,1,stimuli/objects/badmintonracket.jpg,left,old,270,,,,,,,,
,,,,,,,,25,2021-11-26_13h32.04.971,premceCat2_ses-02_part-02_label-phase2,2020.2.10,Win32,60,,,,,right,1.5126,2,0.5823,,,,,,,,0,47,47,135,1,stimuli/objects/mortarandpestle.jpg,right,new,279,,,,,,,,
,,,,,,,,25,2021-11-26_13h32.04.971,premceCat2_ses-02_part-02_label-phase2,2020.2.10,Win32,60,,,,,right,1.7949,1,0.169,,,,,,,,0,48,48,6,1,stimuli/objects/solderingwire.jpg,right,new,150,,,,,,,,
,,,,,,,,25,2021-11-26_13h32.04.971,premceCat2_ses-02_part-02_label-phase2,2020.2.10,Win32,60,,,,,right,1.5531,3,0.8742,,,,,,,,0,49,49,86,1,stimuli/objects/trampoline.jpg,right,new,230,,,,,,,,
,,,,,,,,25,2021-11-26_13h32.04.971,premceCat2_ses-02_part-02_label-phase2,2020.2.10,Win32,60,,,,,right,1.0484,2,0.8578,,,,,,,,0,50,50,40,1,stimuli/objects/tablesaw.jpg,right,new,184,,,,,,,,
,,,,,,,,25,2021-11-26_13h32.04.971,premceCat2_ses-02_part-02_label-phase2,2020.2.10,Win32,60,,,,,right,1.0562,2,0.2612,,,,,,,,0,51,51,4,1,stimuli/objects/cassettetape01a.jpg,right,new,148,,,,,,,,
,,,,,,,,25,2021-11-26_13h32.04.971,premceCat2_ses-02_part-02_label-phase2,2020.2.10,Win32,60,,,,,right,1.2342,2,0.2563,,,,,,,,0,52,52,108,1,stimuli/objects/crocodileclips.jpg,left,old,252,,,,,,,,
,,,,,,,,25,2021-11-26_13h32.04.971,premceCat2_ses-02_part-02_label-phase2,2020.2.10,Win32,60,,,,,left,0.7276,4,0.2111,left,0.2416,0,0,0,0,1,,,,,,,,,,,,,,,,,
,,,,,,,,25,2021-11-26_13h32.04.971,premceCat2_ses-02_part-02_label-phase2,2020.2.10,Win32,60,,,,,,,,,,,,,,,,0,53,53,50,1,stimuli/objects/iceskate.jpg,left,old,194,,,,,,,,
,,,,,,,,25,2021-11-26_13h32.04.971,premceCat2_ses-02_part-02_label-phase2,2020.2.10,Win32,60,,,,,left,1.7302,2,0.3221,right,0.3126,0,0,0,0,1,,,,,,,,,,,,,,,,,
,,,,,,,,25,2021-11-26_13h32.04.971,premceCat2_ses-02_part-02_label-phase2,2020.2.10,Win32,60,,,,,,,,,,,,,,,,0,54,54,129,1,stimuli/objects/snowblower.jpg,left,old,273,,,,,,,,
,,,,,,,,25,2021-11-26_13h32.04.971,premceCat2_ses-02_part-02_label-phase2,2020.2.10,Win32,60,,,,,right,0.9701,2,0.2278,,,,,,,,0,55,55,111,1,stimuli/objects/diaperbag.jpg,right,new,255,,,,,,,,
,,,,,,,,25,2021-11-26_13h32.04.971,premceCat2_ses-02_part-02_label-phase2,2020.2.10,Win32,60,,,,,right,0.7887,3,1.0271,,,,,,,,0,56,56,60,1,stimuli/objects/kite.jpg,right,new,204,,,,,,,,
,,,,,,,,25,2021-11-26_13h32.04.971,premceCat2_ses-02_part-02_label-phase2,2020.2.10,Win32,60,,,,,left,0.8386,3,1.1205,right,0.5521,0,0,0,0,1,,,,,,,,,,,,,,,,,
,,,,,,,,25,2021-11-26_13h32.04.971,premceCat2_ses-02_part-02_label-phase2,2020.2.10,Win32,60,,,,,,,,,,,,,,,,0,57,57,85,1,stimuli/objects/usbcable01a.jpg,left,old,229,,,,,,,,
,,,,,,,,25,2021-11-26_13h32.04.971,premceCat2_ses-02_part-02_label-phase2,2020.2.10,Win32,60,,,,,left,0.8823,4,0.2054,left,0.3248,0,0,0,0,1,,,,,,,,,,,,,,,,,
,,,,,,,,25,2021-11-26_13h32.04.971,premceCat2_ses-02_part-02_label-phase2,2020.2.10,Win32,60,,,,,,,,,,,,,,,,0,58,58,22,1,stimuli/objects/hoe.jpg,left,old,166,,,,,,,,
,,,,,,,,25,2021-11-26_13h32.04.971,premceCat2_ses-02_part-02_label-phase2,2020.2.10,Win32,60,,,,,left,1.6355,2,0.0852,right,0.1895,0,0,0,0,1,,,,,,,,,,,,,,,,,
,,,,,,,,25,2021-11-26_13h32.04.971,premceCat2_ses-02_part-02_label-phase2,2020.2.10,Win32,60,,,,,,,,,,,,,,,,0,59,59,65,1,stimuli/objects/jigsaw.jpg,left,old,209,,,,,,,,
,,,,,,,,25,2021-11-26_13h32.04.971,premceCat2_ses-02_part-02_label-phase2,2020.2.10,Win32,60,,,,,left,1.5661,2,0.5697,right,0.2905,0,0,0,0,1,,,,,,,,,,,,,,,,,
,,,,,,,,25,2021-11-26_13h32.04.971,premceCat2_ses-02_part-02_label-phase2,2020.2.10,Win32,60,,,,,,,,,,,,,,,,0,60,60,132,1,stimuli/objects/wirestripper.jpg,right,new,276,,,,,,,,
,,,,,,,,25,2021-11-26_13h32.04.971,premceCat2_ses-02_part-02_label-phase2,2020.2.10,Win32,60,,,,,left,1.4623,4,0.3203,left,0.284,0,0,0,0,1,,,,,,,,,,,,,,,,,
,,,,,,,,25,2021-11-26_13h32.04.971,premceCat2_ses-02_part-02_label-phase2,2020.2.10,Win32,60,,,,,,,,,,,,,,,,0,61,61,109,1,stimuli/objects/waterbottle03.jpg,left,old,253,,,,,,,,
,,,,,,,,25,2021-11-26_13h32.04.971,premceCat2_ses-02_part-02_label-phase2,2020.2.10,Win32,60,,,,,right,1.077,2,0.2413,,,,,,,,0,62,62,81,1,stimuli/objects/grill.jpg,right,new,225,,,,,,,,
,,,,,,,,25,2021-11-26_13h32.04.971,premceCat2_ses-02_part-02_label-phase2,2020.2.10,Win32,60,,,,,left,0.9,2,0.2373,left,0.3791,0,0,0,0,1,,,,,,,,,,,,,,,,,
,,,,,,,,25,2021-11-26_13h32.04.971,premceCat2_ses-02_part-02_label-phase2,2020.2.10,Win32,60,,,,,,,,,,,,,,,,0,63,63,140,1,stimuli/objects/wineglass01.jpg,right,new,284,,,,,,,,
,,,,,,,,25,2021-11-26_13h32.04.971,premceCat2_ses-02_part-02_label-phase2,2020.2.10,Win32,60,,,,,left,1.2493,3,0.5043,right,1.2631,0,0,0,0,1,,,,,,,,,,,,,,,,,
,,,,,,,,25,2021-11-26_13h32.04.971,premceCat2_ses-02_part-02_label-phase2,2020.2.10,Win32,60,,,,,,,,,,,,,,,,0,64,64,14,1,stimuli/objects/boatmotor.jpg,left,old,158,,,,,,,,
,,,,,,,,25,2021-11-26_13h32.04.971,premceCat2_ses-02_part-02_label-phase2,2020.2.10,Win32,60,,,,,right,0.9622,3,0.1576,,,,,,,,0,65,65,51,1,stimuli/objects/cheeseknife01.jpg,right,new,195,,,,,,,,
,,,,,,,,25,2021-11-26_13h32.04.971,premceCat2_ses-02_part-02_label-phase2,2020.2.10,Win32,60,,,,,left,0.7687,4,0.1449,right,0.9309,0,0,0,0,1,,,,,,,,,,,,,,,,,
,,,,,,,,25,2021-11-26_13h32.04.971,premceCat2_ses-02_part-02_label-phase2,2020.2.10,Win32,60,,,,,,,,,,,,,,,,0,66,66,53,1,stimuli/objects/tape02a.jpg,left,old,197,,,,,,,,
,,,,,,,,25,2021-11-26_13h32.04.971,premceCat2_ses-02_part-02_label-phase2,2020.2.10,Win32,60,,,,,right,0.8419,4,1.1934,,,,,,,,0,67,67,138,1,stimuli/objects/beermug01a.jpg,right,new,282,,,,,,,,
,,,,,,,,25,2021-11-26_13h32.04.971,premceCat2_ses-02_part-02_label-phase2,2020.2.10,Win32,60,,,,,right,2.271,3,0.2645,,,,,,,,0,68,68,98,1,stimuli/objects/cameracase01a.jpg,right,new,242,,,,,,,,
,,,,,,,,25,2021-11-26_13h32.04.971,premceCat2_ses-02_part-02_label-phase2,2020.2.10,Win32,60,,,,,left,0.8825,2,0.4829,left,0.5656,0,0,0,0,1,,,,,,,,,,,,,,,,,
,,,,,,,,25,2021-11-26_13h32.04.971,premceCat2_ses-02_part-02_label-phase2,2020.2.10,Win32,60,,,,,,,,,,,,,,,,0,69,69,90,1,stimuli/objects/toyhockeystick01.jpg,left,old,234,,,,,,,,
,,,,,,,,25,2021-11-26_13h32.04.971,premceCat2_ses-02_part-02_label-phase2,2020.2.10,Win32,60,,,,,left,0.9653,2,2.3962,right,0.2852,0,0,0,0,1,,,,,,,,,,,,,,,,,
,,,,,,,,25,2021-11-26_13h32.04.971,premceCat2_ses-02_part-02_label-phase2,2020.2.10,Win32,60,,,,,,,,,,,,,,,,0,70,70,119,1,stimuli/objects/cleaver01.jpg,left,old,263,,,,,,,,
,,,,,,,,25,2021-11-26_13h32.04.971,premceCat2_ses-02_part-02_label-phase2,2020.2.10,Win32,60,,,,,left,1.7277,3,1.0675,left,0.1861,0,0,0,0,1,,,,,,,,,,,,,,,,,
,,,,,,,,25,2021-11-26_13h32.04.971,premceCat2_ses-02_part-02_label-phase2,2020.2.10,Win32,60,,,,,,,,,,,,,,,,0,71,71,74,1,stimuli/objects/shinpad.jpg,left,old,218,,,,,,,,
,,,,,,,,25,2021-11-26_13h32.04.971,premceCat2_ses-02_part-02_label-phase2,2020.2.10,Win32,60,,,,,left,0.6798,4,0.2337,right,0.2771,0,0,0,0,1,,,,,,,,,,,,,,,,,
,,,,,,,,25,2021-11-26_13h32.04.971,premceCat2_ses-02_part-02_label-phase2,2020.2.10,Win32,60,,,,,,,,,,,,,,,,0,72,72,36,1,stimuli/objects/loppingshears.jpg,right,new,180,,,,,,,,
,,,,,,,,25,2021-11-26_13h32.04.971,premceCat2_ses-02_part-02_label-phase2,2020.2.10,Win32,60,,,,,left,0.9434,4,0.1172,left,0.5216,0,0,0,0,1,,,,,,,,,,,,,,,,,
,,,,,,,,25,2021-11-26_13h32.04.971,premceCat2_ses-02_part-02_label-phase2,2020.2.10,Win32,60,,,,,,,,,,,,,,,,0,73,73,117,1,stimuli/objects/podium.jpg,left,old,261,,,,,,,,
,,,,,,,,25,2021-11-26_13h32.04.971,premceCat2_ses-02_part-02_label-phase2,2020.2.10,Win32,60,,,,,right,1.1748,2,0.5463,,,,,,,,0,74,74,39,1,stimuli/objects/wafflemaker.jpg,right,new,183,,,,,,,,
,,,,,,,,25,2021-11-26_13h32.04.971,premceCat2_ses-02_part-02_label-phase2,2020.2.10,Win32,60,,,,,right,1.0381,3,0.3474,,,,,,,,0,75,75,3,1,stimuli/objects/boxingglove01.jpg,right,new,147,,,,,,,,
,,,,,,,,25,2021-11-26_13h32.04.971,premceCat2_ses-02_part-02_label-phase2,2020.2.10,Win32,60,,,,,left,0.7498,4,0.2459,left,1.5871,0,0,0,0,1,,,,,,,,,,,,,,,,,
,,,,,,,,25,2021-11-26_13h32.04.971,premceCat2_ses-02_part-02_label-phase2,2020.2.10,Win32,60,,,,,,,,,,,,,,,,0,76,76,45,1,stimuli/objects/ellipticalmachine.jpg,left,old,189,,,,,,,,
,,,,,,,,25,2021-11-26_13h32.04.971,premceCat2_ses-02_part-02_label-phase2,2020.2.10,Win32,60,,,,,right,1.0775,2,0.22,,,,,,,,0,77,77,142,1,stimuli/objects/needlenosepliers01.jpg,right,new,286,,,,,,,,
,,,,,,,,25,2021-11-26_13h32.04.971,premceCat2_ses-02_part-02_label-phase2,2020.2.10,Win32,60,,,,,left,1.146,3,1.1685,left,0.529,0,0,0,0,1,,,,,,,,,,,,,,,,,
,,,,,,,,25,2021-11-26_13h32.04.971,premceCat2_ses-02_part-02_label-phase2,2020.2.10,Win32,60,,,,,,,,,,,,,,,,0,78,78,80,1,stimuli/objects/barbecue03.jpg,right,new,224,,,,,,,,
,,,,,,,,25,2021-11-26_13h32.04.971,premceCat2_ses-02_part-02_label-phase2,2020.2.10,Win32,60,,,,,right,1.357,2,0.5483,,,,,,,,0,79,79,95,1,stimuli/objects/tennisball01b.jpg,right,new,239,,,,,,,,
,,,,,,,,25,2021-11-26_13h32.04.971,premceCat2_ses-02_part-02_label-phase2,2020.2.10,Win32,60,,,,,left,1.5792,2,0.666,left,0.6837,0,0,0,0,1,,,,,,,,,,,,,,,,,
,,,,,,,,25,2021-11-26_13h32.04.971,premceCat2_ses-02_part-02_label-phase2,2020.2.10,Win32,60,,,,,,,,,,,,,,,,0,80,80,20,1,stimuli/objects/bikehelmet.jpg,left,old,164,,,,,,,,
,,,,,,,,25,2021-11-26_13h32.04.971,premceCat2_ses-02_part-02_label-phase2,2020.2.10,Win32,60,,,,,right,1.3103,2,0.313,,,,,,,,0,81,81,131,1,stimuli/objects/handblender.jpg,right,new,275,,,,,,,,
,,,,,,,,25,2021-11-26_13h32.04.971,premceCat2_ses-02_part-02_label-phase2,2020.2.10,Win32,60,,,,,right,0.9734,2,0.3805,,,,,,,,0,82,82,0,1,stimuli/objects/smokedetector02.jpg,right,new,144,,,,,,,,
,,,,,,,,25,2021-11-26_13h32.04.971,premceCat2_ses-02_part-02_label-phase2,2020.2.10,Win32,60,,,,,left,0.8145,4,0.367,right,0.0946,0,0,0,0,1,,,,,,,,,,,,,,,,,
,,,,,,,,25,2021-11-26_13h32.04.971,premceCat2_ses-02_part-02_label-phase2,2020.2.10,Win32,60,,,,,,,,,,,,,,,,0,83,83,134,1,stimuli/objects/chandelier.jpg,left,old,278,,,,,,,,
,,,,,,,,25,2021-11-26_13h32.04.971,premceCat2_ses-02_part-02_label-phase2,2020.2.10,Win32,60,,,,,right,1.3323,3,0.2895,,,,,,,,0,84,84,44,1,stimuli/objects/toaster01.jpg,right,new,188,,,,,,,,
,,,,,,,,25,2021-11-26_13h32.04.971,premceCat2_ses-02_part-02_label-phase2,2020.2.10,Win32,60,,,,,right,1.2249,2,0.1414,,,,,,,,0,85,85,21,1,stimuli/objects/boltcutter.jpg,left,old,165,,,,,,,,
,,,,,,,,25,2021-11-26_13h32.04.971,premceCat2_ses-02_part-02_label-phase2,2020.2.10,Win32,60,,,,,right,1.3574,2,0.2561,,,,,,,,0,86,86,34,1,stimuli/objects/kneepad01c.jpg,right,new,178,,,,,,,,
,,,,,,,,25,2021-11-26_13h32.04.971,premceCat2_ses-02_part-02_label-phase2,2020.2.10,Win32,60,,,,,right,1.5097,2,0.354,,,,,,,,0,87,87,76,1,stimuli/objects/extensioncord.jpg,left,old,220,,,,,,,,
,,,,,,,,25,2021-11-26_13h32.04.971,premceCat2_ses-02_part-02_label-phase2,2020.2.10,Win32,60,,,,,right,0.8437,3,0.2732,,,,,,,,0,88,88,93,1,stimuli/objects/rope03.jpg,left,old,237,,,,,,,,
,,,,,,,,25,2021-11-26_13h32.04.971,premceCat2_ses-02_part-02_label-phase2,2020.2.10,Win32,60,,,,,right,2.088,3,0.4646,,,,,,,,0,89,89,99,1,stimuli/objects/floodlight.jpg,right,new,243,,,,,,,,
,,,,,,,,25,2021-11-26_13h32.04.971,premceCat2_ses-02_part-02_label-phase2,2020.2.10,Win32,60,,,,,right,1.8632,2,0.345,,,,,,,,0,90,90,122,1,stimuli/objects/hockeystick.jpg,right,new,266,,,,,,,,
,,,,,,,,25,2021-11-26_13h32.04.971,premceCat2_ses-02_part-02_label-phase2,2020.2.10,Win32,60,,,,,right,1.466,3,0.754,,,,,,,,0,91,91,127,1,stimuli/objects/skigoggles01.jpg,right,new,271,,,,,,,,
,,,,,,,,25,2021-11-26_13h32.04.971,premceCat2_ses-02_part-02_label-phase2,2020.2.10,Win32,60,,,,,right,1.6146,3,0.2896,,,,,,,,0,92,92,30,1,stimuli/objects/halogenlightbulb.jpg,right,new,174,,,,,,,,
,,,,,,,,25,2021-11-26_13h32.04.971,premceCat2_ses-02_part-02_label-phase2,2020.2.10,Win32,60,,,,,left,2.2399,1,0.1233,left,1.8696,0,0,0,0,1,,,,,,,,,,,,,,,,,
,,,,,,,,25,2021-11-26_13h32.04.971,premceCat2_ses-02_part-02_label-phase2,2020.2.10,Win32,60,,,,,,,,,,,,,,,,0,93,93,64,1,stimuli/objects/volleyball.jpg,left,old,208,,,,,,,,
,,,,,,,,25,2021-11-26_13h32.04.971,premceCat2_ses-02_part-02_label-phase2,2020.2.10,Win32,60,,,,,right,1.0245,3,0.209,,,,,,,,0,94,94,24,1,stimuli/objects/monitor.jpg,right,new,168,,,,,,,,
,,,,,,,,25,2021-11-26_13h32.04.971,premceCat2_ses-02_part-02_label-phase2,2020.2.10,Win32,60,,,,,right,1.8097,2,0.4075,,,,,,,,0,95,95,10,1,stimuli/objects/skihelmet01.jpg,left,old,154,,,,,,,,
,,,,,,,,25,2021-11-26_13h32.04.971,premceCat2_ses-02_part-02_label-phase2,2020.2.10,Win32,60,,,,,right,0.8599,2,1.1918,,,,,,,,0,96,96,83,1,stimuli/objects/icecubetray01a.jpg,right,new,227,,,,,,,,
,,,,,,,,25,2021-11-26_13h32.04.971,premceCat2_ses-02_part-02_label-phase2,2020.2.10,Win32,60,,,,,right,2.0622,1,0.3599,,,,,,,,0,97,97,70,1,stimuli/objects/shovel01.jpg,right,new,214,,,,,,,,
,,,,,,,,25,2021-11-26_13h32.04.971,premceCat2_ses-02_part-02_label-phase2,2020.2.10,Win32,60,,,,,left,1.4616,3,0.5488,right,0.4861,0,0,0,0,1,,,,,,,,,,,,,,,,,
,,,,,,,,25,2021-11-26_13h32.04.971,premceCat2_ses-02_part-02_label-phase2,2020.2.10,Win32,60,,,,,,,,,,,,,,,,0,98,98,13,1,stimuli/objects/jumpercables.jpg,left,old,157,,,,,,,,
,,,,,,,,25,2021-11-26_13h32.04.971,premceCat2_ses-02_part-02_label-phase2,2020.2.10,Win32,60,,,,,left,1.5803,2,0.4668,right,1.003,0,0,0,0,1,,,,,,,,,,,,,,,,,
,,,,,,,,25,2021-11-26_13h32.04.971,premceCat2_ses-02_part-02_label-phase2,2020.2.10,Win32,60,,,,,,,,,,,,,,,,0,99,99,100,1,stimuli/objects/wheelbarrow01.jpg,left,old,244,,,,,,,,
,,,,,,,,25,2021-11-26_13h32.04.971,premceCat2_ses-02_part-02_label-phase2,2020.2.10,Win32,60,,,,,right,1.2404,3,0.3722,,,,,,,,0,100,100,48,1,stimuli/objects/eggslicer.jpg,right,new,192,,,,,,,,
,,,,,,,,25,2021-11-26_13h32.04.971,premceCat2_ses-02_part-02_label-phase2,2020.2.10,Win32,60,,,,,left,1.7732,3,0.0873,right,0.5563,0,0,0,0,1,,,,,,,,,,,,,,,,,
,,,,,,,,25,2021-11-26_13h32.04.971,premceCat2_ses-02_part-02_label-phase2,2020.2.10,Win32,60,,,,,,,,,,,,,,,,0,101,101,67,1,stimuli/objects/filmroll.jpg,left,old,211,,,,,,,,
,,,,,,,,25,2021-11-26_13h32.04.971,premceCat2_ses-02_part-02_label-phase2,2020.2.10,Win32,60,,,,,left,1.4456,2,0.1578,left,0.6201,0,0,0,0,1,,,,,,,,,,,,,,,,,
,,,,,,,,25,2021-11-26_13h32.04.971,premceCat2_ses-02_part-02_label-phase2,2020.2.10,Win32,60,,,,,,,,,,,,,,,,0,102,102,128,1,stimuli/objects/pot01.jpg,left,old,272,,,,,,,,
,,,,,,,,25,2021-11-26_13h32.04.971,premceCat2_ses-02_part-02_label-phase2,2020.2.10,Win32,60,,,,,left,0.8806,4,0.3182,right,0.7133,0,0,0,0,1,,,,,,,,,,,,,,,,,
,,,,,,,,25,2021-11-26_13h32.04.971,premceCat2_ses-02_part-02_label-phase2,2020.2.10,Win32,60,,,,,,,,,,,,,,,,0,103,103,106,1,stimuli/objects/nintendods.jpg,left,old,250,,,,,,,,
,,,,,,,,25,2021-11-26_13h32.04.971,premceCat2_ses-02_part-02_label-phase2,2020.2.10,Win32,60,,,,,right,1.0601,2,0.3014,,,,,,,,0,104,104,46,1,stimuli/objects/waterbottleholder.jpg,right,new,190,,,,,,,,
,,,,,,,,25,2021-11-26_13h32.04.971,premceCat2_ses-02_part-02_label-phase2,2020.2.10,Win32,60,,,,,right,1.4717,2,0.2725,,,,,,,,0,105,105,137,1,stimuli/objects/nutcracker01.jpg,right,new,281,,,,,,,,
,,,,,,,,25,2021-11-26_13h32.04.971,premceCat2_ses-02_part-02_label-phase2,2020.2.10,Win32,60,,,,,right,0.9126,3,0.5808,,,,,,,,0,106,106,133,1,stimuli/objects/birdie.jpg,right,new,277,,,,,,,,
,,,,,,,,25,2021-11-26_13h32.04.971,premceCat2_ses-02_part-02_label-phase2,2020.2.10,Win32,60,,,,,left,1.3588,2,0.4133,left,0.7742,0,0,0,0,1,,,,,,,,,,,,,,,,,
,,,,,,,,25,2021-11-26_13h32.04.971,premceCat2_ses-02_part-02_label-phase2,2020.2.10,Win32,60,,,,,,,,,,,,,,,,0,107,107,41,1,stimuli/objects/flask.jpg,right,new,185,,,,,,,,
,,,,,,,,25,2021-11-26_13h32.04.971,premceCat2_ses-02_part-02_label-phase2,2020.2.10,Win32,60,,,,,left,0.8992,4,0.3549,left,0.3912,0,0,0,0,1,,,,,,,,,,,,,,,,,
,,,,,,,,25,2021-11-26_13h32.04.971,premceCat2_ses-02_part-02_label-phase2,2020.2.10,Win32,60,,,,,,,,,,,,,,,,0,108,108,92,1,stimuli/objects/leafrake.jpg,left,old,236,,,,,,,,
,,,,,,,,25,2021-11-26_13h32.04.971,premceCat2_ses-02_part-02_label-phase2,2020.2.10,Win32,60,,,,,right,1.1877,2,0.2256,,,,,,,,0,109,109,61,1,stimuli/objects/wateringcan.jpg,left,old,205,,,,,,,,
,,,,,,,,25,2021-11-26_13h32.04.971,premceCat2_ses-02_part-02_label-phase2,2020.2.10,Win32,60,,,,,left,1.4146,4,0.3728,right,1.0515,0,0,0,0,1,,,,,,,,,,,,,,,,,
,,,,,,,,25,2021-11-26_13h32.04.971,premceCat2_ses-02_part-02_label-phase2,2020.2.10,Win32,60,,,,,,,,,,,,,,,,0,110,110,33,1,stimuli/objects/gps.jpg,left,old,177,,,,,,,,
,,,,,,,,25,2021-11-26_13h32.04.971,premceCat2_ses-02_part-02_label-phase2,2020.2.10,Win32,60,,,,,left,1.2137,2,0.1327,right,0.8129,0,0,0,0,1,,,,,,,,,,,,,,,,,
,,,,,,,,25,2021-11-26_13h32.04.971,premceCat2_ses-02_part-02_label-phase2,2020.2.10,Win32,60,,,,,,,,,,,,,,,,0,111,111,118,1,stimuli/objects/gardenshears01a.jpg,left,old,262,,,,,,,,
,,,,,,,,25,2021-11-26_13h32.04.971,premceCat2_ses-02_part-02_label-phase2,2020.2.10,Win32,60,,,,,left,0.858,3,0.7058,right,1.0862,0,0,0,0,1,,,,,,,,,,,,,,,,,
,,,,,,,,25,2021-11-26_13h32.04.971,premceCat2_ses-02_part-02_label-phase2,2020.2.10,Win32,60,,,,,,,,,,,,,,,,0,112,112,96,1,stimuli/objects/mallet01b.jpg,left,old,240,,,,,,,,
,,,,,,,,25,2021-11-26_13h32.04.971,premceCat2_ses-02_part-02_label-phase2,2020.2.10,Win32,60,,,,,right,1.3072,1,0.3214,,,,,,,,0,113,113,19,1,stimuli/objects/mug01.jpg,right,new,163,,,,,,,,
,,,,,,,,25,2021-11-26_13h32.04.971,premceCat2_ses-02_part-02_label-phase2,2020.2.10,Win32,60,,,,,left,0.8721,3,0.09,left,0.5746,0,0,0,0,1,,,,,,,,,,,,,,,,,
,,,,,,,,25,2021-11-26_13h32.04.971,premceCat2_ses-02_part-02_label-phase2,2020.2.10,Win32,60,,,,,,,,,,,,,,,,0,114,114,79,1,stimuli/objects/bikewheel.jpg,left,old,223,,,,,,,,
,,,,,,,,25,2021-11-26_13h32.04.971,premceCat2_ses-02_part-02_label-phase2,2020.2.10,Win32,60,,,,,left,1.0899,3,0.2252,right,0.4535,0,0,0,0,1,,,,,,,,,,,,,,,,,
,,,,,,,,25,2021-11-26_13h32.04.971,premceCat2_ses-02_part-02_label-phase2,2020.2.10,Win32,60,,,,,,,,,,,,,,,,0,115,115,23,1,stimuli/objects/hockeypuck.jpg,left,old,167,,,,,,,,
,,,,,,,,25,2021-11-26_13h32.04.971,premceCat2_ses-02_part-02_label-phase2,2020.2.10,Win32,60,,,,,left,0.9303,3,0.222,left,0.5671,0,0,0,0,1,,,,,,,,,,,,,,,,,
,,,,,,,,25,2021-11-26_13h32.04.971,premceCat2_ses-02_part-02_label-phase2,2020.2.10,Win32,60,,,,,,,,,,,,,,,,0,116,116,110,1,stimuli/objects/hockeygoaliepad.jpg,left,old,254,,,,,,,,
,,,,,,,,25,2021-11-26_13h32.04.971,premceCat2_ses-02_part-02_label-phase2,2020.2.10,Win32,60,,,,,left,2.4355,2,0.3194,left,0.6954,0,0,0,0,1,,,,,,,,,,,,,,,,,
,,,,,,,,25,2021-11-26_13h32.04.971,premceCat2_ses-02_part-02_label-phase2,2020.2.10,Win32,60,,,,,,,,,,,,,,,,0,117,117,17,1,stimuli/objects/bikelock.jpg,left,old,161,,,,,,,,
,,,,,,,,25,2021-11-26_13h32.04.971,premceCat2_ses-02_part-02_label-phase2,2020.2.10,Win32,60,,,,,right,1.285,3,0.1808,,,,,,,,0,118,118,101,1,stimuli/objects/lifejacket.jpg,right,new,245,,,,,,,,
,,,,,,,,25,2021-11-26_13h32.04.971,premceCat2_ses-02_part-02_label-phase2,2020.2.10,Win32,60,,,,,left,0.7966,4,0.2972,left,0.7552,0,0,0,0,1,,,,,,,,,,,,,,,,,
,,,,,,,,25,2021-11-26_13h32.04.971,premceCat2_ses-02_part-02_label-phase2,2020.2.10,Win32,60,,,,,,,,,,,,,,,,0,119,119,75,1,stimuli/objects/hammer01.jpg,left,old,219,,,,,,,,
,,,,,,,,25,2021-11-26_13h32.04.971,premceCat2_ses-02_part-02_label-phase2,2020.2.10,Win32,60,,,,,right,1.1218,4,0.1107,,,,,,,,0,120,120,59,1,stimuli/objects/speedball.jpg,right,new,203,,,,,,,,
,,,,,,,,25,2021-11-26_13h32.04.971,premceCat2_ses-02_part-02_label-phase2,2020.2.10,Win32,60,,,,,right,1.1783,2,0.3466,,,,,,,,0,121,121,26,1,stimuli/objects/flashlight02b.jpg,right,new,170,,,,,,,,
,,,,,,,,25,2021-11-26_13h32.04.971,premceCat2_ses-02_part-02_label-phase2,2020.2.10,Win32,60,,,,,left,0.9033,2,0.4247,left,0.3075,0,0,0,0,1,,,,,,,,,,,,,,,,,
,,,,,,,,25,2021-11-26_13h32.04.971,premceCat2_ses-02_part-02_label-phase2,2020.2.10,Win32,60,,,,,,,,,,,,,,,,0,122,122,125,1,stimuli/objects/pliers02b.jpg,left,old,269,,,,,,,,
,,,,,,,,25,2021-11-26_13h32.04.971,premceCat2_ses-02_part-02_label-phase2,2020.2.10,Win32,60,,,,,left,0.8262,4,0.1163,right,0.601,0,0,0,0,1,,,,,,,,,,,,,,,,,
,,,,,,,,25,2021-11-26_13h32.04.971,premceCat2_ses-02_part-02_label-phase2,2020.2.10,Win32,60,,,,,,,,,,,,,,,,0,123,123,18,1,stimuli/objects/cellphone.jpg,left,old,162,,,,,,,,
,,,,,,,,25,2021-11-26_13h32.04.971,premceCat2_ses-02_part-02_label-phase2,2020.2.10,Win32,60,,,,,right,1.7906,2,0.4736,,,,,,,,0,124,124,15,1,stimuli/objects/computermouse06.jpg,right,new,159,,,,,,,,
,,,,,,,,25,2021-11-26_13h32.04.971,premceCat2_ses-02_part-02_label-phase2,2020.2.10,Win32,60,,,,,left,1.8886,2,0.6064,right,0.0861,0,0,0,0,1,,,,,,,,,,,,,,,,,
,,,,,,,,25,2021-11-26_13h32.04.971,premceCat2_ses-02_part-02_label-phase2,2020.2.10,Win32,60,,,,,,,,,,,,,,,,0,125,125,56,1,stimuli/objects/tupperware03a.jpg,left,old,200,,,,,,,,
,,,,,,,,25,2021-11-26_13h32.04.971,premceCat2_ses-02_part-02_label-phase2,2020.2.10,Win32,60,,,,,right,1.4134,2,0.7312,,,,,,,,0,126,126,123,1,stimuli/objects/jackhammer.jpg,right,new,267,,,,,,,,
,,,,,,,,25,2021-11-26_13h32.04.971,premceCat2_ses-02_part-02_label-phase2,2020.2.10,Win32,60,,,,,right,1.3743,3,0.2474,,,,,,,,0,127,127,54,1,stimuli/objects/toyhardhat.jpg,left,old,198,,,,,,,,
,,,,,,,,25,2021-11-26_13h32.04.971,premceCat2_ses-02_part-02_label-phase2,2020.2.10,Win32,60,,,,,left,0.8174,4,0.2675,right,0.4237,0,0,0,0,1,,,,,,,,,,,,,,,,,
,,,,,,,,25,2021-11-26_13h32.04.971,premceCat2_ses-02_part-02_label-phase2,2020.2.10,Win32,60,,,,,,,,,,,,,,,,0,128,128,115,1,stimuli/objects/towel01.jpg,left,old,259,,,,,,,,
,,,,,,,,25,2021-11-26_13h32.04.971,premceCat2_ses-02_part-02_label-phase2,2020.2.10,Win32,60,,,,,left,0.9924,4,0.6631,right,1.5334,0,0,0,0,1,,,,,,,,,,,,,,,,,
,,,,,,,,25,2021-11-26_13h32.04.971,premceCat2_ses-02_part-02_label-phase2,2020.2.10,Win32,60,,,,,,,,,,,,,,,,0,129,129,52,1,stimuli/objects/antenna.jpg,left,old,196,,,,,,,,
,,,,,,,,25,2021-11-26_13h32.04.971,premceCat2_ses-02_part-02_label-phase2,2020.2.10,Win32,60,,,,,left,3.6127,2,0.3994,left,0.3621,0,0,0,0,1,,,,,,,,,,,,,,,,,
,,,,,,,,25,2021-11-26_13h32.04.971,premceCat2_ses-02_part-02_label-phase2,2020.2.10,Win32,60,,,,,,,,,,,,,,,,0,130,130,72,1,stimuli/objects/axe01.jpg,left,old,216,,,,,,,,
,,,,,,,,25,2021-11-26_13h32.04.971,premceCat2_ses-02_part-02_label-phase2,2020.2.10,Win32,60,,,,,right,1.008,2,0.695,,,,,,,,0,131,131,47,1,stimuli/objects/plate01b.jpg,right,new,191,,,,,,,,
,,,,,,,,25,2021-11-26_13h32.04.971,premceCat2_ses-02_part-02_label-phase2,2020.2.10,Win32,60,,,,,right,1.6815,2,0.8072,,,,,,,,0,132,132,12,1,stimuli/objects/fanheater.jpg,right,new,156,,,,,,,,
,,,,,,,,25,2021-11-26_13h32.04.971,premceCat2_ses-02_part-02_label-phase2,2020.2.10,Win32,60,,,,,left,0.9487,2,0.5137,right,0.9555,0,0,0,0,1,,,,,,,,,,,,,,,,,
,,,,,,,,25,2021-11-26_13h32.04.971,premceCat2_ses-02_part-02_label-phase2,2020.2.10,Win32,60,,,,,,,,,,,,,,,,0,133,133,136,1,stimuli/objects/bikepump01.jpg,left,old,280,,,,,,,,
,,,,,,,,25,2021-11-26_13h32.04.971,premceCat2_ses-02_part-02_label-phase2,2020.2.10,Win32,60,,,,,left,0.7934,4,0.3565,left,2.0316,0,0,0,0,1,,,,,,,,,,,,,,,,,
,,,,,,,,25,2021-11-26_13h32.04.971,premceCat2_ses-02_part-02_label-phase2,2020.2.10,Win32,60,,,,,,,,,,,,,,,,0,134,134,58,1,stimuli/objects/swimgoggles.jpg,left,old,202,,,,,,,,
,,,,,,,,25,2021-11-26_13h32.04.971,premceCat2_ses-02_part-02_label-phase2,2020.2.10,Win32,60,,,,,right,1.0944,2,0.5457,,,,,,,,0,135,135,55,1,stimuli/objects/fonduefork01.jpg,right,new,199,,,,,,,,
,,,,,,,,25,2021-11-26_13h32.04.971,premceCat2_ses-02_part-02_label-phase2,2020.2.10,Win32,60,,,,,left,0.8511,3,0.0483,right,0.4504,0,0,0,0,1,,,,,,,,,,,,,,,,,
,,,,,,,,25,2021-11-26_13h32.04.971,premceCat2_ses-02_part-02_label-phase2,2020.2.10,Win32,60,,,,,,,,,,,,,,,,0,136,136,63,1,stimuli/objects/woodenspoon.jpg,left,old,207,,,,,,,,
,,,,,,,,25,2021-11-26_13h32.04.971,premceCat2_ses-02_part-02_label-phase2,2020.2.10,Win32,60,,,,,right,0.9731,2,0.278,,,,,,,,0,137,137,78,1,stimuli/objects/lightswitch01.jpg,right,new,222,,,,,,,,
,,,,,,,,25,2021-11-26_13h32.04.971,premceCat2_ses-02_part-02_label-phase2,2020.2.10,Win32,60,,,,,right,1.2309,2,0.1459,,,,,,,,0,138,138,107,1,stimuli/objects/dolly01.jpg,right,new,251,,,,,,,,
,,,,,,,,25,2021-11-26_13h32.04.971,premceCat2_ses-02_part-02_label-phase2,2020.2.10,Win32,60,,,,,left,1.2715,4,0.3885,left,1.1696,0,0,0,0,1,,,,,,,,,,,,,,,,,
,,,,,,,,25,2021-11-26_13h32.04.971,premceCat2_ses-02_part-02_label-phase2,2020.2.10,Win32,60,,,,,,,,,,,,,,,,0,139,139,38,1,stimuli/objects/espressomachine.jpg,left,old,182,,,,,,,,
,,,,,,,,25,2021-11-26_13h32.04.971,premceCat2_ses-02_part-02_label-phase2,2020.2.10,Win32,60,,,,,left,0.8194,4,0.3696,right,0.2687,0,0,0,0,1,,,,,,,,,,,,,,,,,
,,,,,,,,25,2021-11-26_13h32.04.971,premceCat2_ses-02_part-02_label-phase2,2020.2.10,Win32,60,,,,,,,,,,,,,,,,0,140,140,8,1,stimuli/objects/wheel01.jpg,left,old,152,,,,,,,,
,,,,,,,,25,2021-11-26_13h32.04.971,premceCat2_ses-02_part-02_label-phase2,2020.2.10,Win32,60,,,,,right,1.5539,2,0.7917,,,,,,,,0,141,141,37,1,stimuli/objects/carantenna.jpg,left,old,181,,,,,,,,
,,,,,,,,25,2021-11-26_13h32.04.971,premceCat2_ses-02_part-02_label-phase2,2020.2.10,Win32,60,,,,,right,1.0802,2,0.3535,,,,,,,,0,142,142,102,1,stimuli/objects/beachumbrella01.jpg,right,new,246,,,,,,,,
,,,,,,,,25,2021-11-26_13h32.04.971,premceCat2_ses-02_part-02_label-phase2,2020.2.10,Win32,60,,,,,,,,,,,,,,,,,,,,,,,,,space,3.1001,0,0,0,1,1,condition_files/ImagesforRecog2_2.csv
,,,,,,,,25,2021-11-26_13h32.04.971,premceCat2_ses-02_part-02_label-phase2,2020.2.10,Win32,60,,,,,right,0.8574,2,0.5344,,,,,,,,0,0,0,119,1,stimuli/objects/tongs01b.jpg,right,new,120,,,,,,,,
,,,,,,,,25,2021-11-26_13h32.04.971,premceCat2_ses-02_part-02_label-phase2,2020.2.10,Win32,60,,,,,right,1.2749,2,0.1203,,,,,,,,0,1,1,106,1,stimuli/objects/minifridge.jpg,right,new,107,,,,,,,,
,,,,,,,,25,2021-11-26_13h32.04.971,premceCat2_ses-02_part-02_label-phase2,2020.2.10,Win32,60,,,,,left,1.1422,2,0.3026,right,1.1027,0,0,0,0,1,,,,,,,,,,,,,,,,,
,,,,,,,,25,2021-11-26_13h32.04.971,premceCat2_ses-02_part-02_label-phase2,2020.2.10,Win32,60,,,,,,,,,,,,,,,,0,2,2,90,1,stimuli/objects/carlighter02.jpg,right,new,91,,,,,,,,
,,,,,,,,25,2021-11-26_13h32.04.971,premceCat2_ses-02_part-02_label-phase2,2020.2.10,Win32,60,,,,,right,2.0401,2,0.0287,,,,,,,,0,3,3,32,1,stimuli/objects/mitresaw.jpg,right,new,33,,,,,,,,
,,,,,,,,25,2021-11-26_13h32.04.971,premceCat2_ses-02_part-02_label-phase2,2020.2.10,Win32,60,,,,,right,0.7872,4,0.6291,,,,,,,,0,4,4,112,1,stimuli/objects/gymnasticring.jpg,right,new,113,,,,,,,,
,,,,,,,,25,2021-11-26_13h32.04.971,premceCat2_ses-02_part-02_label-phase2,2020.2.10,Win32,60,,,,,right,1.5202,2,0.1393,,,,,,,,0,5,5,68,1,stimuli/objects/leafblower01.jpg,right,new,69,,,,,,,,
,,,,,,,,25,2021-11-26_13h32.04.971,premceCat2_ses-02_part-02_label-phase2,2020.2.10,Win32,60,,,,,left,0.9943,3,0.0727,left,0.9206,0,0,0,0,1,,,,,,,,,,,,,,,,,
,,,,,,,,25,2021-11-26_13h32.04.971,premceCat2_ses-02_part-02_label-phase2,2020.2.10,Win32,60,,,,,,,,,,,,,,,,0,6,6,116,1,stimuli/objects/radio01.jpg,right,new,117,,,,,,,,
,,,,,,,,25,2021-11-26_13h32.04.971,premceCat2_ses-02_part-02_label-phase2,2020.2.10,Win32,60,,,,,right,1.2367,3,0.2028,,,,,,,,0,7,7,18,1,stimuli/objects/cashregister01.jpg,right,new,19,,,,,,,,
,,,,,,,,25,2021-11-26_13h32.04.971,premceCat2_ses-02_part-02_label-phase2,2020.2.10,Win32,60,,,,,left,1.3723,3,0.2145,right,1.4694,0,0,0,0,1,,,,,,,,,,,,,,,,,
,,,,,,,,25,2021-11-26_13h32.04.971,premceCat2_ses-02_part-02_label-phase2,2020.2.10,Win32,60,,,,,,,,,,,,,,,,0,8,8,2,1,stimuli/objects/ipod.jpg,left,old,3,,,,,,,,
,,,,,,,,25,2021-11-26_13h32.04.971,premceCat2_ses-02_part-02_label-phase2,2020.2.10,Win32,60,,,,,left,0.929,3,0.0853,left,0.2642,0,0,0,0,1,,,,,,,,,,,,,,,,,
,,,,,,,,25,2021-11-26_13h32.04.971,premceCat2_ses-02_part-02_label-phase2,2020.2.10,Win32,60,,,,,,,,,,,,,,,,0,9,9,3,1,stimuli/objects/shotglass.jpg,left,old,4,,,,,,,,
,,,,,,,,25,2021-11-26_13h32.04.971,premceCat2_ses-02_part-02_label-phase2,2020.2.10,Win32,60,,,,,right,1.0954,3,0.0007,,,,,,,,0,10,10,79,1,stimuli/objects/fluorescentlightbulb.jpg,left,old,80,,,,,,,,
,,,,,,,,25,2021-11-26_13h32.04.971,premceCat2_ses-02_part-02_label-phase2,2020.2.10,Win32,60,,,,,right,1.1787,2,0.0461,,,,,,,,0,11,11,54,1,stimuli/objects/pda.jpg,right,new,55,,,,,,,,
,,,,,,,,25,2021-11-26_13h32.04.971,premceCat2_ses-02_part-02_label-phase2,2020.2.10,Win32,60,,,,,right,1.0555,1,1.2693,,,,,,,,0,12,12,51,1,stimuli/objects/webcam.jpg,right,new,52,,,,,,,,
,,,,,,,,25,2021-11-26_13h32.04.971,premceCat2_ses-02_part-02_label-phase2,2020.2.10,Win32,60,,,,,right,1.2981,2,0.2018,,,,,,,,0,13,13,33,1,stimuli/objects/microwave.jpg,right,new,34,,,,,,,,
,,,,,,,,25,2021-11-26_13h32.04.971,premceCat2_ses-02_part-02_label-phase2,2020.2.10,Win32,60,,,,,right,1.2391,2,0.4169,,,,,,,,0,14,14,12,1,stimuli/objects/garlicpress02a.jpg,right,new,13,,,,,,,,
,,,,,,,,25,2021-11-26_13h32.04.971,premceCat2_ses-02_part-02_label-phase2,2020.2.10,Win32,60,,,,,left,0.8759,4,0.1532,left,1.0863,0,0,0,0,1,,,,,,,,,,,,,,,,,
,,,,,,,,25,2021-11-26_13h32.04.971,premceCat2_ses-02_part-02_label-phase2,2020.2.10,Win32,60,,,,,,,,,,,,,,,,0,15,15,7,1,stimuli/objects/painttray.jpg,left,old,8,,,,,,,,
,,,,,,,,25,2021-11-26_13h32.04.971,premceCat2_ses-02_part-02_label-phase2,2020.2.10,Win32,60,,,,,right,0.9732,2,0.126,,,,,,,,0,16,16,9,1,stimuli/objects/measuringtape01.jpg,right,new,10,,,,,,,,
,,,,,,,,25,2021-11-26_13h32.04.971,premceCat2_ses-02_part-02_label-phase2,2020.2.10,Win32,60,,,,,right,1.2882,3,0.1993,,,,,,,,0,17,17,110,1,stimuli/objects/lock03a.jpg,right,new,111,,,,,,,,
,,,,,,,,25,2021-11-26_13h32.04.971,premceCat2_ses-02_part-02_label-phase2,2020.2.10,Win32,60,,,,,left,1.2027,3,0.2091,left,0.6929,0,0,0,0,1,,,,,,,,,,,,,,,,,
,,,,,,,,25,2021-11-26_13h32.04.971,premceCat2_ses-02_part-02_label-phase2,2020.2.10,Win32,60,,,,,,,,,,,,,,,,0,18,18,61,1,stimuli/objects/squeegee01b.jpg,left,old,62,,,,,,,,
,,,,,,,,25,2021-11-26_13h32.04.971,premceCat2_ses-02_part-02_label-phase2,2020.2.10,Win32,60,,,,,right,0.8835,2,0.5468,,,,,,,,0,19,19,120,1,stimuli/objects/oven.jpg,left,old,121,,,,,,,,
,,,,,,,,25,2021-11-26_13h32.04.971,premceCat2_ses-02_part-02_label-phase2,2020.2.10,Win32,60,,,,,left,0.8996,4,0.1613,left,0.4316,0,0,0,0,1,,,,,,,,,,,,,,,,,
,,,,,,,,25,2021-11-26_13h32.04.971,premceCat2_ses-02_part-02_label-phase2,2020.2.10,Win32,60,,,,,,,,,,,,,,,,0,20,20,137,1,stimuli/objects/surfboard.jpg,left,old,138,,,,,,,,
,,,,,,,,25,2021-11-26_13h32.04.971,premceCat2_ses-02_part-02_label-phase2,2020.2.10,Win32,60,,,,,right,1.0832,2,0.2123,,,,,,,,0,21,21,59,1,stimuli/objects/studiolight.jpg,right,new,60,,,,,,,,
,,,,,,,,25,2021-11-26_13h32.04.971,premceCat2_ses-02_part-02_label-phase2,2020.2.10,Win32,60,,,,,left,0.7265,4,0.2479,right,0.3961,0,0,0,0,1,,,,,,,,,,,,,,,,,
,,,,,,,,25,2021-11-26_13h32.04.971,premceCat2_ses-02_part-02_label-phase2,2020.2.10,Win32,60,,,,,,,,,,,,,,,,0,22,22,62,1,stimuli/objects/potatomasher03b.jpg,left,old,63,,,,,,,,
,,,,,,,,25,2021-11-26_13h32.04.971,premceCat2_ses-02_part-02_label-phase2,2020.2.10,Win32,60,,,,,right,0.9345,2,0.2594,,,,,,,,0,23,23,15,1,stimuli/objects/watercooler.jpg,left,old,16,,,,,,,,
,,,,,,,,25,2021-11-26_13h32.04.971,premceCat2_ses-02_part-02_label-phase2,2020.2.10,Win32,60,,,,,left,1.8933,1,0.0914,left,0.3997,0,0,0,0,1,,,,,,,,,,,,,,,,,
,,,,,,,,25,2021-11-26_13h32.04.971,premceCat2_ses-02_part-02_label-phase2,2020.2.10,Win32,60,,,,,,,,,,,,,,,,0,24,24,66,1,stimuli/objects/nailgun.jpg,right,new,67,,,,,,,,
,,,,,,,,25,2021-11-26_13h32.04.971,premceCat2_ses-02_part-02_label-phase2,2020.2.10,Win32,60,,,,,left,0.8369,4,0.213,left,0.1734,0,0,0,0,1,,,,,,,,,,,,,,,,,
,,,,,,,,25,2021-11-26_13h32.04.971,premceCat2_ses-02_part-02_label-phase2,2020.2.10,Win32,60,,,,,,,,,,,,,,,,0,25,25,84,1,stimuli/objects/sportbag.jpg,left,old,85,,,,,,,,
,,,,,,,,25,2021-11-26_13h32.04.971,premceCat2_ses-02_part-02_label-phase2,2020.2.10,Win32,60,,,,,left,1.1239,3,0.2486,right,0.2103,0,0,0,0,1,,,,,,,,,,,,,,,,,
,,,,,,,,25,2021-11-26_13h32.04.971,premceCat2_ses-02_part-02_label-phase2,2020.2.10,Win32,60,,,,,,,,,,,,,,,,0,26,26,77,1,stimuli/objects/satellitedish01.jpg,left,old,78,,,,,,,,
,,,,,,,,25,2021-11-26_13h32.04.971,premceCat2_ses-02_part-02_label-phase2,2020.2.10,Win32,60,,,,,right,1.1371,2,0.2273,,,,,,,,0,27,27,76,1,stimuli/objects/megaphone.jpg,right,new,77,,,,,,,,
,,,,,,,,25,2021-11-26_13h32.04.971,premceCat2_ses-02_part-02_label-phase2,2020.2.10,Win32,60,,,,,right,1.484,3,0.5443,,,,,,,,0,28,28,20,1,stimuli/objects/laptop01a.jpg,right,new,21,,,,,,,,
,,,,,,,,25,2021-11-26_13h32.04.971,premceCat2_ses-02_part-02_label-phase2,2020.2.10,Win32,60,,,,,left,1.14,2,0.5879,right,0.9505,0,0,0,0,1,,,,,,,,,,,,,,,,,
,,,,,,,,25,2021-11-26_13h32.04.971,premceCat2_ses-02_part-02_label-phase2,2020.2.10,Win32,60,,,,,,,,,,,,,,,,0,29,29,69,1,stimuli/objects/filmnegative.jpg,left,old,70,,,,,,,,
,,,,,,,,25,2021-11-26_13h32.04.971,premceCat2_ses-02_part-02_label-phase2,2020.2.10,Win32,60,,,,,right,1.7902,2,0.361,,,,,,,,0,30,30,101,1,stimuli/objects/vhstape.jpg,left,old,102,,,,,,,,
,,,,,,,,25,2021-11-26_13h32.04.971,premceCat2_ses-02_part-02_label-phase2,2020.2.10,Win32,60,,,,,left,0.7281,4,0.1713,right,0.1461,0,0,0,0,1,,,,,,,,,,,,,,,,,
,,,,,,,,25,2021-11-26_13h32.04.971,premceCat2_ses-02_part-02_label-phase2,2020.2.10,Win32,60,,,,,,,,,,,,,,,,0,31,31,1,1,stimuli/objects/ipad02.jpg,left,old,2,,,,,,,,
,,,,,,,,25,2021-11-26_13h32.04.971,premceCat2_ses-02_part-02_label-phase2,2020.2.10,Win32,60,,,,,left,0.7135,4,0.1246,right,0.5199,0,0,0,0,1,,,,,,,,,,,,,,,,,
,,,,,,,,25,2021-11-26_13h32.04.971,premceCat2_ses-02_part-02_label-phase2,2020.2.10,Win32,60,,,,,,,,,,,,,,,,0,32,32,0,1,stimuli/objects/electricoutlet.jpg,left,old,1,,,,,,,,
,,,,,,,,25,2021-11-26_13h32.04.971,premceCat2_ses-02_part-02_label-phase2,2020.2.10,Win32,60,,,,,left,0.9389,3,0.2598,left,0.2702,0,0,0,0,1,,,,,,,,,,,,,,,,,
,,,,,,,,25,2021-11-26_13h32.04.971,premceCat2_ses-02_part-02_label-phase2,2020.2.10,Win32,60,,,,,,,,,,,,,,,,0,33,33,88,1,stimuli/objects/gravyboat.jpg,left,old,89,,,,,,,,
,,,,,,,,25,2021-11-26_13h32.04.971,premceCat2_ses-02_part-02_label-phase2,2020.2.10,Win32,60,,,,,left,0.9097,4,0.2479,right,0.7846,0,0,0,0,1,,,,,,,,,,,,,,,,,
,,,,,,,,25,2021-11-26_13h32.04.971,premceCat2_ses-02_part-02_label-phase2,2020.2.10,Win32,60,,,,,,,,,,,,,,,,0,34,34,64,1,stimuli/objects/drillbit03a.jpg,left,old,65,,,,,,,,
,,,,,,,,25,2021-11-26_13h32.04.971,premceCat2_ses-02_part-02_label-phase2,2020.2.10,Win32,60,,,,,right,4.9294,2,0.0377,,,,,,,,0,35,35,17,1,stimuli/objects/exercisebench.jpg,right,new,18,,,,,,,,
,,,,,,,,25,2021-11-26_13h32.04.971,premceCat2_ses-02_part-02_label-phase2,2020.2.10,Win32,60,,,,,left,0.9775,4,0.0778,right,0.3977,0,0,0,0,1,,,,,,,,,,,,,,,,,
,,,,,,,,25,2021-11-26_13h32.04.971,premceCat2_ses-02_part-02_label-phase2,2020.2.10,Win32,60,,,,,,,,,,,,,,,,0,36,36,107,1,stimuli/objects/aluminiumfoil.jpg,left,old,108,,,,,,,,
,,,,,,,,25,2021-11-26_13h32.04.971,premceCat2_ses-02_part-02_label-phase2,2020.2.10,Win32,60,,,,,right,1.9285,2,0.358,,,,,,,,0,37,37,95,1,stimuli/objects/floppydisk02a.jpg,left,old,96,,,,,,,,
,,,,,,,,25,2021-11-26_13h32.04.971,premceCat2_ses-02_part-02_label-phase2,2020.2.10,Win32,60,,,,,right,1.3857,2,0.1195,,,,,,,,0,38,38,41,1,stimuli/objects/pylon01.jpg,right,new,42,,,,,,,,
,,,,,,,,25,2021-11-26_13h32.04.971,premceCat2_ses-02_part-02_label-phase2,2020.2.10,Win32,60,,,,,left,0.7206,4,0.2379,right,0.1578,0,0,0,0,1,,,,,,,,,,,,,,,,,
,,,,,,,,25,2021-11-26_13h32.04.971,premceCat2_ses-02_part-02_label-phase2,2020.2.10,Win32,60,,,,,,,,,,,,,,,,0,39,39,89,1,stimuli/objects/ducttape.jpg,right,new,90,,,,,,,,
,,,,,,,,25,2021-11-26_13h32.04.971,premceCat2_ses-02_part-02_label-phase2,2020.2.10,Win32,60,,,,,right,1.0224,1,0.2786,,,,,,,,0,40,40,21,1,stimuli/objects/paintbrush01.jpg,right,new,22,,,,,,,,
,,,,,,,,25,2021-11-26_13h32.04.971,premceCat2_ses-02_part-02_label-phase2,2020.2.10,Win32,60,,,,,right,1.3118,1,0.168,,,,,,,,0,41,41,108,1,stimuli/objects/metalscissors.jpg,right,new,109,,,,,,,,
,,,,,,,,25,2021-11-26_13h32.04.971,premceCat2_ses-02_part-02_label-phase2,2020.2.10,Win32,60,,,,,left,0.974,4,0.3582,left,0.736,0,0,0,0,1,,,,,,,,,,,,,,,,,
,,,,,,,,25,2021-11-26_13h32.04.971,premceCat2_ses-02_part-02_label-phase2,2020.2.10,Win32,60,,,,,,,,,,,,,,,,0,42,42,127,1,stimuli/objects/reflector.jpg,left,old,128,,,,,,,,
,,,,,,,,25,2021-11-26_13h32.04.971,premceCat2_ses-02_part-02_label-phase2,2020.2.10,Win32,60,,,,,left,0.7654,4,0.3124,left,0.1537,0,0,0,0,1,,,,,,,,,,,,,,,,,
,,,,,,,,25,2021-11-26_13h32.04.971,premceCat2_ses-02_part-02_label-phase2,2020.2.10,Win32,60,,,,,,,,,,,,,,,,0,43,43,34,1,stimuli/objects/lifesaver.jpg,left,old,35,,,,,,,,
,,,,,,,,25,2021-11-26_13h32.04.971,premceCat2_ses-02_part-02_label-phase2,2020.2.10,Win32,60,,,,,left,0.9775,3,1.9603,left,0.301,0,0,0,0,1,,,,,,,,,,,,,,,,,
,,,,,,,,25,2021-11-26_13h32.04.971,premceCat2_ses-02_part-02_label-phase2,2020.2.10,Win32,60,,,,,,,,,,,,,,,,0,44,44,98,1,stimuli/objects/baseball01a.jpg,left,old,99,,,,,,,,
,,,,,,,,25,2021-11-26_13h32.04.971,premceCat2_ses-02_part-02_label-phase2,2020.2.10,Win32,60,,,,,left,0.7667,4,0.255,left,0.3198,0,0,0,0,1,,,,,,,,,,,,,,,,,
,,,,,,,,25,2021-11-26_13h32.04.971,premceCat2_ses-02_part-02_label-phase2,2020.2.10,Win32,60,,,,,,,,,,,,,,,,0,45,45,47,1,stimuli/objects/caulking.jpg,left,old,48,,,,,,,,
,,,,,,,,25,2021-11-26_13h32.04.971,premceCat2_ses-02_part-02_label-phase2,2020.2.10,Win32,60,,,,,left,0.8019,4,0.2322,left,1.3843,0,0,0,0,1,,,,,,,,,,,,,,,,,
,,,,,,,,25,2021-11-26_13h32.04.971,premceCat2_ses-02_part-02_label-phase2,2020.2.10,Win32,60,,,,,,,,,,,,,,,,0,46,46,44,1,stimuli/objects/lawnmower.jpg,left,old,45,,,,,,,,
,,,,,,,,25,2021-11-26_13h32.04.971,premceCat2_ses-02_part-02_label-phase2,2020.2.10,Win32,60,,,,,left,0.8858,4,0.2179,right,0.2236,0,0,0,0,1,,,,,,,,,,,,,,,,,
,,,,,,,,25,2021-11-26_13h32.04.971,premceCat2_ses-02_part-02_label-phase2,2020.2.10,Win32,60,,,,,,,,,,,,,,,,0,47,47,115,1,stimuli/objects/saw02b.jpg,left,old,116,,,,,,,,
,,,,,,,,25,2021-11-26_13h32.04.971,premceCat2_ses-02_part-02_label-phase2,2020.2.10,Win32,60,,,,,left,0.8048,4,0.1869,right,0.3198,0,0,0,0,1,,,,,,,,,,,,,,,,,
,,,,,,,,25,2021-11-26_13h32.04.971,premceCat2_ses-02_part-02_label-phase2,2020.2.10,Win32,60,,,,,,,,,,,,,,,,0,48,48,56,1,stimuli/objects/funnel.jpg,left,old,57,,,,,,,,
,,,,,,,,25,2021-11-26_13h32.04.971,premceCat2_ses-02_part-02_label-phase2,2020.2.10,Win32,60,,,,,left,1.0414,3,1.3839,right,0.4159,0,0,0,0,1,,,,,,,,,,,,,,,,,
,,,,,,,,25,2021-11-26_13h32.04.971,premceCat2_ses-02_part-02_label-phase2,2020.2.10,Win32,60,,,,,,,,,,,,,,,,0,49,49,50,1,stimuli/objects/chisel02b.jpg,right,new,51,,,,,,,,
,,,,,,,,25,2021-11-26_13h32.04.971,premceCat2_ses-02_part-02_label-phase2,2020.2.10,Win32,60,,,,,right,1.1897,2,0.1191,,,,,,,,0,50,50,75,1,stimuli/objects/stepladder.jpg,right,new,76,,,,,,,,
,,,,,,,,25,2021-11-26_13h32.04.971,premceCat2_ses-02_part-02_label-phase2,2020.2.10,Win32,60,,,,,right,1.4861,2,0.2207,,,,,,,,0,51,51,46,1,stimuli/objects/walkman.jpg,right,new,47,,,,,,,,
,,,,,,,,25,2021-11-26_13h32.04.971,premceCat2_ses-02_part-02_label-phase2,2020.2.10,Win32,60,,,,,left,1.1204,4,0.1879,right,0.4943,0,0,0,0,1,,,,,,,,,,,,,,,,,
,,,,,,,,25,2021-11-26_13h32.04.971,premceCat2_ses-02_part-02_label-phase2,2020.2.10,Win32,60,,,,,,,,,,,,,,,,0,52,52,29,1,stimuli/objects/outletadapter.jpg,left,old,30,,,,,,,,
,,,,,,,,25,2021-11-26_13h32.04.971,premceCat2_ses-02_part-02_label-phase2,2020.2.10,Win32,60,,,,,left,1.6444,2,0.0517,right,0.4474,0,0,0,0,1,,,,,,,,,,,,,,,,,
,,,,,,,,25,2021-11-26_13h32.04.971,premceCat2_ses-02_part-02_label-phase2,2020.2.10,Win32,60,,,,,,,,,,,,,,,,0,53,53,35,1,stimuli/objects/alarmclock01.jpg,left,old,36,,,,,,,,
,,,,,,,,25,2021-11-26_13h32.04.971,premceCat2_ses-02_part-02_label-phase2,2020.2.10,Win32,60,,,,,left,1.3,2,0.2571,right,0.3046,0,0,0,0,1,,,,,,,,,,,,,,,,,
,,,,,,,,25,2021-11-26_13h32.04.971,premceCat2_ses-02_part-02_label-phase2,2020.2.10,Win32,60,,,,,,,,,,,,,,,,0,54,54,38,1,stimuli/objects/soundmixer.jpg,right,new,39,,,,,,,,
,,,,,,,,25,2021-11-26_13h32.04.971,premceCat2_ses-02_part-02_label-phase2,2020.2.10,Win32,60,,,,,right,0.8119,2,0.5978,,,,,,,,0,55,55,111,1,stimuli/objects/speaker04.jpg,right,new,112,,,,,,,,
,,,,,,,,25,2021-11-26_13h32.04.971,premceCat2_ses-02_part-02_label-phase2,2020.2.10,Win32,60,,,,,left,0.8938,2,0.0886,right,0.5103,0,0,0,0,1,,,,,,,,,,,,,,,,,
,,,,,,,,25,2021-11-26_13h32.04.971,premceCat2_ses-02_part-02_label-phase2,2020.2.10,Win32,60,,,,,,,,,,,,,,,,0,56,56,136,1,stimuli/objects/battery02b.jpg,right,new,137,,,,,,,,
,,,,,,,,25,2021-11-26_13h32.04.971,premceCat2_ses-02_part-02_label-phase2,2020.2.10,Win32,60,,,,,right,1.7044,4,0.8239,,,,,,,,0,57,57,139,1,stimuli/objects/frisbee.jpg,right,new,140,,,,,,,,
,,,,,,,,25,2021-11-26_13h32.04.971,premceCat2_ses-02_part-02_label-phase2,2020.2.10,Win32,60,,,,,right,1.5659,2,0.092,,,,,,,,0,58,58,99,1,stimuli/objects/paintroller01.jpg,left,old,100,,,,,,,,
,,,,,,,,25,2021-11-26_13h32.04.971,premceCat2_ses-02_part-02_label-phase2,2020.2.10,Win32,60,,,,,left,1.3196,1,0.4835,left,0.3117,0,0,0,0,1,,,,,,,,,,,,,,,,,
,,,,,,,,25,2021-11-26_13h32.04.971,premceCat2_ses-02_part-02_label-phase2,2020.2.10,Win32,60,,,,,,,,,,,,,,,,0,59,59,114,1,stimuli/objects/tray.jpg,left,old,115,,,,,,,,
,,,,,,,,25,2021-11-26_13h32.04.971,premceCat2_ses-02_part-02_label-phase2,2020.2.10,Win32,60,,,,,right,1.1802,2,0.1048,,,,,,,,0,60,60,133,1,stimuli/objects/icebucket.jpg,right,new,134,,,,,,,,
,,,,,,,,25,2021-11-26_13h32.04.971,premceCat2_ses-02_part-02_label-phase2,2020.2.10,Win32,60,,,,,right,0.9147,2,0.1618,,,,,,,,0,61,61,122,1,stimuli/objects/desktopcomputer.jpg,left,old,123,,,,,,,,
,,,,,,,,25,2021-11-26_13h32.04.971,premceCat2_ses-02_part-02_label-phase2,2020.2.10,Win32,60,,,,,right,1.4023,3,0.4732,,,,,,,,0,62,62,96,1,stimuli/objects/golfbag.jpg,right,new,97,,,,,,,,
,,,,,,,,25,2021-11-26_13h32.04.971,premceCat2_ses-02_part-02_label-phase2,2020.2.10,Win32,60,,,,,left,0.7862,4,0.3641,right,1.575,0,0,0,0,1,,,,,,,,,,,,,,,,,
,,,,,,,,25,2021-11-26_13h32.04.971,premceCat2_ses-02_part-02_label-phase2,2020.2.10,Win32,60,,,,,,,,,,,,,,,,0,63,63,45,1,stimuli/objects/cookingpot.jpg,left,old,46,,,,,,,,
,,,,,,,,25,2021-11-26_13h32.04.971,premceCat2_ses-02_part-02_label-phase2,2020.2.10,Win32,60,,,,,left,1.4374,2,0.0854,right,0.2665,0,0,0,0,1,,,,,,,,,,,,,,,,,
,,,,,,,,25,2021-11-26_13h32.04.971,premceCat2_ses-02_part-02_label-phase2,2020.2.10,Win32,60,,,,,,,,,,,,,,,,0,64,64,92,1,stimuli/objects/carjack.jpg,right,new,93,,,,,,,,
,,,,,,,,25,2021-11-26_13h32.04.971,premceCat2_ses-02_part-02_label-phase2,2020.2.10,Win32,60,,,,,right,0.8095,3,0.0918,,,,,,,,0,65,65,4,1,stimuli/objects/microphone01.jpg,right,new,5,,,,,,,,
,,,,,,,,25,2021-11-26_13h32.04.971,premceCat2_ses-02_part-02_label-phase2,2020.2.10,Win32,60,,,,,left,1.8196,1,0.0985,right,0.6617,0,0,0,0,1,,,,,,,,,,,,,,,,,
,,,,,,,,25,2021-11-26_13h32.04.971,premceCat2_ses-02_part-02_label-phase2,2020.2.10,Win32,60,,,,,,,,,,,,,,,,0,66,66,11,1,stimuli/objects/videocamera01a.jpg,left,old,12,,,,,,,,
,,,,,,,,25,2021-11-26_13h32.04.971,premceCat2_ses-02_part-02_label-phase2,2020.2.10,Win32,60,,,,,right,1.7613,2,0.1475,,,,,,,,0,67,67,86,1,stimuli/objects/toasteroven.jpg,right,new,87,,,,,,,,
,,,,,,,,25,2021-11-26_13h32.04.971,premceCat2_ses-02_part-02_label-phase2,2020.2.10,Win32,60,,,,,left,1.0354,3,0.0007,left,0.4772,0,0,0,0,1,,,,,,,,,,,,,,,,,
,,,,,,,,25,2021-11-26_13h32.04.971,premceCat2_ses-02_part-02_label-phase2,2020.2.10,Win32,60,,,,,,,,,,,,,,,,0,68,68,91,1,stimuli/objects/metalbrush.jpg,left,old,92,,,,,,,,
,,,,,,,,25,2021-11-26_13h32.04.971,premceCat2_ses-02_part-02_label-phase2,2020.2.10,Win32,60,,,,,right,1.3163,2,0.1196,,,,,,,,0,69,69,37,1,stimuli/objects/pressurewasher.jpg,left,old,38,,,,,,,,
,,,,,,,,25,2021-11-26_13h32.04.971,premceCat2_ses-02_part-02_label-phase2,2020.2.10,Win32,60,,,,,right,0.9938,2,0.2233,,,,,,,,0,70,70,16,1,stimuli/objects/knifesharpener.jpg,left,old,17,,,,,,,,
,,,,,,,,25,2021-11-26_13h32.04.971,premceCat2_ses-02_part-02_label-phase2,2020.2.10,Win32,60,,,,,right,0.9416,2,0.1605,,,,,,,,0,71,71,94,1,stimuli/objects/electricmixer.jpg,right,new,95,,,,,,,,
,,,,,,,,25,2021-11-26_13h32.04.971,premceCat2_ses-02_part-02_label-phase2,2020.2.10,Win32,60,,,,,left,1.5644,2,0.1633,right,0.3363,0,0,0,0,1,,,,,,,,,,,,,,,,,
,,,,,,,,25,2021-11-26_13h32.04.971,premceCat2_ses-02_part-02_label-phase2,2020.2.10,Win32,60,,,,,,,,,,,,,,,,0,72,72,135,1,stimuli/objects/stubbywrench01a.jpg,left,old,136,,,,,,,,
,,,,,,,,25,2021-11-26_13h32.04.971,premceCat2_ses-02_part-02_label-phase2,2020.2.10,Win32,60,,,,,left,1.2417,4,0.1502,right,0.4824,0,0,0,0,1,,,,,,,,,,,,,,,,,
,,,,,,,,25,2021-11-26_13h32.04.971,premceCat2_ses-02_part-02_label-phase2,2020.2.10,Win32,60,,,,,,,,,,,,,,,,0,73,73,6,1,stimuli/objects/pitcher02b.jpg,left,old,7,,,,,,,,
,,,,,,,,25,2021-11-26_13h32.04.971,premceCat2_ses-02_part-02_label-phase2,2020.2.10,Win32,60,,,,,right,0.7167,2,0.2476,,,,,,,,0,74,74,93,1,stimuli/objects/icepack.jpg,right,new,94,,,,,,,,
,,,,,,,,25,2021-11-26_13h32.04.971,premceCat2_ses-02_part-02_label-phase2,2020.2.10,Win32,60,,,,,right,1.8986,1,0.0744,,,,,,,,0,75,75,78,1,stimuli/objects/butterknife.jpg,left,old,79,,,,,,,,
,,,,,,,,25,2021-11-26_13h32.04.971,premceCat2_ses-02_part-02_label-phase2,2020.2.10,Win32,60,,,,,right,0.9253,1,0.2278,,,,,,,,0,76,76,40,1,stimuli/objects/level03a.jpg,left,old,41,,,,,,,,
,,,,,,,,25,2021-11-26_13h32.04.971,premceCat2_ses-02_part-02_label-phase2,2020.2.10,Win32,60,,,,,left,1.3738,2,0.052,right,0.1628,0,0,0,0,1,,,,,,,,,,,,,,,,,
,,,,,,,,25,2021-11-26_13h32.04.971,premceCat2_ses-02_part-02_label-phase2,2020.2.10,Win32,60,,,,,,,,,,,,,,,,0,77,77,118,1,stimuli/objects/adjustablewrench01b.jpg,left,old,119,,,,,,,,
,,,,,,,,25,2021-11-26_13h32.04.971,premceCat2_ses-02_part-02_label-phase2,2020.2.10,Win32,60,,,,,right,0.8787,1,0.346,,,,,,,,0,78,78,134,1,stimuli/objects/screwdriver04b.jpg,right,new,135,,,,,,,,
,,,,,,,,25,2021-11-26_13h32.04.971,premceCat2_ses-02_part-02_label-phase2,2020.2.10,Win32,60,,,,,left,1.3181,2,0.0915,left,0.8681,0,0,0,0,1,,,,,,,,,,,,,,,,,
,,,,,,,,25,2021-11-26_13h32.04.971,premceCat2_ses-02_part-02_label-phase2,2020.2.10,Win32,60,,,,,,,,,,,,,,,,0,79,79,13,1,stimuli/objects/bastingbrush.jpg,right,new,14,,,,,,,,
,,,,,,,,25,2021-11-26_13h32.04.971,premceCat2_ses-02_part-02_label-phase2,2020.2.10,Win32,60,,,,,right,1.0504,2,0.2403,,,,,,,,0,80,80,42,1,stimuli/objects/snowshoe.jpg,right,new,43,,,,,,,,
,,,,,,,,25,2021-11-26_13h32.04.971,premceCat2_ses-02_part-02_label-phase2,2020.2.10,Win32,60,,,,,right,0.8264,3,0.0877,,,,,,,,0,81,81,19,1,stimuli/objects/peppermill02b.jpg,right,new,20,,,,,,,,
,,,,,,,,25,2021-11-26_13h32.04.971,premceCat2_ses-02_part-02_label-phase2,2020.2.10,Win32,60,,,,,right,1.4091,2,0.0714,,,,,,,,0,82,82,128,1,stimuli/objects/tripod01.jpg,right,new,129,,,,,,,,
,,,,,,,,25,2021-11-26_13h32.04.971,premceCat2_ses-02_part-02_label-phase2,2020.2.10,Win32,60,,,,,left,0.7377,4,0.0655,left,0.1913,0,0,0,0,1,,,,,,,,,,,,,,,,,
,,,,,,,,25,2021-11-26_13h32.04.971,premceCat2_ses-02_part-02_label-phase2,2020.2.10,Win32,60,,,,,,,,,,,,,,,,0,83,83,28,1,stimuli/objects/poolnet.jpg,left,old,29,,,,,,,,
,,,,,,,,25,2021-11-26_13h32.04.971,premceCat2_ses-02_part-02_label-phase2,2020.2.10,Win32,60,,,,,left,1.3119,2,0.1755,right,0.1299,0,0,0,0,1,,,,,,,,,,,,,,,,,
,,,,,,,,25,2021-11-26_13h32.04.971,premceCat2_ses-02_part-02_label-phase2,2020.2.10,Win32,60,,,,,,,,,,,,,,,,0,84,84,57,1,stimuli/objects/audiocablesplitter.jpg,right,new,58,,,,,,,,
,,,,,,,,25,2021-11-26_13h32.04.971,premceCat2_ses-02_part-02_label-phase2,2020.2.10,Win32,60,,,,,left,0.9076,4,0.2188,right,1.259,0,0,0,0,1,,,,,,,,,,,,,,,,,
,,,,,,,,25,2021-11-26_13h32.04.971,premceCat2_ses-02_part-02_label-phase2,2020.2.10,Win32,60,,,,,,,,,,,,,,,,0,85,85,97,1,stimuli/objects/securitycamera.jpg,left,old,98,,,,,,,,
,,,,,,,,25,2021-11-26_13h32.04.971,premceCat2_ses-02_part-02_label-phase2,2020.2.10,Win32,60,,,,,right,1.0159,2,0.1252,,,,,,,,0,86,86,63,1,stimuli/objects/butterdish.jpg,right,new,64,,,,,,,,
,,,,,,,,25,2021-11-26_13h32.04.971,premceCat2_ses-02_part-02_label-phase2,2020.2.10,Win32,60,,,,,right,1.1087,2,0.0823,,,,,,,,0,87,87,43,1,stimuli/objects/punchingball.jpg,right,new,44,,,,,,,,
,,,,,,,,25,2021-11-26_13h32.04.971,premceCat2_ses-02_part-02_label-phase2,2020.2.10,Win32,60,,,,,right,1.325,2,0.5429,,,,,,,,0,88,88,82,1,stimuli/objects/snowbrush.jpg,right,new,83,,,,,,,,
,,,,,,,,25,2021-11-26_13h32.04.971,premceCat2_ses-02_part-02_label-phase2,2020.2.10,Win32,60,,,,,left,1.5013,2,0.182,right,0.2778,0,0,0,0,1,,,,,,,,,,,,,,,,,
,,,,,,,,25,2021-11-26_13h32.04.971,premceCat2_ses-02_part-02_label-phase2,2020.2.10,Win32,60,,,,,,,,,,,,,,,,0,89,89,74,1,stimuli/objects/snowboard.jpg,left,old,75,,,,,,,,
,,,,,,,,25,2021-11-26_13h32.04.971,premceCat2_ses-02_part-02_label-phase2,2020.2.10,Win32,60,,,,,left,1.7072,2,0.1529,right,0.1505,0,0,0,0,1,,,,,,,,,,,,,,,,,
,,,,,,,,25,2021-11-26_13h32.04.971,premceCat2_ses-02_part-02_label-phase2,2020.2.10,Win32,60,,,,,,,,,,,,,,,,0,90,90,58,1,stimuli/objects/weedwacker.jpg,left,old,59,,,,,,,,
,,,,,,,,25,2021-11-26_13h32.04.971,premceCat2_ses-02_part-02_label-phase2,2020.2.10,Win32,60,,,,,right,1.0727,2,0.223,,,,,,,,0,91,91,81,1,stimuli/objects/avcable.jpg,right,new,82,,,,,,,,
,,,,,,,,25,2021-11-26_13h32.04.971,premceCat2_ses-02_part-02_label-phase2,2020.2.10,Win32,60,,,,,left,0.7871,3,0.1497,right,0.2622,0,0,0,0,1,,,,,,,,,,,,,,,,,
,,,,,,,,25,2021-11-26_13h32.04.971,premceCat2_ses-02_part-02_label-phase2,2020.2.10,Win32,60,,,,,,,,,,,,,,,,0,92,92,142,1,stimuli/objects/martiniglass01b.jpg,left,old,143,,,,,,,,
,,,,,,,,25,2021-11-26_13h32.04.971,premceCat2_ses-02_part-02_label-phase2,2020.2.10,Win32,60,,,,,left,0.8766,4,0.2274,right,1.0396,0,0,0,0,1,,,,,,,,,,,,,,,,,
,,,,,,,,25,2021-11-26_13h32.04.971,premceCat2_ses-02_part-02_label-phase2,2020.2.10,Win32,60,,,,,,,,,,,,,,,,0,93,93,52,1,stimuli/objects/handmixer01d.jpg,left,old,53,,,,,,,,
,,,,,,,,25,2021-11-26_13h32.04.971,premceCat2_ses-02_part-02_label-phase2,2020.2.10,Win32,60,,,,,right,1.1217,1,0.2911,,,,,,,,0,94,94,83,1,stimuli/objects/kitchenscale01a.jpg,right,new,84,,,,,,,,
,,,,,,,,25,2021-11-26_13h32.04.971,premceCat2_ses-02_part-02_label-phase2,2020.2.10,Win32,60,,,,,left,1.1849,2,0.5144,left,1.1722,0,0,0,0,1,,,,,,,,,,,,,,,,,
,,,,,,,,25,2021-11-26_13h32.04.971,premceCat2_ses-02_part-02_label-phase2,2020.2.10,Win32,60,,,,,,,,,,,,,,,,0,95,95,36,1,stimuli/objects/slidetray.jpg,left,old,37,,,,,,,,
,,,,,,,,25,2021-11-26_13h32.04.971,premceCat2_ses-02_part-02_label-phase2,2020.2.10,Win32,60,,,,,left,2.0159,1,0.1489,left,1.2057,0,0,0,0,1,,,,,,,,,,,,,,,,,
,,,,,,,,25,2021-11-26_13h32.04.971,premceCat2_ses-02_part-02_label-phase2,2020.2.10,Win32,60,,,,,,,,,,,,,,,,0,96,96,125,1,stimuli/objects/shoulderpad.jpg,right,new,126,,,,,,,,
,,,,,,,,25,2021-11-26_13h32.04.971,premceCat2_ses-02_part-02_label-phase2,2020.2.10,Win32,60,,,,,left,3.0019,1,0.0005,left,0.0857,0,0,0,0,1,,,,,,,,,,,,,,,,,
,,,,,,,,25,2021-11-26_13h32.04.971,premceCat2_ses-02_part-02_label-phase2,2020.2.10,Win32,60,,,,,,,,,,,,,,,,0,97,97,24,1,stimuli/objects/skateboard.jpg,right,new,25,,,,,,,,
,,,,,,,,25,2021-11-26_13h32.04.971,premceCat2_ses-02_part-02_label-phase2,2020.2.10,Win32,60,,,,,left,1.3383,2,0.1479,left,0.5066,0,0,0,0,1,,,,,,,,,,,,,,,,,
,,,,,,,,25,2021-11-26_13h32.04.971,premceCat2_ses-02_part-02_label-phase2,2020.2.10,Win32,60,,,,,,,,,,,,,,,,0,98,98,130,1,stimuli/objects/cooler01.jpg,left,old,131,,,,,,,,
,,,,,,,,25,2021-11-26_13h32.04.971,premceCat2_ses-02_part-02_label-phase2,2020.2.10,Win32,60,,,,,right,0.8145,3,0.0573,,,,,,,,0,99,99,109,1,stimuli/objects/winerack.jpg,right,new,110,,,,,,,,
,,,,,,,,25,2021-11-26_13h32.04.971,premceCat2_ses-02_part-02_label-phase2,2020.2.10,Win32,60,,,,,right,1.2647,4,0.2824,,,,,,,,0,100,100,80,1,stimuli/objects/snowman.jpg,right,new,81,,,,,,,,
,,,,,,,,25,2021-11-26_13h32.04.971,premceCat2_ses-02_part-02_label-phase2,2020.2.10,Win32,60,,,,,left,1.0269,2,0.2637,right,0.9212,0,0,0,0,1,,,,,,,,,,,,,,,,,
,,,,,,,,25,2021-11-26_13h32.04.971,premceCat2_ses-02_part-02_label-phase2,2020.2.10,Win32,60,,,,,,,,,,,,,,,,0,101,101,67,1,stimuli/objects/fishingrod.jpg,left,old,68,,,,,,,,
,,,,,,,,25,2021-11-26_13h32.04.971,premceCat2_ses-02_part-02_label-phase2,2020.2.10,Win32,60,,,,,right,1.9409,2,0.3136,,,,,,,,0,102,102,23,1,stimuli/objects/football.jpg,right,new,24,,,,,,,,
,,,,,,,,25,2021-11-26_13h32.04.971,premceCat2_ses-02_part-02_label-phase2,2020.2.10,Win32,60,,,,,right,1.0732,2,0.1492,,,,,,,,0,103,103,60,1,stimuli/objects/glass02a.jpg,right,new,61,,,,,,,,
,,,,,,,,25,2021-11-26_13h32.04.971,premceCat2_ses-02_part-02_label-phase2,2020.2.10,Win32,60,,,,,left,1.4016,2,0.6812,right,1.5455,0,0,0,0,1,,,,,,,,,,,,,,,,,
,,,,,,,,25,2021-11-26_13h32.04.971,premceCat2_ses-02_part-02_label-phase2,2020.2.10,Win32,60,,,,,,,,,,,,,,,,0,104,104,102,1,stimuli/objects/backpack01a.jpg,left,old,103,,,,,,,,
,,,,,,,,25,2021-11-26_13h32.04.971,premceCat2_ses-02_part-02_label-phase2,2020.2.10,Win32,60,,,,,left,1.724,2,0.0836,right,0.1576,0,0,0,0,1,,,,,,,,,,,,,,,,,
,,,,,,,,25,2021-11-26_13h32.04.971,premceCat2_ses-02_part-02_label-phase2,2020.2.10,Win32,60,,,,,,,,,,,,,,,,0,105,105,138,1,stimuli/objects/taperecorder.jpg,right,new,139,,,,,,,,
,,,,,,,,25,2021-11-26_13h32.04.971,premceCat2_ses-02_part-02_label-phase2,2020.2.10,Win32,60,,,,,right,1.5819,2,0.1762,,,,,,,,0,106,106,30,1,stimuli/objects/printer02.jpg,right,new,31,,,,,,,,
,,,,,,,,25,2021-11-26_13h32.04.971,premceCat2_ses-02_part-02_label-phase2,2020.2.10,Win32,60,,,,,right,0.7041,3,0.164,,,,,,,,0,107,107,25,1,stimuli/objects/bowlingball.jpg,right,new,26,,,,,,,,
,,,,,,,,25,2021-11-26_13h32.04.971,premceCat2_ses-02_part-02_label-phase2,2020.2.10,Win32,60,,,,,right,0.7926,3,0.0651,,,,,,,,0,108,108,73,1,stimuli/objects/clock01a.jpg,right,new,74,,,,,,,,
,,,,,,,,25,2021-11-26_13h32.04.971,premceCat2_ses-02_part-02_label-phase2,2020.2.10,Win32,60,,,,,right,2.0698,3,0.1597,,,,,,,,0,109,109,104,1,stimuli/objects/lectern01.jpg,left,old,105,,,,,,,,
,,,,,,,,25,2021-11-26_13h32.04.971,premceCat2_ses-02_part-02_label-phase2,2020.2.10,Win32,60,,,,,left,1.0846,2,0.0964,right,0.0992,0,0,0,0,1,,,,,,,,,,,,,,,,,
,,,,,,,,25,2021-11-26_13h32.04.971,premceCat2_ses-02_part-02_label-phase2,2020.2.10,Win32,60,,,,,,,,,,,,,,,,0,110,110,31,1,stimuli/objects/gastank.jpg,left,old,32,,,,,,,,
,,,,,,,,25,2021-11-26_13h32.04.971,premceCat2_ses-02_part-02_label-phase2,2020.2.10,Win32,60,,,,,left,0.7288,4,0.1599,right,0.3108,0,0,0,0,1,,,,,,,,,,,,,,,,,
,,,,,,,,25,2021-11-26_13h32.04.971,premceCat2_ses-02_part-02_label-phase2,2020.2.10,Win32,60,,,,,,,,,,,,,,,,0,111,111,48,1,stimuli/objects/bottlecap.jpg,left,old,49,,,,,,,,
,,,,,,,,25,2021-11-26_13h32.04.971,premceCat2_ses-02_part-02_label-phase2,2020.2.10,Win32,60,,,,,left,1.4975,2,0.8467,right,0.305,0,0,0,0,1,,,,,,,,,,,,,,,,,
,,,,,,,,25,2021-11-26_13h32.04.971,premceCat2_ses-02_part-02_label-phase2,2020.2.10,Win32,60,,,,,,,,,,,,,,,,0,112,112,113,1,stimuli/objects/powercable.jpg,right,new,114,,,,,,,,
,,,,,,,,25,2021-11-26_13h32.04.971,premceCat2_ses-02_part-02_label-phase2,2020.2.10,Win32,60,,,,,left,1.6808,2,0.0816,right,0.3008,0,0,0,0,1,,,,,,,,,,,,,,,,,
,,,,,,,,25,2021-11-26_13h32.04.971,premceCat2_ses-02_part-02_label-phase2,2020.2.10,Win32,60,,,,,,,,,,,,,,,,0,113,113,124,1,stimuli/objects/fishinghook03.jpg,left,old,125,,,,,,,,
,,,,,,,,25,2021-11-26_13h32.04.971,premceCat2_ses-02_part-02_label-phase2,2020.2.10,Win32,60,,,,,right,0.8915,3,0.3595,,,,,,,,0,114,114,85,1,stimuli/objects/golfball.jpg,right,new,86,,,,,,,,
,,,,,,,,25,2021-11-26_13h32.04.971,premceCat2_ses-02_part-02_label-phase2,2020.2.10,Win32,60,,,,,right,1.0571,2,0.1731,,,,,,,,0,115,115,117,1,stimuli/objects/videotape01b.jpg,right,new,118,,,,,,,,
,,,,,,,,25,2021-11-26_13h32.04.971,premceCat2_ses-02_part-02_label-phase2,2020.2.10,Win32,60,,,,,left,0.7923,4,0.2011,right,0.1958,0,0,0,0,1,,,,,,,,,,,,,,,,,
,,,,,,,,25,2021-11-26_13h32.04.971,premceCat2_ses-02_part-02_label-phase2,2020.2.10,Win32,60,,,,,,,,,,,,,,,,0,116,116,132,1,stimuli/objects/payphone.jpg,left,old,133,,,,,,,,
,,,,,,,,25,2021-11-26_13h32.04.971,premceCat2_ses-02_part-02_label-phase2,2020.2.10,Win32,60,,,,,right,0.9729,1,0.2015,,,,,,,,0,117,117,141,1,stimuli/objects/generator.jpg,right,new,142,,,,,,,,
,,,,,,,,25,2021-11-26_13h32.04.971,premceCat2_ses-02_part-02_label-phase2,2020.2.10,Win32,60,,,,,right,0.9252,3,0.3344,,,,,,,,0,118,118,22,1,stimuli/objects/umbrella04.jpg,right,new,23,,,,,,,,
,,,,,,,,25,2021-11-26_13h32.04.971,premceCat2_ses-02_part-02_label-phase2,2020.2.10,Win32,60,,,,,right,1.034,2,0.1287,,,,,,,,0,119,119,10,1,stimuli/objects/dvdplayer.jpg,left,old,11,,,,,,,,
,,,,,,,,25,2021-11-26_13h32.04.971,premceCat2_ses-02_part-02_label-phase2,2020.2.10,Win32,60,,,,,left,1.6494,2,0.1173,right,0.3175,0,0,0,0,1,,,,,,,,,,,,,,,,,
,,,,,,,,25,2021-11-26_13h32.04.971,premceCat2_ses-02_part-02_label-phase2,2020.2.10,Win32,60,,,,,,,,,,,,,,,,0,120,120,129,1,stimuli/objects/peeler01.jpg,left,old,130,,,,,,,,
,,,,,,,,25,2021-11-26_13h32.04.971,premceCat2_ses-02_part-02_label-phase2,2020.2.10,Win32,60,,,,,left,0.7763,4,0.298,right,0.2291,0,0,0,0,1,,,,,,,,,,,,,,,,,
,,,,,,,,25,2021-11-26_13h32.04.971,premceCat2_ses-02_part-02_label-phase2,2020.2.10,Win32,60,,,,,,,,,,,,,,,,0,121,121,65,1,stimuli/objects/drill01b.jpg,left,old,66,,,,,,,,
,,,,,,,,25,2021-11-26_13h32.04.971,premceCat2_ses-02_part-02_label-phase2,2020.2.10,Win32,60,,,,,right,0.8316,2,0.1,,,,,,,,0,122,122,53,1,stimuli/objects/binoculars01b.jpg,right,new,54,,,,,,,,
,,,,,,,,25,2021-11-26_13h32.04.971,premceCat2_ses-02_part-02_label-phase2,2020.2.10,Win32,60,,,,,left,0.8738,4,0.185,left,0.0746,0,0,0,0,1,,,,,,,,,,,,,,,,,
,,,,,,,,25,2021-11-26_13h32.04.971,premceCat2_ses-02_part-02_label-phase2,2020.2.10,Win32,60,,,,,,,,,,,,,,,,0,123,123,140,1,stimuli/objects/canoepaddle02.jpg,left,old,141,,,,,,,,
,,,,,,,,25,2021-11-26_13h32.04.971,premceCat2_ses-02_part-02_label-phase2,2020.2.10,Win32,60,,,,,left,1.2262,4,0.7271,right,0.3961,0,0,0,0,1,,,,,,,,,,,,,,,,,
,,,,,,,,25,2021-11-26_13h32.04.971,premceCat2_ses-02_part-02_label-phase2,2020.2.10,Win32,60,,,,,,,,,,,,,,,,0,124,124,70,1,stimuli/objects/bowl02a.jpg,left,old,71,,,,,,,,
,,,,,,,,25,2021-11-26_13h32.04.971,premceCat2_ses-02_part-02_label-phase2,2020.2.10,Win32,60,,,,,left,1.1696,3,0.0799,right,0.386,0,0,0,0,1,,,,,,,,,,,,,,,,,
,,,,,,,,25,2021-11-26_13h32.04.971,premceCat2_ses-02_part-02_label-phase2,2020.2.10,Win32,60,,,,,,,,,,,,,,,,0,125,125,123,1,stimuli/objects/thermos.jpg,left,old,124,,,,,,,,
,,,,,,,,25,2021-11-26_13h32.04.971,premceCat2_ses-02_part-02_label-phase2,2020.2.10,Win32,60,,,,,left,0.7274,4,0.1,right,0.829,0,0,0,0,1,,,,,,,,,,,,,,,,,
,,,,,,,,25,2021-11-26_13h32.04.971,premceCat2_ses-02_part-02_label-phase2,2020.2.10,Win32,60,,,,,,,,,,,,,,,,0,126,126,105,1,stimuli/objects/lightbulb01.jpg,left,old,106,,,,,,,,
,,,,,,,,25,2021-11-26_13h32.04.971,premceCat2_ses-02_part-02_label-phase2,2020.2.10,Win32,60,,,,,right,1.3572,3,0.6078,,,,,,,,0,127,127,26,1,stimuli/objects/boogieboard.jpg,right,new,27,,,,,,,,
,,,,,,,,25,2021-11-26_13h32.04.971,premceCat2_ses-02_part-02_label-phase2,2020.2.10,Win32,60,,,,,right,1.4442,2,0.2637,,,,,,,,0,128,128,39,1,stimuli/objects/sippycup.jpg,right,new,40,,,,,,,,
,,,,,,,,25,2021-11-26_13h32.04.971,premceCat2_ses-02_part-02_label-phase2,2020.2.10,Win32,60,,,,,right,1.52,2,0.0395,,,,,,,,0,129,129,49,1,stimuli/objects/exercisebike.jpg,left,old,50,,,,,,,,
,,,,,,,,25,2021-11-26_13h32.04.971,premceCat2_ses-02_part-02_label-phase2,2020.2.10,Win32,60,,,,,left,1.209,3,0.0007,right,0.2124,0,0,0,0,1,,,,,,,,,,,,,,,,,
,,,,,,,,25,2021-11-26_13h32.04.971,premceCat2_ses-02_part-02_label-phase2,2020.2.10,Win32,60,,,,,,,,,,,,,,,,0,130,130,126,1,stimuli/objects/tableknife02.jpg,right,new,127,,,,,,,,
,,,,,,,,25,2021-11-26_13h32.04.971,premceCat2_ses-02_part-02_label-phase2,2020.2.10,Win32,60,,,,,left,0.9391,2,0.2317,right,0.9854,0,0,0,0,1,,,,,,,,,,,,,,,,,
,,,,,,,,25,2021-11-26_13h32.04.971,premceCat2_ses-02_part-02_label-phase2,2020.2.10,Win32,60,,,,,,,,,,,,,,,,0,131,131,71,1,stimuli/objects/faxmachine.jpg,right,new,72,,,,,,,,
,,,,,,,,25,2021-11-26_13h32.04.971,premceCat2_ses-02_part-02_label-phase2,2020.2.10,Win32,60,,,,,right,0.9672,3,0.0786,,,,,,,,0,132,132,131,1,stimuli/objects/spotlight.jpg,right,new,132,,,,,,,,
,,,,,,,,25,2021-11-26_13h32.04.971,premceCat2_ses-02_part-02_label-phase2,2020.2.10,Win32,60,,,,,left,0.9426,3,0.2456,right,0.7028,0,0,0,0,1,,,,,,,,,,,,,,,,,
,,,,,,,,25,2021-11-26_13h32.04.971,premceCat2_ses-02_part-02_label-phase2,2020.2.10,Win32,60,,,,,,,,,,,,,,,,0,133,133,87,1,stimuli/objects/fanblades.jpg,left,old,88,,,,,,,,
,,,,,,,,25,2021-11-26_13h32.04.971,premceCat2_ses-02_part-02_label-phase2,2020.2.10,Win32,60,,,,,right,0.8002,2,0.0529,,,,,,,,0,134,134,121,1,stimuli/objects/ceilingspeaker.jpg,right,new,122,,,,,,,,
,,,,,,,,25,2021-11-26_13h32.04.971,premceCat2_ses-02_part-02_label-phase2,2020.2.10,Win32,60,,,,,left,0.8159,3,0.0211,right,0.4627,0,0,0,0,1,,,,,,,,,,,,,,,,,
,,,,,,,,25,2021-11-26_13h32.04.971,premceCat2_ses-02_part-02_label-phase2,2020.2.10,Win32,60,,,,,,,,,,,,,,,,0,135,135,5,1,stimuli/objects/expansioncard.jpg,left,old,6,,,,,,,,
,,,,,,,,25,2021-11-26_13h32.04.971,premceCat2_ses-02_part-02_label-phase2,2020.2.10,Win32,60,,,,,left,1.1046,3,0.3662,left,0.1222,0,0,0,0,1,,,,,,,,,,,,,,,,,
,,,,,,,,25,2021-11-26_13h32.04.971,premceCat2_ses-02_part-02_label-phase2,2020.2.10,Win32,60,,,,,,,,,,,,,,,,0,136,136,27,1,stimuli/objects/anchor.jpg,left,old,28,,,,,,,,
,,,,,,,,25,2021-11-26_13h32.04.971,premceCat2_ses-02_part-02_label-phase2,2020.2.10,Win32,60,,,,,left,0.8269,4,0.13,right,0.8123,0,0,0,0,1,,,,,,,,,,,,,,,,,
,,,,,,,,25,2021-11-26_13h32.04.971,premceCat2_ses-02_part-02_label-phase2,2020.2.10,Win32,60,,,,,,,,,,,,,,,,0,137,137,103,1,stimuli/objects/cork02.jpg,left,old,104,,,,,,,,
,,,,,,,,25,2021-11-26_13h32.04.971,premceCat2_ses-02_part-02_label-phase2,2020.2.10,Win32,60,,,,,left,0.9548,2,0.2494,right,0.2091,0,0,0,0,1,,,,,,,,,,,,,,,,,
,,,,,,,,25,2021-11-26_13h32.04.971,premceCat2_ses-02_part-02_label-phase2,2020.2.10,Win32,60,,,,,,,,,,,,,,,,0,138,138,55,1,stimuli/objects/toolbox02.jpg,right,new,56,,,,,,,,
,,,,,,,,25,2021-11-26_13h32.04.971,premceCat2_ses-02_part-02_label-phase2,2020.2.10,Win32,60,,,,,left,3.3509,3,0.119,right,1.2614,0,0,0,0,1,,,,,,,,,,,,,,,,,
,,,,,,,,25,2021-11-26_13h32.04.971,premceCat2_ses-02_part-02_label-phase2,2020.2.10,Win32,60,,,,,,,,,,,,,,,,0,139,139,14,1,stimuli/objects/puttyknife.jpg,left,old,15,,,,,,,,
,,,,,,,,25,2021-11-26_13h32.04.971,premceCat2_ses-02_part-02_label-phase2,2020.2.10,Win32,60,,,,,left,1.2049,2,0.14,right,0.9932,0,0,0,0,1,,,,,,,,,,,,,,,,,
,,,,,,,,25,2021-11-26_13h32.04.971,premceCat2_ses-02_part-02_label-phase2,2020.2.10,Win32,60,,,,,,,,,,,,,,,,0,140,140,72,1,stimuli/objects/cclamp.jpg,right,new,73,,,,,,,,
,,,,,,,,25,2021-11-26_13h32.04.971,premceCat2_ses-02_part-02_label-phase2,2020.2.10,Win32,60,,,,,left,1.9278,2,0.1019,right,1.3454,0,0,0,0,1,,,,,,,,,,,,,,,,,
,,,,,,,,25,2021-11-26_13h32.04.971,premceCat2_ses-02_part-02_label-phase2,2020.2.10,Win32,60,,,,,,,,,,,,,,,,0,141,141,8,1,stimuli/objects/basketballhoop01.jpg,right,new,9,,,,,,,,
,,,,,,,,25,2021-11-26_13h32.04.971,premceCat2_ses-02_part-02_label-phase2,2020.2.10,Win32,60,,,,,left,0.8842,3,0.5796,right,0.1387,0,0,0,0,1,,,,,,,,,,,,,,,,,
,,,,,,,,25,2021-11-26_13h32.04.971,premceCat2_ses-02_part-02_label-phase2,2020.2.10,Win32,60,,,,,,,,,,,,,,,,0,142,142,100,1,stimuli/objects/remotecontrol04.jpg,right,new,101,,,,,,,,
,,,,,,,,25,2021-11-26_13h32.04.971,premceCat2_ses-02_part-02_label-phase2,2020.2.10,Win32,60,,,,,,,,,,,,,,,,,,,,,,,,,space,3.4459,0,1,1,0,1,condition_files/ImagesforRecog2_1.csv
