instructions_loop.thisRepN,instructions_loop.thisTrialN,instructions_loop.thisN,instructions_loop.thisIndex,instructions_loop.ran,text1,text2,text3,participant,date,expName,psychopyVersion,OS,frameRate,key_resp_2.keys,key_resp_2.rt,key_resp_3.keys,key_resp_3.rt,recog_resp.keys,recog_resp.rt,conf_resp.keys,conf_resp.rt,recog_loop.thisRepN,recog_loop.thisTrialN,recog_loop.thisN,recog_loop.thisIndex,recog_loop.ran,images,corr_ans,type,order,resp_assoc.keys,resp_assoc.rt,assoc_loop.thisRepN,assoc_loop.thisTrialN,assoc_loop.thisN,assoc_loop.thisIndex,assoc_loop.ran,key_resp_break.keys,key_resp_break.rt,list_loop.thisRepN,list_loop.thisTrialN,list_loop.thisN,list_loop.thisIndex,list_loop.ran,recog_list
0,0,0,0,1,Welcome to the last phase of this experiment!,.,Please press the space bar to continue,26,2021-11-19_09h36.32.052,premceCat2_ses-02_part-02_label-phase2,2020.2.10,Win32,60,,,,,,,,,,,,,,,,,,,,,,,,,,,,,,,,
0,1,1,1,1,.,"In this phase, you will see some objects. 

For each object, you should indicate whether you have seen it before during the experiment.

Press LEFT ARROW for YES
Press RIGHT ARROW for NO

",Please press the space bar to continue ,26,2021-11-19_09h36.32.052,premceCat2_ses-02_part-02_label-phase2,2020.2.10,Win32,60,,,,,,,,,,,,,,,,,,,,,,,,,,,,,,,,
0,2,2,2,1,.,"After that, you will be asked how confident you are of your choice.

Please rate the confidence in your choice with the numbers from 1 to 4 of your keyboard. 

The numbers correspond to:

1 = Very unsure
2 = Unsure
3 = Sure
4 = Very Sure",Please press the space bar to continue,26,2021-11-19_09h36.32.052,premceCat2_ses-02_part-02_label-phase2,2020.2.10,Win32,60,,,,,,,,,,,,,,,,,,,,,,,,,,,,,,,,
,,,,,,,,26,2021-11-19_09h36.32.052,premceCat2_ses-02_part-02_label-phase2,2020.2.10,Win32,60,space,8.2434,space,2.9269,right,2.0016,4,1.821,0,0,0,18,1,stimuli/objects/cashregister01.jpg,right,new,19,,,,,,,,,,,,,,,
,,,,,,,,26,2021-11-19_09h36.32.052,premceCat2_ses-02_part-02_label-phase2,2020.2.10,Win32,60,,,,,left,1.6791,4,1.0958,,,,,,,,,,left,2.0305,0,0,0,0,1,,,,,,,,
,,,,,,,,26,2021-11-19_09h36.32.052,premceCat2_ses-02_part-02_label-phase2,2020.2.10,Win32,60,,,,,,,,,0,1,1,15,1,stimuli/objects/spicerack.jpg,left,old,16,,,,,,,,,,,,,,,
,,,,,,,,26,2021-11-19_09h36.32.052,premceCat2_ses-02_part-02_label-phase2,2020.2.10,Win32,60,,,,,left,1.1469,4,1.6056,,,,,,,,,,right,0.8008,0,0,0,0,1,,,,,,,,
,,,,,,,,26,2021-11-19_09h36.32.052,premceCat2_ses-02_part-02_label-phase2,2020.2.10,Win32,60,,,,,,,,,0,2,2,79,1,stimuli/objects/wire.jpg,left,old,80,,,,,,,,,,,,,,,
,,,,,,,,26,2021-11-19_09h36.32.052,premceCat2_ses-02_part-02_label-phase2,2020.2.10,Win32,60,,,,,right,1.7654,4,2.3517,0,3,3,141,1,stimuli/objects/generator.jpg,right,new,142,,,,,,,,,,,,,,,
,,,,,,,,26,2021-11-19_09h36.32.052,premceCat2_ses-02_part-02_label-phase2,2020.2.10,Win32,60,,,,,left,1.4434,4,1.6793,,,,,,,,,,left,0.7293,0,0,0,0,1,,,,,,,,
,,,,,,,,26,2021-11-19_09h36.32.052,premceCat2_ses-02_part-02_label-phase2,2020.2.10,Win32,60,,,,,,,,,0,4,4,11,1,stimuli/objects/usbkey.jpg,left,old,12,,,,,,,,,,,,,,,
,,,,,,,,26,2021-11-19_09h36.32.052,premceCat2_ses-02_part-02_label-phase2,2020.2.10,Win32,60,,,,,left,0.969,4,0.8336,,,,,,,,,,left,7.0342,0,0,0,0,1,,,,,,,,
,,,,,,,,26,2021-11-19_09h36.32.052,premceCat2_ses-02_part-02_label-phase2,2020.2.10,Win32,60,,,,,,,,,0,5,5,70,1,stimuli/objects/hourglass.jpg,left,old,71,,,,,,,,,,,,,,,
,,,,,,,,26,2021-11-19_09h36.32.052,premceCat2_ses-02_part-02_label-phase2,2020.2.10,Win32,60,,,,,right,1.0643,3,3.7444,0,6,6,22,1,stimuli/objects/umbrella04.jpg,right,new,23,,,,,,,,,,,,,,,
,,,,,,,,26,2021-11-19_09h36.32.052,premceCat2_ses-02_part-02_label-phase2,2020.2.10,Win32,60,,,,,left,1.53,4,1.1476,,,,,,,,,,left,0.4376,0,0,0,0,1,,,,,,,,
,,,,,,,,26,2021-11-19_09h36.32.052,premceCat2_ses-02_part-02_label-phase2,2020.2.10,Win32,60,,,,,,,,,0,7,7,58,1,stimuli/objects/rope03.jpg,left,old,59,,,,,,,,,,,,,,,
,,,,,,,,26,2021-11-19_09h36.32.052,premceCat2_ses-02_part-02_label-phase2,2020.2.10,Win32,60,,,,,left,1.0754,4,0.6706,,,,,,,,,,left,0.4695,0,0,0,0,1,,,,,,,,
,,,,,,,,26,2021-11-19_09h36.32.052,premceCat2_ses-02_part-02_label-phase2,2020.2.10,Win32,60,,,,,,,,,0,8,8,140,1,stimuli/objects/anchor.jpg,left,old,141,,,,,,,,,,,,,,,
,,,,,,,,26,2021-11-19_09h36.32.052,premceCat2_ses-02_part-02_label-phase2,2020.2.10,Win32,60,,,,,left,1.0454,4,0.5299,,,,,,,,,,left,0.4298,0,0,0,0,1,,,,,,,,
,,,,,,,,26,2021-11-19_09h36.32.052,premceCat2_ses-02_part-02_label-phase2,2020.2.10,Win32,60,,,,,,,,,0,9,9,84,1,stimuli/objects/catchermask.jpg,left,old,85,,,,,,,,,,,,,,,
,,,,,,,,26,2021-11-19_09h36.32.052,premceCat2_ses-02_part-02_label-phase2,2020.2.10,Win32,60,,,,,left,2.4339,3,2.1047,,,,,,,,,,right,0.603,0,0,0,0,1,,,,,,,,
,,,,,,,,26,2021-11-19_09h36.32.052,premceCat2_ses-02_part-02_label-phase2,2020.2.10,Win32,60,,,,,,,,,0,10,10,117,1,stimuli/objects/videotape01b.jpg,right,new,118,,,,,,,,,,,,,,,
,,,,,,,,26,2021-11-19_09h36.32.052,premceCat2_ses-02_part-02_label-phase2,2020.2.10,Win32,60,,,,,left,2.5273,3,1.0535,,,,,,,,,,right,0.4652,0,0,0,0,1,,,,,,,,
,,,,,,,,26,2021-11-19_09h36.32.052,premceCat2_ses-02_part-02_label-phase2,2020.2.10,Win32,60,,,,,,,,,0,11,11,56,1,stimuli/objects/cookingpot.jpg,left,old,57,,,,,,,,,,,,,,,
,,,,,,,,26,2021-11-19_09h36.32.052,premceCat2_ses-02_part-02_label-phase2,2020.2.10,Win32,60,,,,,left,3.658,2,0.8294,,,,,,,,,,left,0.9974,0,0,0,0,1,,,,,,,,
,,,,,,,,26,2021-11-19_09h36.32.052,premceCat2_ses-02_part-02_label-phase2,2020.2.10,Win32,60,,,,,,,,,0,12,12,53,1,stimuli/objects/binoculars01b.jpg,right,new,54,,,,,,,,,,,,,,,
,,,,,,,,26,2021-11-19_09h36.32.052,premceCat2_ses-02_part-02_label-phase2,2020.2.10,Win32,60,,,,,right,1.3355,3,2.2439,0,13,13,109,1,stimuli/objects/winerack.jpg,right,new,110,,,,,,,,,,,,,,,
,,,,,,,,26,2021-11-19_09h36.32.052,premceCat2_ses-02_part-02_label-phase2,2020.2.10,Win32,60,,,,,left,1.3986,3,0.9336,,,,,,,,,,right,0.6301,0,0,0,0,1,,,,,,,,
,,,,,,,,26,2021-11-19_09h36.32.052,premceCat2_ses-02_part-02_label-phase2,2020.2.10,Win32,60,,,,,,,,,0,14,14,44,1,stimuli/objects/level03a.jpg,left,old,45,,,,,,,,,,,,,,,
,,,,,,,,26,2021-11-19_09h36.32.052,premceCat2_ses-02_part-02_label-phase2,2020.2.10,Win32,60,,,,,right,3.61,1,0.5826,0,15,15,9,1,stimuli/objects/measuringtape01.jpg,right,new,10,,,,,,,,,,,,,,,
,,,,,,,,26,2021-11-19_09h36.32.052,premceCat2_ses-02_part-02_label-phase2,2020.2.10,Win32,60,,,,,right,1.4362,3,0.8184,0,16,16,111,1,stimuli/objects/speaker04.jpg,right,new,112,,,,,,,,,,,,,,,
,,,,,,,,26,2021-11-19_09h36.32.052,premceCat2_ses-02_part-02_label-phase2,2020.2.10,Win32,60,,,,,left,5.255,2,1.563,,,,,,,,,,right,1.7524,0,0,0,0,1,,,,,,,,
,,,,,,,,26,2021-11-19_09h36.32.052,premceCat2_ses-02_part-02_label-phase2,2020.2.10,Win32,60,,,,,,,,,0,17,17,128,1,stimuli/objects/tripod01.jpg,right,new,129,,,,,,,,,,,,,,,
,,,,,,,,26,2021-11-19_09h36.32.052,premceCat2_ses-02_part-02_label-phase2,2020.2.10,Win32,60,,,,,left,1.9771,4,0.2557,,,,,,,,,,left,0.6598,0,0,0,0,1,,,,,,,,
,,,,,,,,26,2021-11-19_09h36.32.052,premceCat2_ses-02_part-02_label-phase2,2020.2.10,Win32,60,,,,,,,,,0,18,18,127,1,stimuli/objects/hockeygoaliepad.jpg,left,old,128,,,,,,,,,,,,,,,
,,,,,,,,26,2021-11-19_09h36.32.052,premceCat2_ses-02_part-02_label-phase2,2020.2.10,Win32,60,,,,,right,0.9845,3,1.3817,0,19,19,55,1,stimuli/objects/toolbox02.jpg,right,new,56,,,,,,,,,,,,,,,
,,,,,,,,26,2021-11-19_09h36.32.052,premceCat2_ses-02_part-02_label-phase2,2020.2.10,Win32,60,,,,,right,4.6051,2,0.9116,0,20,20,10,1,stimuli/objects/desktopcomputer.jpg,left,old,11,,,,,,,,,,,,,,,
,,,,,,,,26,2021-11-19_09h36.32.052,premceCat2_ses-02_part-02_label-phase2,2020.2.10,Win32,60,,,,,left,0.857,4,1.7434,,,,,,,,,,right,0.4801,0,0,0,0,1,,,,,,,,
,,,,,,,,26,2021-11-19_09h36.32.052,premceCat2_ses-02_part-02_label-phase2,2020.2.10,Win32,60,,,,,,,,,0,21,21,78,1,stimuli/objects/handmixer01d.jpg,left,old,79,,,,,,,,,,,,,,,
,,,,,,,,26,2021-11-19_09h36.32.052,premceCat2_ses-02_part-02_label-phase2,2020.2.10,Win32,60,,,,,right,1.5032,3,1.265,0,22,22,20,1,stimuli/objects/laptop01a.jpg,right,new,21,,,,,,,,,,,,,,,
,,,,,,,,26,2021-11-19_09h36.32.052,premceCat2_ses-02_part-02_label-phase2,2020.2.10,Win32,60,,,,,left,0.9827,4,0.8814,,,,,,,,,,left,2.3553,0,0,0,0,1,,,,,,,,
,,,,,,,,26,2021-11-19_09h36.32.052,premceCat2_ses-02_part-02_label-phase2,2020.2.10,Win32,60,,,,,,,,,0,23,23,123,1,stimuli/objects/cowbell.jpg,left,old,124,,,,,,,,,,,,,,,
,,,,,,,,26,2021-11-19_09h36.32.052,premceCat2_ses-02_part-02_label-phase2,2020.2.10,Win32,60,,,,,left,0.9719,4,1.046,,,,,,,,,,right,0.3911,0,0,0,0,1,,,,,,,,
,,,,,,,,26,2021-11-19_09h36.32.052,premceCat2_ses-02_part-02_label-phase2,2020.2.10,Win32,60,,,,,,,,,0,24,24,0,1,stimuli/objects/electricoutlet.jpg,left,old,1,,,,,,,,,,,,,,,
,,,,,,,,26,2021-11-19_09h36.32.052,premceCat2_ses-02_part-02_label-phase2,2020.2.10,Win32,60,,,,,right,1.0604,3,0.7238,0,25,25,41,1,stimuli/objects/pylon01.jpg,right,new,42,,,,,,,,,,,,,,,
,,,,,,,,26,2021-11-19_09h36.32.052,premceCat2_ses-02_part-02_label-phase2,2020.2.10,Win32,60,,,,,right,1.1079,3,0.3944,0,26,26,81,1,stimuli/objects/avcable.jpg,right,new,82,,,,,,,,,,,,,,,
,,,,,,,,26,2021-11-19_09h36.32.052,premceCat2_ses-02_part-02_label-phase2,2020.2.10,Win32,60,,,,,right,1.4535,3,0.2555,0,27,27,39,1,stimuli/objects/sippycup.jpg,right,new,40,,,,,,,,,,,,,,,
,,,,,,,,26,2021-11-19_09h36.32.052,premceCat2_ses-02_part-02_label-phase2,2020.2.10,Win32,60,,,,,left,0.8325,1,1.4455,,,,,,,,,,right,1.3648,0,0,0,0,1,,,,,,,,
,,,,,,,,26,2021-11-19_09h36.32.052,premceCat2_ses-02_part-02_label-phase2,2020.2.10,Win32,60,,,,,,,,,0,28,28,99,1,stimuli/objects/gardenshears01a.jpg,left,old,100,,,,,,,,,,,,,,,
,,,,,,,,26,2021-11-19_09h36.32.052,premceCat2_ses-02_part-02_label-phase2,2020.2.10,Win32,60,,,,,left,1.5626,3,0.5902,,,,,,,,,,left,0.3738,0,0,0,0,1,,,,,,,,
,,,,,,,,26,2021-11-19_09h36.32.052,premceCat2_ses-02_part-02_label-phase2,2020.2.10,Win32,60,,,,,,,,,0,29,29,28,1,stimuli/objects/baseballbat.jpg,left,old,29,,,,,,,,,,,,,,,
,,,,,,,,26,2021-11-19_09h36.32.052,premceCat2_ses-02_part-02_label-phase2,2020.2.10,Win32,60,,,,,right,2.7271,2,0.4919,0,30,30,136,1,stimuli/objects/battery02b.jpg,right,new,137,,,,,,,,,,,,,,,
,,,,,,,,26,2021-11-19_09h36.32.052,premceCat2_ses-02_part-02_label-phase2,2020.2.10,Win32,60,,,,,right,3.0083,2,0.3206,0,31,31,134,1,stimuli/objects/screwdriver04b.jpg,right,new,135,,,,,,,,,,,,,,,
,,,,,,,,26,2021-11-19_09h36.32.052,premceCat2_ses-02_part-02_label-phase2,2020.2.10,Win32,60,,,,,left,3.172,3,1.711,,,,,,,,,,right,0.3937,0,0,0,0,1,,,,,,,,
,,,,,,,,26,2021-11-19_09h36.32.052,premceCat2_ses-02_part-02_label-phase2,2020.2.10,Win32,60,,,,,,,,,0,32,32,104,1,stimuli/objects/lightbulb01.jpg,left,old,105,,,,,,,,,,,,,,,
,,,,,,,,26,2021-11-19_09h36.32.052,premceCat2_ses-02_part-02_label-phase2,2020.2.10,Win32,60,,,,,right,2.8572,1,0.4042,0,33,33,75,1,stimuli/objects/stepladder.jpg,right,new,76,,,,,,,,,,,,,,,
,,,,,,,,26,2021-11-19_09h36.32.052,premceCat2_ses-02_part-02_label-phase2,2020.2.10,Win32,60,,,,,left,1.0615,4,0.7093,,,,,,,,,,right,0.5708,0,0,0,0,1,,,,,,,,
,,,,,,,,26,2021-11-19_09h36.32.052,premceCat2_ses-02_part-02_label-phase2,2020.2.10,Win32,60,,,,,,,,,0,34,34,101,1,stimuli/objects/gps.jpg,left,old,102,,,,,,,,,,,,,,,
,,,,,,,,26,2021-11-19_09h36.32.052,premceCat2_ses-02_part-02_label-phase2,2020.2.10,Win32,60,,,,,left,1.4291,4,1.9887,,,,,,,,,,left,1.2127,0,0,0,0,1,,,,,,,,
,,,,,,,,26,2021-11-19_09h36.32.052,premceCat2_ses-02_part-02_label-phase2,2020.2.10,Win32,60,,,,,,,,,0,35,35,120,1,stimuli/objects/martiniglass01b.jpg,left,old,121,,,,,,,,,,,,,,,
,,,,,,,,26,2021-11-19_09h36.32.052,premceCat2_ses-02_part-02_label-phase2,2020.2.10,Win32,60,,,,,left,0.9936,4,1.0155,,,,,,,,,,right,0.3998,0,0,0,0,1,,,,,,,,
,,,,,,,,26,2021-11-19_09h36.32.052,premceCat2_ses-02_part-02_label-phase2,2020.2.10,Win32,60,,,,,,,,,0,36,36,5,1,stimuli/objects/lamp04a.jpg,left,old,6,,,,,,,,,,,,,,,
,,,,,,,,26,2021-11-19_09h36.32.052,premceCat2_ses-02_part-02_label-phase2,2020.2.10,Win32,60,,,,,right,1.4316,2,0.565,0,37,37,63,1,stimuli/objects/butterdish.jpg,right,new,64,,,,,,,,,,,,,,,
,,,,,,,,26,2021-11-19_09h36.32.052,premceCat2_ses-02_part-02_label-phase2,2020.2.10,Win32,60,,,,,right,0.8654,2,0.4006,0,38,38,21,1,stimuli/objects/paintbrush01.jpg,right,new,22,,,,,,,,,,,,,,,
,,,,,,,,26,2021-11-19_09h36.32.052,premceCat2_ses-02_part-02_label-phase2,2020.2.10,Win32,60,,,,,left,0.7776,4,0.4874,,,,,,,,,,right,1.3803,0,0,0,0,1,,,,,,,,
,,,,,,,,26,2021-11-19_09h36.32.052,premceCat2_ses-02_part-02_label-phase2,2020.2.10,Win32,60,,,,,,,,,0,39,39,69,1,stimuli/objects/cellphone.jpg,left,old,70,,,,,,,,,,,,,,,
,,,,,,,,26,2021-11-19_09h36.32.052,premceCat2_ses-02_part-02_label-phase2,2020.2.10,Win32,60,,,,,right,1.4112,3,1.2362,0,40,40,46,1,stimuli/objects/walkman.jpg,right,new,47,,,,,,,,,,,,,,,
,,,,,,,,26,2021-11-19_09h36.32.052,premceCat2_ses-02_part-02_label-phase2,2020.2.10,Win32,60,,,,,left,0.8327,4,0.2703,,,,,,,,,,left,0.4627,0,0,0,0,1,,,,,,,,
,,,,,,,,26,2021-11-19_09h36.32.052,premceCat2_ses-02_part-02_label-phase2,2020.2.10,Win32,60,,,,,,,,,0,41,41,135,1,stimuli/objects/wheelbarrow01.jpg,left,old,136,,,,,,,,,,,,,,,
,,,,,,,,26,2021-11-19_09h36.32.052,premceCat2_ses-02_part-02_label-phase2,2020.2.10,Win32,60,,,,,left,1.0487,4,0.2942,,,,,,,,,,right,0.2794,0,0,0,0,1,,,,,,,,
,,,,,,,,26,2021-11-19_09h36.32.052,premceCat2_ses-02_part-02_label-phase2,2020.2.10,Win32,60,,,,,,,,,0,42,42,65,1,stimuli/objects/pipewrench.jpg,left,old,66,,,,,,,,,,,,,,,
,,,,,,,,26,2021-11-19_09h36.32.052,premceCat2_ses-02_part-02_label-phase2,2020.2.10,Win32,60,,,,,left,1.315,4,1.489,,,,,,,,,,left,0.5715,0,0,0,0,1,,,,,,,,
,,,,,,,,26,2021-11-19_09h36.32.052,premceCat2_ses-02_part-02_label-phase2,2020.2.10,Win32,60,,,,,,,,,0,43,43,126,1,stimuli/objects/tableknife02.jpg,right,new,127,,,,,,,,,,,,,,,
,,,,,,,,26,2021-11-19_09h36.32.052,premceCat2_ses-02_part-02_label-phase2,2020.2.10,Win32,60,,,,,left,1.2311,1,1.6616,,,,,,,,,,left,0.8998,0,0,0,0,1,,,,,,,,
,,,,,,,,26,2021-11-19_09h36.32.052,premceCat2_ses-02_part-02_label-phase2,2020.2.10,Win32,60,,,,,,,,,0,44,44,24,1,stimuli/objects/skateboard.jpg,right,new,25,,,,,,,,,,,,,,,
,,,,,,,,26,2021-11-19_09h36.32.052,premceCat2_ses-02_part-02_label-phase2,2020.2.10,Win32,60,,,,,right,1.0476,3,1.1541,0,45,45,116,1,stimuli/objects/radio01.jpg,right,new,117,,,,,,,,,,,,,,,
,,,,,,,,26,2021-11-19_09h36.32.052,premceCat2_ses-02_part-02_label-phase2,2020.2.10,Win32,60,,,,,right,0.9323,3,0.4578,0,46,46,31,1,stimuli/objects/ladder.jpg,left,old,32,,,,,,,,,,,,,,,
,,,,,,,,26,2021-11-19_09h36.32.052,premceCat2_ses-02_part-02_label-phase2,2020.2.10,Win32,60,,,,,right,1.7446,3,0.4534,0,47,47,66,1,stimuli/objects/nailgun.jpg,right,new,67,,,,,,,,,,,,,,,
,,,,,,,,26,2021-11-19_09h36.32.052,premceCat2_ses-02_part-02_label-phase2,2020.2.10,Win32,60,,,,,left,1.0816,4,0.5652,,,,,,,,,,right,1.2637,0,0,0,0,1,,,,,,,,
,,,,,,,,26,2021-11-19_09h36.32.052,premceCat2_ses-02_part-02_label-phase2,2020.2.10,Win32,60,,,,,,,,,0,48,48,105,1,stimuli/objects/fanblades.jpg,left,old,106,,,,,,,,,,,,,,,
,,,,,,,,26,2021-11-19_09h36.32.052,premceCat2_ses-02_part-02_label-phase2,2020.2.10,Win32,60,,,,,left,1.2131,4,0.6796,,,,,,,,,,left,1.9258,0,0,0,0,1,,,,,,,,
,,,,,,,,26,2021-11-19_09h36.32.052,premceCat2_ses-02_part-02_label-phase2,2020.2.10,Win32,60,,,,,,,,,0,49,49,3,1,stimuli/objects/bowl02a.jpg,left,old,4,,,,,,,,,,,,,,,
,,,,,,,,26,2021-11-19_09h36.32.052,premceCat2_ses-02_part-02_label-phase2,2020.2.10,Win32,60,,,,,left,1.5646,1,1.3711,,,,,,,,,,left,0.9971,0,0,0,0,1,,,,,,,,
,,,,,,,,26,2021-11-19_09h36.32.052,premceCat2_ses-02_part-02_label-phase2,2020.2.10,Win32,60,,,,,,,,,0,50,50,90,1,stimuli/objects/carlighter02.jpg,right,new,91,,,,,,,,,,,,,,,
,,,,,,,,26,2021-11-19_09h36.32.052,premceCat2_ses-02_part-02_label-phase2,2020.2.10,Win32,60,,,,,left,1.1292,4,0.9794,,,,,,,,,,right,0.8275,0,0,0,0,1,,,,,,,,
,,,,,,,,26,2021-11-19_09h36.32.052,premceCat2_ses-02_part-02_label-phase2,2020.2.10,Win32,60,,,,,,,,,0,51,51,132,1,stimuli/objects/expansioncard.jpg,left,old,133,,,,,,,,,,,,,,,
,,,,,,,,26,2021-11-19_09h36.32.052,premceCat2_ses-02_part-02_label-phase2,2020.2.10,Win32,60,,,,,right,1.8892,3,1.1695,0,52,52,133,1,stimuli/objects/icebucket.jpg,right,new,134,,,,,,,,,,,,,,,
,,,,,,,,26,2021-11-19_09h36.32.052,premceCat2_ses-02_part-02_label-phase2,2020.2.10,Win32,60,,,,,left,0.7761,4,0.5175,,,,,,,,,,left,0.2621,0,0,0,0,1,,,,,,,,
,,,,,,,,26,2021-11-19_09h36.32.052,premceCat2_ses-02_part-02_label-phase2,2020.2.10,Win32,60,,,,,,,,,0,53,53,74,1,stimuli/objects/baseball01a.jpg,left,old,75,,,,,,,,,,,,,,,
,,,,,,,,26,2021-11-19_09h36.32.052,premceCat2_ses-02_part-02_label-phase2,2020.2.10,Win32,60,,,,,right,1.3262,3,0.9743,0,54,54,92,1,stimuli/objects/carjack.jpg,right,new,93,,,,,,,,,,,,,,,
,,,,,,,,26,2021-11-19_09h36.32.052,premceCat2_ses-02_part-02_label-phase2,2020.2.10,Win32,60,,,,,left,1.0925,4,0.7624,,,,,,,,,,right,0.2182,0,0,0,0,1,,,,,,,,
,,,,,,,,26,2021-11-19_09h36.32.052,premceCat2_ses-02_part-02_label-phase2,2020.2.10,Win32,60,,,,,,,,,0,55,55,77,1,stimuli/objects/photocopier.jpg,left,old,78,,,,,,,,,,,,,,,
,,,,,,,,26,2021-11-19_09h36.32.052,premceCat2_ses-02_part-02_label-phase2,2020.2.10,Win32,60,,,,,left,1.7876,4,0.502,,,,,,,,,,right,0.1894,0,0,0,0,1,,,,,,,,
,,,,,,,,26,2021-11-19_09h36.32.052,premceCat2_ses-02_part-02_label-phase2,2020.2.10,Win32,60,,,,,,,,,0,56,56,87,1,stimuli/objects/dvdplayer.jpg,left,old,88,,,,,,,,,,,,,,,
,,,,,,,,26,2021-11-19_09h36.32.052,premceCat2_ses-02_part-02_label-phase2,2020.2.10,Win32,60,,,,,left,0.9611,4,0.4078,,,,,,,,,,right,0.2127,0,0,0,0,1,,,,,,,,
,,,,,,,,26,2021-11-19_09h36.32.052,premceCat2_ses-02_part-02_label-phase2,2020.2.10,Win32,60,,,,,,,,,0,57,57,40,1,stimuli/objects/sledgehammer.jpg,left,old,41,,,,,,,,,,,,,,,
,,,,,,,,26,2021-11-19_09h36.32.052,premceCat2_ses-02_part-02_label-phase2,2020.2.10,Win32,60,,,,,left,1.1044,4,1.563,,,,,,,,,,left,0.2137,0,0,0,0,1,,,,,,,,
,,,,,,,,26,2021-11-19_09h36.32.052,premceCat2_ses-02_part-02_label-phase2,2020.2.10,Win32,60,,,,,,,,,0,58,58,49,1,stimuli/objects/canoepaddle02.jpg,left,old,50,,,,,,,,,,,,,,,
,,,,,,,,26,2021-11-19_09h36.32.052,premceCat2_ses-02_part-02_label-phase2,2020.2.10,Win32,60,,,,,left,1.0301,4,0.2481,,,,,,,,,,right,0.1976,0,0,0,0,1,,,,,,,,
,,,,,,,,26,2021-11-19_09h36.32.052,premceCat2_ses-02_part-02_label-phase2,2020.2.10,Win32,60,,,,,,,,,0,59,59,97,1,stimuli/objects/satellitedish01.jpg,left,old,98,,,,,,,,,,,,,,,
,,,,,,,,26,2021-11-19_09h36.32.052,premceCat2_ses-02_part-02_label-phase2,2020.2.10,Win32,60,,,,,right,1.83,2,2.9195,0,60,60,93,1,stimuli/objects/icepack.jpg,right,new,94,,,,,,,,,,,,,,,
,,,,,,,,26,2021-11-19_09h36.32.052,premceCat2_ses-02_part-02_label-phase2,2020.2.10,Win32,60,,,,,right,1.0644,3,0.4692,0,61,61,80,1,stimuli/objects/snowman.jpg,right,new,81,,,,,,,,,,,,,,,
,,,,,,,,26,2021-11-19_09h36.32.052,premceCat2_ses-02_part-02_label-phase2,2020.2.10,Win32,60,,,,,right,0.9601,3,0.3488,0,62,62,71,1,stimuli/objects/faxmachine.jpg,right,new,72,,,,,,,,,,,,,,,
,,,,,,,,26,2021-11-19_09h36.32.052,premceCat2_ses-02_part-02_label-phase2,2020.2.10,Win32,60,,,,,right,0.8298,3,0.2486,0,63,63,60,1,stimuli/objects/glass02a.jpg,right,new,61,,,,,,,,,,,,,,,
,,,,,,,,26,2021-11-19_09h36.32.052,premceCat2_ses-02_part-02_label-phase2,2020.2.10,Win32,60,,,,,right,2.1126,4,0.2423,0,64,64,12,1,stimuli/objects/garlicpress02a.jpg,right,new,13,,,,,,,,,,,,,,,
,,,,,,,,26,2021-11-19_09h36.32.052,premceCat2_ses-02_part-02_label-phase2,2020.2.10,Win32,60,,,,,right,1.926,3,0.8861,0,65,65,26,1,stimuli/objects/boogieboard.jpg,right,new,27,,,,,,,,,,,,,,,
,,,,,,,,26,2021-11-19_09h36.32.052,premceCat2_ses-02_part-02_label-phase2,2020.2.10,Win32,60,,,,,left,0.9347,3,0.8819,,,,,,,,,,left,0.9604,0,0,0,0,1,,,,,,,,
,,,,,,,,26,2021-11-19_09h36.32.052,premceCat2_ses-02_part-02_label-phase2,2020.2.10,Win32,60,,,,,,,,,0,66,66,48,1,stimuli/objects/woodenspoon.jpg,left,old,49,,,,,,,,,,,,,,,
,,,,,,,,26,2021-11-19_09h36.32.052,premceCat2_ses-02_part-02_label-phase2,2020.2.10,Win32,60,,,,,right,1.5962,3,0.6331,0,67,67,25,1,stimuli/objects/bowlingball.jpg,right,new,26,,,,,,,,,,,,,,,
,,,,,,,,26,2021-11-19_09h36.32.052,premceCat2_ses-02_part-02_label-phase2,2020.2.10,Win32,60,,,,,right,0.7494,4,0.1852,0,68,68,100,1,stimuli/objects/remotecontrol04.jpg,right,new,101,,,,,,,,,,,,,,,
,,,,,,,,26,2021-11-19_09h36.32.052,premceCat2_ses-02_part-02_label-phase2,2020.2.10,Win32,60,,,,,left,0.88,4,0.7479,,,,,,,,,,right,1.7997,0,0,0,0,1,,,,,,,,
,,,,,,,,26,2021-11-19_09h36.32.052,premceCat2_ses-02_part-02_label-phase2,2020.2.10,Win32,60,,,,,,,,,0,69,69,14,1,stimuli/objects/aircompressor.jpg,left,old,15,,,,,,,,,,,,,,,
,,,,,,,,26,2021-11-19_09h36.32.052,premceCat2_ses-02_part-02_label-phase2,2020.2.10,Win32,60,,,,,left,1.2295,3,0.7122,,,,,,,,,,right,0.2461,0,0,0,0,1,,,,,,,,
,,,,,,,,26,2021-11-19_09h36.32.052,premceCat2_ses-02_part-02_label-phase2,2020.2.10,Win32,60,,,,,,,,,0,70,70,45,1,stimuli/objects/measuringcup01.jpg,left,old,46,,,,,,,,,,,,,,,
,,,,,,,,26,2021-11-19_09h36.32.052,premceCat2_ses-02_part-02_label-phase2,2020.2.10,Win32,60,,,,,right,1.3009,4,0.2778,0,71,71,13,1,stimuli/objects/bastingbrush.jpg,right,new,14,,,,,,,,,,,,,,,
,,,,,,,,26,2021-11-19_09h36.32.052,premceCat2_ses-02_part-02_label-phase2,2020.2.10,Win32,60,,,,,right,1.1102,4,0.449,0,72,72,113,1,stimuli/objects/powercable.jpg,right,new,114,,,,,,,,,,,,,,,
,,,,,,,,26,2021-11-19_09h36.32.052,premceCat2_ses-02_part-02_label-phase2,2020.2.10,Win32,60,,,,,left,1.099,3,0.5173,,,,,,,,,,right,5.6609,0,0,0,0,1,,,,,,,,
,,,,,,,,26,2021-11-19_09h36.32.052,premceCat2_ses-02_part-02_label-phase2,2020.2.10,Win32,60,,,,,,,,,0,73,73,142,1,stimuli/objects/funnel.jpg,left,old,143,,,,,,,,,,,,,,,
,,,,,,,,26,2021-11-19_09h36.32.052,premceCat2_ses-02_part-02_label-phase2,2020.2.10,Win32,60,,,,,right,5.2036,1,0.9539,0,74,74,102,1,stimuli/objects/hockeygoalieglove.jpg,left,old,103,,,,,,,,,,,,,,,
,,,,,,,,26,2021-11-19_09h36.32.052,premceCat2_ses-02_part-02_label-phase2,2020.2.10,Win32,60,,,,,left,1.3026,3,0.5984,,,,,,,,,,right,0.2594,0,0,0,0,1,,,,,,,,
,,,,,,,,26,2021-11-19_09h36.32.052,premceCat2_ses-02_part-02_label-phase2,2020.2.10,Win32,60,,,,,,,,,0,75,75,35,1,stimuli/objects/phonejack.jpg,left,old,36,,,,,,,,,,,,,,,
,,,,,,,,26,2021-11-19_09h36.32.052,premceCat2_ses-02_part-02_label-phase2,2020.2.10,Win32,60,,,,,right,1.3326,3,0.7326,0,76,76,32,1,stimuli/objects/mitresaw.jpg,right,new,33,,,,,,,,,,,,,,,
,,,,,,,,26,2021-11-19_09h36.32.052,premceCat2_ses-02_part-02_label-phase2,2020.2.10,Win32,60,,,,,right,0.7539,4,0.1617,0,77,77,43,1,stimuli/objects/punchingball.jpg,right,new,44,,,,,,,,,,,,,,,
,,,,,,,,26,2021-11-19_09h36.32.052,premceCat2_ses-02_part-02_label-phase2,2020.2.10,Win32,60,,,,,left,4.5512,1,0.6568,,,,,,,,,,right,1.6099,0,0,0,0,1,,,,,,,,
,,,,,,,,26,2021-11-19_09h36.32.052,premceCat2_ses-02_part-02_label-phase2,2020.2.10,Win32,60,,,,,,,,,0,78,78,62,1,stimuli/objects/pastaspoon.jpg,left,old,63,,,,,,,,,,,,,,,
,,,,,,,,26,2021-11-19_09h36.32.052,premceCat2_ses-02_part-02_label-phase2,2020.2.10,Win32,60,,,,,left,0.9886,3,0.4126,,,,,,,,,,right,1.3056,0,0,0,0,1,,,,,,,,
,,,,,,,,26,2021-11-19_09h36.32.052,premceCat2_ses-02_part-02_label-phase2,2020.2.10,Win32,60,,,,,,,,,0,79,79,52,1,stimuli/objects/cookiecutter.jpg,left,old,53,,,,,,,,,,,,,,,
,,,,,,,,26,2021-11-19_09h36.32.052,premceCat2_ses-02_part-02_label-phase2,2020.2.10,Win32,60,,,,,right,0.9415,3,0.3964,0,80,80,4,1,stimuli/objects/microphone01.jpg,right,new,5,,,,,,,,,,,,,,,
,,,,,,,,26,2021-11-19_09h36.32.052,premceCat2_ses-02_part-02_label-phase2,2020.2.10,Win32,60,,,,,right,1.9315,4,0.3888,0,81,81,27,1,stimuli/objects/downhillski.jpg,left,old,28,,,,,,,,,,,,,,,
,,,,,,,,26,2021-11-19_09h36.32.052,premceCat2_ses-02_part-02_label-phase2,2020.2.10,Win32,60,,,,,right,2.7058,1,0.3982,0,82,82,110,1,stimuli/objects/lock03a.jpg,right,new,111,,,,,,,,,,,,,,,
,,,,,,,,26,2021-11-19_09h36.32.052,premceCat2_ses-02_part-02_label-phase2,2020.2.10,Win32,60,,,,,left,0.8924,3,0.3415,,,,,,,,,,right,0.2788,0,0,0,0,1,,,,,,,,
,,,,,,,,26,2021-11-19_09h36.32.052,premceCat2_ses-02_part-02_label-phase2,2020.2.10,Win32,60,,,,,,,,,0,83,83,36,1,stimuli/objects/antenna.jpg,left,old,37,,,,,,,,,,,,,,,
,,,,,,,,26,2021-11-19_09h36.32.052,premceCat2_ses-02_part-02_label-phase2,2020.2.10,Win32,60,,,,,right,1.2762,3,0.3822,0,84,84,57,1,stimuli/objects/audiocablesplitter.jpg,right,new,58,,,,,,,,,,,,,,,
,,,,,,,,26,2021-11-19_09h36.32.052,premceCat2_ses-02_part-02_label-phase2,2020.2.10,Win32,60,,,,,left,0.7238,4,0.3788,,,,,,,,,,left,0.1832,0,0,0,0,1,,,,,,,,
,,,,,,,,26,2021-11-19_09h36.32.052,premceCat2_ses-02_part-02_label-phase2,2020.2.10,Win32,60,,,,,,,,,0,85,85,34,1,stimuli/objects/treadmill.jpg,left,old,35,,,,,,,,,,,,,,,
,,,,,,,,26,2021-11-19_09h36.32.052,premceCat2_ses-02_part-02_label-phase2,2020.2.10,Win32,60,,,,,right,2.9594,3,0.6894,0,86,86,19,1,stimuli/objects/peppermill02b.jpg,right,new,20,,,,,,,,,,,,,,,
,,,,,,,,26,2021-11-19_09h36.32.052,premceCat2_ses-02_part-02_label-phase2,2020.2.10,Win32,60,,,,,right,0.9748,4,1.0384,0,87,87,112,1,stimuli/objects/gymnasticring.jpg,right,new,113,,,,,,,,,,,,,,,
,,,,,,,,26,2021-11-19_09h36.32.052,premceCat2_ses-02_part-02_label-phase2,2020.2.10,Win32,60,,,,,right,0.7677,4,0.1542,0,88,88,8,1,stimuli/objects/basketballhoop01.jpg,right,new,9,,,,,,,,,,,,,,,
,,,,,,,,26,2021-11-19_09h36.32.052,premceCat2_ses-02_part-02_label-phase2,2020.2.10,Win32,60,,,,,right,0.758,4,0.0641,0,89,89,131,1,stimuli/objects/spotlight.jpg,right,new,132,,,,,,,,,,,,,,,
,,,,,,,,26,2021-11-19_09h36.32.052,premceCat2_ses-02_part-02_label-phase2,2020.2.10,Win32,60,,,,,left,0.9119,3,0.5997,,,,,,,,,,left,0.5195,0,0,0,0,1,,,,,,,,
,,,,,,,,26,2021-11-19_09h36.32.052,premceCat2_ses-02_part-02_label-phase2,2020.2.10,Win32,60,,,,,,,,,0,90,90,107,1,stimuli/objects/waterbottle03.jpg,left,old,108,,,,,,,,,,,,,,,
,,,,,,,,26,2021-11-19_09h36.32.052,premceCat2_ses-02_part-02_label-phase2,2020.2.10,Win32,60,,,,,left,2.9404,4,0.8136,,,,,,,,,,right,0.4358,0,0,0,0,1,,,,,,,,
,,,,,,,,26,2021-11-19_09h36.32.052,premceCat2_ses-02_part-02_label-phase2,2020.2.10,Win32,60,,,,,,,,,0,91,91,118,1,stimuli/objects/toyhardhat.jpg,left,old,119,,,,,,,,,,,,,,,
,,,,,,,,26,2021-11-19_09h36.32.052,premceCat2_ses-02_part-02_label-phase2,2020.2.10,Win32,60,,,,,right,1.1661,4,0.2553,0,92,92,30,1,stimuli/objects/printer02.jpg,right,new,31,,,,,,,,,,,,,,,
,,,,,,,,26,2021-11-19_09h36.32.052,premceCat2_ses-02_part-02_label-phase2,2020.2.10,Win32,60,,,,,left,0.6978,4,0.6695,,,,,,,,,,left,0.1995,0,0,0,0,1,,,,,,,,
,,,,,,,,26,2021-11-19_09h36.32.052,premceCat2_ses-02_part-02_label-phase2,2020.2.10,Win32,60,,,,,,,,,0,93,93,98,1,stimuli/objects/podium.jpg,left,old,99,,,,,,,,,,,,,,,
,,,,,,,,26,2021-11-19_09h36.32.052,premceCat2_ses-02_part-02_label-phase2,2020.2.10,Win32,60,,,,,left,1.2815,4,0.3186,,,,,,,,,,right,0.1402,0,0,0,0,1,,,,,,,,
,,,,,,,,26,2021-11-19_09h36.32.052,premceCat2_ses-02_part-02_label-phase2,2020.2.10,Win32,60,,,,,,,,,0,94,94,95,1,stimuli/objects/lectern01.jpg,left,old,96,,,,,,,,,,,,,,,
,,,,,,,,26,2021-11-19_09h36.32.052,premceCat2_ses-02_part-02_label-phase2,2020.2.10,Win32,60,,,,,left,5.3734,2,0.5017,,,,,,,,,,left,1.2979,0,0,0,0,1,,,,,,,,
,,,,,,,,26,2021-11-19_09h36.32.052,premceCat2_ses-02_part-02_label-phase2,2020.2.10,Win32,60,,,,,,,,,0,95,95,91,1,stimuli/objects/snowblower.jpg,left,old,92,,,,,,,,,,,,,,,
,,,,,,,,26,2021-11-19_09h36.32.052,premceCat2_ses-02_part-02_label-phase2,2020.2.10,Win32,60,,,,,left,1.8061,3,0.7999,,,,,,,,,,right,0.1959,0,0,0,0,1,,,,,,,,
,,,,,,,,26,2021-11-19_09h36.32.052,premceCat2_ses-02_part-02_label-phase2,2020.2.10,Win32,60,,,,,,,,,0,96,96,106,1,stimuli/objects/minifridge.jpg,right,new,107,,,,,,,,,,,,,,,
,,,,,,,,26,2021-11-19_09h36.32.052,premceCat2_ses-02_part-02_label-phase2,2020.2.10,Win32,60,,,,,left,1.1525,2,0.8517,,,,,,,,,,right,0.5446,0,0,0,0,1,,,,,,,,
,,,,,,,,26,2021-11-19_09h36.32.052,premceCat2_ses-02_part-02_label-phase2,2020.2.10,Win32,60,,,,,,,,,0,97,97,61,1,stimuli/objects/weedwacker.jpg,left,old,62,,,,,,,,,,,,,,,
,,,,,,,,26,2021-11-19_09h36.32.052,premceCat2_ses-02_part-02_label-phase2,2020.2.10,Win32,60,,,,,right,1.6884,4,2.1623,0,98,98,16,1,stimuli/objects/pressurewasher.jpg,left,old,17,,,,,,,,,,,,,,,
,,,,,,,,26,2021-11-19_09h36.32.052,premceCat2_ses-02_part-02_label-phase2,2020.2.10,Win32,60,,,,,right,1.2161,4,0.2691,0,99,99,42,1,stimuli/objects/snowshoe.jpg,right,new,43,,,,,,,,,,,,,,,
,,,,,,,,26,2021-11-19_09h36.32.052,premceCat2_ses-02_part-02_label-phase2,2020.2.10,Win32,60,,,,,left,0.8177,3,0.5947,,,,,,,,,,left,0.7248,0,0,0,0,1,,,,,,,,
,,,,,,,,26,2021-11-19_09h36.32.052,premceCat2_ses-02_part-02_label-phase2,2020.2.10,Win32,60,,,,,,,,,0,100,100,88,1,stimuli/objects/cork02.jpg,left,old,89,,,,,,,,,,,,,,,
,,,,,,,,26,2021-11-19_09h36.32.052,premceCat2_ses-02_part-02_label-phase2,2020.2.10,Win32,60,,,,,right,1.4932,3,0.2134,0,101,101,68,1,stimuli/objects/leafblower01.jpg,right,new,69,,,,,,,,,,,,,,,
,,,,,,,,26,2021-11-19_09h36.32.052,premceCat2_ses-02_part-02_label-phase2,2020.2.10,Win32,60,,,,,left,1.16,4,0.7629,,,,,,,,,,left,0.3958,0,0,0,0,1,,,,,,,,
,,,,,,,,26,2021-11-19_09h36.32.052,premceCat2_ses-02_part-02_label-phase2,2020.2.10,Win32,60,,,,,,,,,0,102,102,89,1,stimuli/objects/ducttape.jpg,right,new,90,,,,,,,,,,,,,,,
,,,,,,,,26,2021-11-19_09h36.32.052,premceCat2_ses-02_part-02_label-phase2,2020.2.10,Win32,60,,,,,left,1.5469,3,0.6312,,,,,,,,,,right,0.3631,0,0,0,0,1,,,,,,,,
,,,,,,,,26,2021-11-19_09h36.32.052,premceCat2_ses-02_part-02_label-phase2,2020.2.10,Win32,60,,,,,,,,,0,103,103,129,1,stimuli/objects/gasburner.jpg,left,old,130,,,,,,,,,,,,,,,
,,,,,,,,26,2021-11-19_09h36.32.052,premceCat2_ses-02_part-02_label-phase2,2020.2.10,Win32,60,,,,,right,1.327,3,0.0893,0,104,104,59,1,stimuli/objects/studiolight.jpg,right,new,60,,,,,,,,,,,,,,,
,,,,,,,,26,2021-11-19_09h36.32.052,premceCat2_ses-02_part-02_label-phase2,2020.2.10,Win32,60,,,,,right,1.8098,4,0.2994,0,105,105,54,1,stimuli/objects/pda.jpg,right,new,55,,,,,,,,,,,,,,,
,,,,,,,,26,2021-11-19_09h36.32.052,premceCat2_ses-02_part-02_label-phase2,2020.2.10,Win32,60,,,,,right,0.9611,4,0.0006,0,106,106,73,1,stimuli/objects/clock01a.jpg,right,new,74,,,,,,,,,,,,,,,
,,,,,,,,26,2021-11-19_09h36.32.052,premceCat2_ses-02_part-02_label-phase2,2020.2.10,Win32,60,,,,,right,0.9649,4,0.1838,0,107,107,72,1,stimuli/objects/cclamp.jpg,right,new,73,,,,,,,,,,,,,,,
,,,,,,,,26,2021-11-19_09h36.32.052,premceCat2_ses-02_part-02_label-phase2,2020.2.10,Win32,60,,,,,right,0.7902,4,0.1221,0,108,108,76,1,stimuli/objects/megaphone.jpg,right,new,77,,,,,,,,,,,,,,,
,,,,,,,,26,2021-11-19_09h36.32.052,premceCat2_ses-02_part-02_label-phase2,2020.2.10,Win32,60,,,,,right,0.6673,4,0.1465,0,109,109,139,1,stimuli/objects/frisbee.jpg,right,new,140,,,,,,,,,,,,,,,
,,,,,,,,26,2021-11-19_09h36.32.052,premceCat2_ses-02_part-02_label-phase2,2020.2.10,Win32,60,,,,,left,1.0765,4,0.4975,,,,,,,,,,left,0.3441,0,0,0,0,1,,,,,,,,
,,,,,,,,26,2021-11-19_09h36.32.052,premceCat2_ses-02_part-02_label-phase2,2020.2.10,Win32,60,,,,,,,,,0,110,110,137,1,stimuli/objects/iceskate.jpg,left,old,138,,,,,,,,,,,,,,,
,,,,,,,,26,2021-11-19_09h36.32.052,premceCat2_ses-02_part-02_label-phase2,2020.2.10,Win32,60,,,,,left,4.3803,1,1.0143,,,,,,,,,,left,1.4196,0,0,0,0,1,,,,,,,,
,,,,,,,,26,2021-11-19_09h36.32.052,premceCat2_ses-02_part-02_label-phase2,2020.2.10,Win32,60,,,,,,,,,0,111,111,82,1,stimuli/objects/snowbrush.jpg,right,new,83,,,,,,,,,,,,,,,
,,,,,,,,26,2021-11-19_09h36.32.052,premceCat2_ses-02_part-02_label-phase2,2020.2.10,Win32,60,,,,,left,1.3956,4,0.4332,,,,,,,,,,left,0.2501,0,0,0,0,1,,,,,,,,
,,,,,,,,26,2021-11-19_09h36.32.052,premceCat2_ses-02_part-02_label-phase2,2020.2.10,Win32,60,,,,,,,,,0,112,112,124,1,stimuli/objects/bikepump01.jpg,left,old,125,,,,,,,,,,,,,,,
,,,,,,,,26,2021-11-19_09h36.32.052,premceCat2_ses-02_part-02_label-phase2,2020.2.10,Win32,60,,,,,right,1.2429,4,0.1796,0,113,113,85,1,stimuli/objects/golfball.jpg,right,new,86,,,,,,,,,,,,,,,
,,,,,,,,26,2021-11-19_09h36.32.052,premceCat2_ses-02_part-02_label-phase2,2020.2.10,Win32,60,,,,,right,0.6451,4,0.0997,0,114,114,86,1,stimuli/objects/toasteroven.jpg,right,new,87,,,,,,,,,,,,,,,
,,,,,,,,26,2021-11-19_09h36.32.052,premceCat2_ses-02_part-02_label-phase2,2020.2.10,Win32,60,,,,,right,0.5643,4,0.1382,0,115,115,94,1,stimuli/objects/electricmixer.jpg,right,new,95,,,,,,,,,,,,,,,
,,,,,,,,26,2021-11-19_09h36.32.052,premceCat2_ses-02_part-02_label-phase2,2020.2.10,Win32,60,,,,,left,1.0519,1,0.2864,,,,,,,,,,right,0.3488,0,0,0,0,1,,,,,,,,
,,,,,,,,26,2021-11-19_09h36.32.052,premceCat2_ses-02_part-02_label-phase2,2020.2.10,Win32,60,,,,,,,,,0,116,116,119,1,stimuli/objects/tongs01b.jpg,right,new,120,,,,,,,,,,,,,,,
,,,,,,,,26,2021-11-19_09h36.32.052,premceCat2_ses-02_part-02_label-phase2,2020.2.10,Win32,60,,,,,left,1.3099,4,0.3984,,,,,,,,,,right,0.1766,0,0,0,0,1,,,,,,,,
,,,,,,,,26,2021-11-19_09h36.32.052,premceCat2_ses-02_part-02_label-phase2,2020.2.10,Win32,60,,,,,,,,,0,117,117,122,1,stimuli/objects/atm.jpg,left,old,123,,,,,,,,,,,,,,,
,,,,,,,,26,2021-11-19_09h36.32.052,premceCat2_ses-02_part-02_label-phase2,2020.2.10,Win32,60,,,,,right,0.9652,4,0.067,0,118,118,96,1,stimuli/objects/golfbag.jpg,right,new,97,,,,,,,,,,,,,,,
,,,,,,,,26,2021-11-19_09h36.32.052,premceCat2_ses-02_part-02_label-phase2,2020.2.10,Win32,60,,,,,right,0.8866,3,0.0294,0,119,119,125,1,stimuli/objects/shoulderpad.jpg,right,new,126,,,,,,,,,,,,,,,
,,,,,,,,26,2021-11-19_09h36.32.052,premceCat2_ses-02_part-02_label-phase2,2020.2.10,Win32,60,,,,,left,2.8977,2,1.1549,,,,,,,,,,left,0.8774,0,0,0,0,1,,,,,,,,
,,,,,,,,26,2021-11-19_09h36.32.052,premceCat2_ses-02_part-02_label-phase2,2020.2.10,Win32,60,,,,,,,,,0,120,120,115,1,stimuli/objects/boltcutter.jpg,left,old,116,,,,,,,,,,,,,,,
,,,,,,,,26,2021-11-19_09h36.32.052,premceCat2_ses-02_part-02_label-phase2,2020.2.10,Win32,60,,,,,left,1.2908,4,0.4505,,,,,,,,,,right,0.5805,0,0,0,0,1,,,,,,,,
,,,,,,,,26,2021-11-19_09h36.32.052,premceCat2_ses-02_part-02_label-phase2,2020.2.10,Win32,60,,,,,,,,,0,121,121,114,1,stimuli/objects/espressomachine.jpg,left,old,115,,,,,,,,,,,,,,,
,,,,,,,,26,2021-11-19_09h36.32.052,premceCat2_ses-02_part-02_label-phase2,2020.2.10,Win32,60,,,,,left,0.9483,4,0.1542,,,,,,,,,,right,0.2337,0,0,0,0,1,,,,,,,,
,,,,,,,,26,2021-11-19_09h36.32.052,premceCat2_ses-02_part-02_label-phase2,2020.2.10,Win32,60,,,,,,,,,0,122,122,37,1,stimuli/objects/setsquare.jpg,left,old,38,,,,,,,,,,,,,,,
,,,,,,,,26,2021-11-19_09h36.32.052,premceCat2_ses-02_part-02_label-phase2,2020.2.10,Win32,60,,,,,right,0.9585,4,1.6399,0,123,123,121,1,stimuli/objects/ceilingspeaker.jpg,right,new,122,,,,,,,,,,,,,,,
,,,,,,,,26,2021-11-19_09h36.32.052,premceCat2_ses-02_part-02_label-phase2,2020.2.10,Win32,60,,,,,left,1.7743,3,0.8409,,,,,,,,,,right,0.8317,0,0,0,0,1,,,,,,,,
,,,,,,,,26,2021-11-19_09h36.32.052,premceCat2_ses-02_part-02_label-phase2,2020.2.10,Win32,60,,,,,,,,,0,124,124,29,1,stimuli/objects/djmixer02.jpg,left,old,30,,,,,,,,,,,,,,,
,,,,,,,,26,2021-11-19_09h36.32.052,premceCat2_ses-02_part-02_label-phase2,2020.2.10,Win32,60,,,,,left,2.0854,1,0.1591,,,,,,,,,,left,0.5186,0,0,0,0,1,,,,,,,,
,,,,,,,,26,2021-11-19_09h36.32.052,premceCat2_ses-02_part-02_label-phase2,2020.2.10,Win32,60,,,,,,,,,0,125,125,50,1,stimuli/objects/chisel02b.jpg,right,new,51,,,,,,,,,,,,,,,
,,,,,,,,26,2021-11-19_09h36.32.052,premceCat2_ses-02_part-02_label-phase2,2020.2.10,Win32,60,,,,,right,0.776,4,0.1483,0,126,126,33,1,stimuli/objects/microwave.jpg,right,new,34,,,,,,,,,,,,,,,
,,,,,,,,26,2021-11-19_09h36.32.052,premceCat2_ses-02_part-02_label-phase2,2020.2.10,Win32,60,,,,,right,0.7081,4,0.0005,0,127,127,17,1,stimuli/objects/exercisebench.jpg,right,new,18,,,,,,,,,,,,,,,
,,,,,,,,26,2021-11-19_09h36.32.052,premceCat2_ses-02_part-02_label-phase2,2020.2.10,Win32,60,,,,,right,0.7129,4,0.1508,0,128,128,23,1,stimuli/objects/football.jpg,right,new,24,,,,,,,,,,,,,,,
,,,,,,,,26,2021-11-19_09h36.32.052,premceCat2_ses-02_part-02_label-phase2,2020.2.10,Win32,60,,,,,left,1.0268,3,0.7069,,,,,,,,,,left,0.4614,0,0,0,0,1,,,,,,,,
,,,,,,,,26,2021-11-19_09h36.32.052,premceCat2_ses-02_part-02_label-phase2,2020.2.10,Win32,60,,,,,,,,,0,129,129,6,1,stimuli/objects/saladspinner.jpg,left,old,7,,,,,,,,,,,,,,,
,,,,,,,,26,2021-11-19_09h36.32.052,premceCat2_ses-02_part-02_label-phase2,2020.2.10,Win32,60,,,,,left,1.1755,3,0.3384,,,,,,,,,,right,0.229,0,0,0,0,1,,,,,,,,
,,,,,,,,26,2021-11-19_09h36.32.052,premceCat2_ses-02_part-02_label-phase2,2020.2.10,Win32,60,,,,,,,,,0,130,130,51,1,stimuli/objects/webcam.jpg,right,new,52,,,,,,,,,,,,,,,
,,,,,,,,26,2021-11-19_09h36.32.052,premceCat2_ses-02_part-02_label-phase2,2020.2.10,Win32,60,,,,,right,0.978,4,0.0717,0,131,131,38,1,stimuli/objects/soundmixer.jpg,right,new,39,,,,,,,,,,,,,,,
,,,,,,,,26,2021-11-19_09h36.32.052,premceCat2_ses-02_part-02_label-phase2,2020.2.10,Win32,60,,,,,left,0.8443,3,0.356,,,,,,,,,,left,0.1582,0,0,0,0,1,,,,,,,,
,,,,,,,,26,2021-11-19_09h36.32.052,premceCat2_ses-02_part-02_label-phase2,2020.2.10,Win32,60,,,,,,,,,0,132,132,130,1,stimuli/objects/bikewheel.jpg,left,old,131,,,,,,,,,,,,,,,
,,,,,,,,26,2021-11-19_09h36.32.052,premceCat2_ses-02_part-02_label-phase2,2020.2.10,Win32,60,,,,,left,1.4787,4,0.6561,,,,,,,,,,right,0.6529,0,0,0,0,1,,,,,,,,
,,,,,,,,26,2021-11-19_09h36.32.052,premceCat2_ses-02_part-02_label-phase2,2020.2.10,Win32,60,,,,,,,,,0,133,133,2,1,stimuli/objects/dvdcase01.jpg,left,old,3,,,,,,,,,,,,,,,
,,,,,,,,26,2021-11-19_09h36.32.052,premceCat2_ses-02_part-02_label-phase2,2020.2.10,Win32,60,,,,,left,1.1748,4,0.2224,,,,,,,,,,left,0.3846,0,0,0,0,1,,,,,,,,
,,,,,,,,26,2021-11-19_09h36.32.052,premceCat2_ses-02_part-02_label-phase2,2020.2.10,Win32,60,,,,,,,,,0,134,134,1,1,stimuli/objects/nintendods.jpg,left,old,2,,,,,,,,,,,,,,,
,,,,,,,,26,2021-11-19_09h36.32.052,premceCat2_ses-02_part-02_label-phase2,2020.2.10,Win32,60,,,,,right,1.4149,4,0.2635,0,135,135,47,1,stimuli/objects/flooringstapler.jpg,left,old,48,,,,,,,,,,,,,,,
,,,,,,,,26,2021-11-19_09h36.32.052,premceCat2_ses-02_part-02_label-phase2,2020.2.10,Win32,60,,,,,left,1.5061,2,2.1977,,,,,,,,,,left,0.6877,0,0,0,0,1,,,,,,,,
,,,,,,,,26,2021-11-19_09h36.32.052,premceCat2_ses-02_part-02_label-phase2,2020.2.10,Win32,60,,,,,,,,,0,136,136,7,1,stimuli/objects/jigsaw.jpg,left,old,8,,,,,,,,,,,,,,,
,,,,,,,,26,2021-11-19_09h36.32.052,premceCat2_ses-02_part-02_label-phase2,2020.2.10,Win32,60,,,,,left,2.0354,1,0.0313,,,,,,,,,,right,0.5156,0,0,0,0,1,,,,,,,,
,,,,,,,,26,2021-11-19_09h36.32.052,premceCat2_ses-02_part-02_label-phase2,2020.2.10,Win32,60,,,,,,,,,0,137,137,67,1,stimuli/objects/cooler01.jpg,left,old,68,,,,,,,,,,,,,,,
,,,,,,,,26,2021-11-19_09h36.32.052,premceCat2_ses-02_part-02_label-phase2,2020.2.10,Win32,60,,,,,right,1.3133,2,0.2303,0,138,138,103,1,stimuli/objects/oven.jpg,left,old,104,,,,,,,,,,,,,,,
,,,,,,,,26,2021-11-19_09h36.32.052,premceCat2_ses-02_part-02_label-phase2,2020.2.10,Win32,60,,,,,right,1.022,3,0.1876,0,139,139,138,1,stimuli/objects/taperecorder.jpg,right,new,139,,,,,,,,,,,,,,,
,,,,,,,,26,2021-11-19_09h36.32.052,premceCat2_ses-02_part-02_label-phase2,2020.2.10,Win32,60,,,,,left,0.8303,4,0.191,,,,,,,,,,left,0.2617,0,0,0,0,1,,,,,,,,
,,,,,,,,26,2021-11-19_09h36.32.052,premceCat2_ses-02_part-02_label-phase2,2020.2.10,Win32,60,,,,,,,,,0,140,140,64,1,stimuli/objects/axe01.jpg,left,old,65,,,,,,,,,,,,,,,
,,,,,,,,26,2021-11-19_09h36.32.052,premceCat2_ses-02_part-02_label-phase2,2020.2.10,Win32,60,,,,,right,1.6094,4,0.1081,0,141,141,83,1,stimuli/objects/kitchenscale01a.jpg,right,new,84,,,,,,,,,,,,,,,
,,,,,,,,26,2021-11-19_09h36.32.052,premceCat2_ses-02_part-02_label-phase2,2020.2.10,Win32,60,,,,,right,1.0138,1,0.4385,0,142,142,108,1,stimuli/objects/metalscissors.jpg,right,new,109,,,,,,,,,,,,,,,
,,,,,,,,26,2021-11-19_09h36.32.052,premceCat2_ses-02_part-02_label-phase2,2020.2.10,Win32,60,,,,,,,,,,,,,,,,,,,,,,,,,space,3.8944,0,0,0,0,1,condition_files/ImagesforRecog3_1.csv
,,,,,,,,26,2021-11-19_09h36.32.052,premceCat2_ses-02_part-02_label-phase2,2020.2.10,Win32,60,,,,,right,0.9755,2,0.8294,0,0,0,30,1,stimuli/objects/halogenlightbulb.jpg,right,new,174,,,,,,,,,,,,,,,
,,,,,,,,26,2021-11-19_09h36.32.052,premceCat2_ses-02_part-02_label-phase2,2020.2.10,Win32,60,,,,,right,0.6999,1,0.4062,0,1,1,93,1,stimuli/objects/chainsaw.jpg,left,old,237,,,,,,,,,,,,,,,
,,,,,,,,26,2021-11-19_09h36.32.052,premceCat2_ses-02_part-02_label-phase2,2020.2.10,Win32,60,,,,,left,1.0252,4,0.6731,,,,,,,,,,right,0.2808,0,0,0,0,1,,,,,,,,
,,,,,,,,26,2021-11-19_09h36.32.052,premceCat2_ses-02_part-02_label-phase2,2020.2.10,Win32,60,,,,,,,,,0,2,2,8,1,stimuli/objects/hammer01.jpg,left,old,152,,,,,,,,,,,,,,,
,,,,,,,,26,2021-11-19_09h36.32.052,premceCat2_ses-02_part-02_label-phase2,2020.2.10,Win32,60,,,,,right,2.4191,1,0.0734,0,3,3,83,1,stimuli/objects/icecubetray01a.jpg,right,new,227,,,,,,,,,,,,,,,
,,,,,,,,26,2021-11-19_09h36.32.052,premceCat2_ses-02_part-02_label-phase2,2020.2.10,Win32,60,,,,,left,0.7937,4,0.3191,,,,,,,,,,left,0.245,0,0,0,0,1,,,,,,,,
,,,,,,,,26,2021-11-19_09h36.32.052,premceCat2_ses-02_part-02_label-phase2,2020.2.10,Win32,60,,,,,,,,,0,4,4,76,1,stimuli/objects/headphones02b.jpg,left,old,220,,,,,,,,,,,,,,,
,,,,,,,,26,2021-11-19_09h36.32.052,premceCat2_ses-02_part-02_label-phase2,2020.2.10,Win32,60,,,,,right,1.1994,2,0.644,0,5,5,59,1,stimuli/objects/speedball.jpg,right,new,203,,,,,,,,,,,,,,,
,,,,,,,,26,2021-11-19_09h36.32.052,premceCat2_ses-02_part-02_label-phase2,2020.2.10,Win32,60,,,,,right,0.9983,3,1.0841,0,6,6,99,1,stimuli/objects/floodlight.jpg,right,new,243,,,,,,,,,,,,,,,
,,,,,,,,26,2021-11-19_09h36.32.052,premceCat2_ses-02_part-02_label-phase2,2020.2.10,Win32,60,,,,,left,0.8453,4,0.3576,,,,,,,,,,left,0.2412,0,0,0,0,1,,,,,,,,
,,,,,,,,26,2021-11-19_09h36.32.052,premceCat2_ses-02_part-02_label-phase2,2020.2.10,Win32,60,,,,,,,,,0,7,7,100,1,stimuli/objects/caulking.jpg,left,old,244,,,,,,,,,,,,,,,
,,,,,,,,26,2021-11-19_09h36.32.052,premceCat2_ses-02_part-02_label-phase2,2020.2.10,Win32,60,,,,,left,1.0605,4,0.0151,,,,,,,,,,left,0.1523,0,0,0,0,1,,,,,,,,
,,,,,,,,26,2021-11-19_09h36.32.052,premceCat2_ses-02_part-02_label-phase2,2020.2.10,Win32,60,,,,,,,,,0,8,8,71,1,stimuli/objects/handgripper.jpg,left,old,215,,,,,,,,,,,,,,,
,,,,,,,,26,2021-11-19_09h36.32.052,premceCat2_ses-02_part-02_label-phase2,2020.2.10,Win32,60,,,,,right,1.8226,2,0.3049,0,9,9,70,1,stimuli/objects/shovel01.jpg,right,new,214,,,,,,,,,,,,,,,
,,,,,,,,26,2021-11-19_09h36.32.052,premceCat2_ses-02_part-02_label-phase2,2020.2.10,Win32,60,,,,,right,0.8234,4,0.1731,0,10,10,17,1,stimuli/objects/backpack01a.jpg,left,old,161,,,,,,,,,,,,,,,
,,,,,,,,26,2021-11-19_09h36.32.052,premceCat2_ses-02_part-02_label-phase2,2020.2.10,Win32,60,,,,,left,0.7297,4,0.2208,,,,,,,,,,right,0.5297,0,0,0,0,1,,,,,,,,
,,,,,,,,26,2021-11-19_09h36.32.052,premceCat2_ses-02_part-02_label-phase2,2020.2.10,Win32,60,,,,,,,,,0,11,11,33,1,stimuli/objects/ipod.jpg,left,old,177,,,,,,,,,,,,,,,
,,,,,,,,26,2021-11-19_09h36.32.052,premceCat2_ses-02_part-02_label-phase2,2020.2.10,Win32,60,,,,,left,1.4272,4,0.1135,,,,,,,,,,left,0.1998,0,0,0,0,1,,,,,,,,
,,,,,,,,26,2021-11-19_09h36.32.052,premceCat2_ses-02_part-02_label-phase2,2020.2.10,Win32,60,,,,,,,,,0,12,12,57,1,stimuli/objects/swimgoggles.jpg,left,old,201,,,,,,,,,,,,,,,
,,,,,,,,26,2021-11-19_09h36.32.052,premceCat2_ses-02_part-02_label-phase2,2020.2.10,Win32,60,,,,,left,4.4212,4,1.5124,,,,,,,,,,left,0.5858,0,0,0,0,1,,,,,,,,
,,,,,,,,26,2021-11-19_09h36.32.052,premceCat2_ses-02_part-02_label-phase2,2020.2.10,Win32,60,,,,,,,,,0,13,13,7,1,stimuli/objects/butterknife.jpg,left,old,151,,,,,,,,,,,,,,,
,,,,,,,,26,2021-11-19_09h36.32.052,premceCat2_ses-02_part-02_label-phase2,2020.2.10,Win32,60,,,,,left,0.8127,4,0.1023,,,,,,,,,,right,0.2822,0,0,0,0,1,,,,,,,,
,,,,,,,,26,2021-11-19_09h36.32.052,premceCat2_ses-02_part-02_label-phase2,2020.2.10,Win32,60,,,,,,,,,0,14,14,141,1,stimuli/objects/travelmug.jpg,left,old,285,,,,,,,,,,,,,,,
,,,,,,,,26,2021-11-19_09h36.32.052,premceCat2_ses-02_part-02_label-phase2,2020.2.10,Win32,60,,,,,right,1.2356,4,0.0821,0,15,15,9,1,stimuli/objects/alarmsystem.jpg,right,new,153,,,,,,,,,,,,,,,
,,,,,,,,26,2021-11-19_09h36.32.052,premceCat2_ses-02_part-02_label-phase2,2020.2.10,Win32,60,,,,,left,0.8107,4,0.2318,,,,,,,,,,right,0.3235,0,0,0,0,1,,,,,,,,
,,,,,,,,26,2021-11-19_09h36.32.052,premceCat2_ses-02_part-02_label-phase2,2020.2.10,Win32,60,,,,,,,,,0,16,16,53,1,stimuli/objects/metalbrush.jpg,left,old,197,,,,,,,,,,,,,,,
,,,,,,,,26,2021-11-19_09h36.32.052,premceCat2_ses-02_part-02_label-phase2,2020.2.10,Win32,60,,,,,right,3.5195,2,0.9771,0,17,17,140,1,stimuli/objects/wineglass01.jpg,right,new,284,,,,,,,,,,,,,,,
,,,,,,,,26,2021-11-19_09h36.32.052,premceCat2_ses-02_part-02_label-phase2,2020.2.10,Win32,60,,,,,left,1.0105,4,0.018,,,,,,,,,,right,0.1217,0,0,0,0,1,,,,,,,,
,,,,,,,,26,2021-11-19_09h36.32.052,premceCat2_ses-02_part-02_label-phase2,2020.2.10,Win32,60,,,,,,,,,0,18,18,52,1,stimuli/objects/securitycamera.jpg,left,old,196,,,,,,,,,,,,,,,
,,,,,,,,26,2021-11-19_09h36.32.052,premceCat2_ses-02_part-02_label-phase2,2020.2.10,Win32,60,,,,,left,1.1099,4,0.0821,,,,,,,,,,right,0.1636,0,0,0,0,1,,,,,,,,
,,,,,,,,26,2021-11-19_09h36.32.052,premceCat2_ses-02_part-02_label-phase2,2020.2.10,Win32,60,,,,,,,,,0,19,19,54,1,stimuli/objects/stubbywrench01a.jpg,left,old,198,,,,,,,,,,,,,,,
,,,,,,,,26,2021-11-19_09h36.32.052,premceCat2_ses-02_part-02_label-phase2,2020.2.10,Win32,60,,,,,right,1.0126,4,0.2039,0,20,20,103,1,stimuli/objects/swissarmyknife01a.jpg,right,new,247,,,,,,,,,,,,,,,
,,,,,,,,26,2021-11-19_09h36.32.052,premceCat2_ses-02_part-02_label-phase2,2020.2.10,Win32,60,,,,,left,0.8433,4,0.1742,,,,,,,,,,left,0.2115,0,0,0,0,1,,,,,,,,
,,,,,,,,26,2021-11-19_09h36.32.052,premceCat2_ses-02_part-02_label-phase2,2020.2.10,Win32,60,,,,,,,,,0,21,21,128,1,stimuli/objects/spoon01.jpg,left,old,272,,,,,,,,,,,,,,,
,,,,,,,,26,2021-11-19_09h36.32.052,premceCat2_ses-02_part-02_label-phase2,2020.2.10,Win32,60,,,,,right,1.6977,4,0.1508,0,22,22,2,1,stimuli/objects/wetfloorsign.jpg,right,new,146,,,,,,,,,,,,,,,
,,,,,,,,26,2021-11-19_09h36.32.052,premceCat2_ses-02_part-02_label-phase2,2020.2.10,Win32,60,,,,,right,1.2686,4,0.2409,0,23,23,66,1,stimuli/objects/heatpump.jpg,right,new,210,,,,,,,,,,,,,,,
,,,,,,,,26,2021-11-19_09h36.32.052,premceCat2_ses-02_part-02_label-phase2,2020.2.10,Win32,60,,,,,right,2.8654,1,0.1364,0,24,24,116,1,stimuli/objects/lockingplier.jpg,right,new,260,,,,,,,,,,,,,,,
,,,,,,,,26,2021-11-19_09h36.32.052,premceCat2_ses-02_part-02_label-phase2,2020.2.10,Win32,60,,,,,right,1.9449,1,0.4536,0,25,25,16,1,stimuli/objects/bottleopener01.jpg,right,new,160,,,,,,,,,,,,,,,
,,,,,,,,26,2021-11-19_09h36.32.052,premceCat2_ses-02_part-02_label-phase2,2020.2.10,Win32,60,,,,,right,1.3538,4,0.2146,0,26,26,124,1,stimuli/objects/basketball01.jpg,right,new,268,,,,,,,,,,,,,,,
,,,,,,,,26,2021-11-19_09h36.32.052,premceCat2_ses-02_part-02_label-phase2,2020.2.10,Win32,60,,,,,left,1.7679,2,0.5065,,,,,,,,,,left,0.3692,0,0,0,0,1,,,,,,,,
,,,,,,,,26,2021-11-19_09h36.32.052,premceCat2_ses-02_part-02_label-phase2,2020.2.10,Win32,60,,,,,,,,,0,27,27,74,1,stimuli/objects/shinpad.jpg,left,old,218,,,,,,,,,,,,,,,
,,,,,,,,26,2021-11-19_09h36.32.052,premceCat2_ses-02_part-02_label-phase2,2020.2.10,Win32,60,,,,,right,0.9691,4,0.0317,0,28,28,0,1,stimuli/objects/smokedetector02.jpg,right,new,144,,,,,,,,,,,,,,,
,,,,,,,,26,2021-11-19_09h36.32.052,premceCat2_ses-02_part-02_label-phase2,2020.2.10,Win32,60,,,,,right,0.9565,4,0.0333,0,29,29,81,1,stimuli/objects/grill.jpg,right,new,225,,,,,,,,,,,,,,,
,,,,,,,,26,2021-11-19_09h36.32.052,premceCat2_ses-02_part-02_label-phase2,2020.2.10,Win32,60,,,,,right,0.6591,4,0.141,0,30,30,138,1,stimuli/objects/beermug01a.jpg,right,new,282,,,,,,,,,,,,,,,
,,,,,,,,26,2021-11-19_09h36.32.052,premceCat2_ses-02_part-02_label-phase2,2020.2.10,Win32,60,,,,,left,2.0907,4,0.836,,,,,,,,,,right,0.2499,0,0,0,0,1,,,,,,,,
,,,,,,,,26,2021-11-19_09h36.32.052,premceCat2_ses-02_part-02_label-phase2,2020.2.10,Win32,60,,,,,,,,,0,31,31,112,1,stimuli/objects/slidetray.jpg,left,old,256,,,,,,,,,,,,,,,
,,,,,,,,26,2021-11-19_09h36.32.052,premceCat2_ses-02_part-02_label-phase2,2020.2.10,Win32,60,,,,,left,0.7881,4,0.1653,,,,,,,,,,left,0.0796,0,0,0,0,1,,,,,,,,
,,,,,,,,26,2021-11-19_09h36.32.052,premceCat2_ses-02_part-02_label-phase2,2020.2.10,Win32,60,,,,,,,,,0,32,32,31,1,stimuli/objects/soccerball.jpg,left,old,175,,,,,,,,,,,,,,,
,,,,,,,,26,2021-11-19_09h36.32.052,premceCat2_ses-02_part-02_label-phase2,2020.2.10,Win32,60,,,,,right,0.7678,4,0.0842,0,33,33,86,1,stimuli/objects/trampoline.jpg,right,new,230,,,,,,,,,,,,,,,
,,,,,,,,26,2021-11-19_09h36.32.052,premceCat2_ses-02_part-02_label-phase2,2020.2.10,Win32,60,,,,,left,0.9199,4,0.082,,,,,,,,,,right,0.1807,0,0,0,0,1,,,,,,,,
,,,,,,,,26,2021-11-19_09h36.32.052,premceCat2_ses-02_part-02_label-phase2,2020.2.10,Win32,60,,,,,,,,,0,34,34,38,1,stimuli/objects/breadknife.jpg,left,old,182,,,,,,,,,,,,,,,
,,,,,,,,26,2021-11-19_09h36.32.052,premceCat2_ses-02_part-02_label-phase2,2020.2.10,Win32,60,,,,,left,2.7232,2,0.0655,,,,,,,,,,left,0.2434,0,0,0,0,1,,,,,,,,
,,,,,,,,26,2021-11-19_09h36.32.052,premceCat2_ses-02_part-02_label-phase2,2020.2.10,Win32,60,,,,,,,,,0,35,35,129,1,stimuli/objects/hoe.jpg,left,old,273,,,,,,,,,,,,,,,
,,,,,,,,26,2021-11-19_09h36.32.052,premceCat2_ses-02_part-02_label-phase2,2020.2.10,Win32,60,,,,,right,1.3743,4,0.0009,0,36,36,137,1,stimuli/objects/nutcracker01.jpg,right,new,281,,,,,,,,,,,,,,,
,,,,,,,,26,2021-11-19_09h36.32.052,premceCat2_ses-02_part-02_label-phase2,2020.2.10,Win32,60,,,,,right,0.9158,4,0.0834,0,37,37,94,1,stimuli/objects/file.jpg,right,new,238,,,,,,,,,,,,,,,
,,,,,,,,26,2021-11-19_09h36.32.052,premceCat2_ses-02_part-02_label-phase2,2020.2.10,Win32,60,,,,,right,1.749,4,0.2518,0,38,38,127,1,stimuli/objects/skigoggles01.jpg,right,new,271,,,,,,,,,,,,,,,
,,,,,,,,26,2021-11-19_09h36.32.052,premceCat2_ses-02_part-02_label-phase2,2020.2.10,Win32,60,,,,,left,0.8312,4,0.3459,,,,,,,,,,right,0.2974,0,0,0,0,1,,,,,,,,
,,,,,,,,26,2021-11-19_09h36.32.052,premceCat2_ses-02_part-02_label-phase2,2020.2.10,Win32,60,,,,,,,,,0,39,39,63,1,stimuli/objects/towel01.jpg,left,old,207,,,,,,,,,,,,,,,
,,,,,,,,26,2021-11-19_09h36.32.052,premceCat2_ses-02_part-02_label-phase2,2020.2.10,Win32,60,,,,,left,1.1436,4,0.0089,,,,,,,,,,left,0.1083,0,0,0,0,1,,,,,,,,
,,,,,,,,26,2021-11-19_09h36.32.052,premceCat2_ses-02_part-02_label-phase2,2020.2.10,Win32,60,,,,,,,,,0,40,40,45,1,stimuli/objects/charcoalbarbecue.jpg,left,old,189,,,,,,,,,,,,,,,
,,,,,,,,26,2021-11-19_09h36.32.052,premceCat2_ses-02_part-02_label-phase2,2020.2.10,Win32,60,,,,,left,0.9251,4,0.2177,,,,,,,,,,left,0.0847,0,0,0,0,1,,,,,,,,
,,,,,,,,26,2021-11-19_09h36.32.052,premceCat2_ses-02_part-02_label-phase2,2020.2.10,Win32,60,,,,,,,,,0,41,41,20,1,stimuli/objects/bikehelmet.jpg,left,old,164,,,,,,,,,,,,,,,
,,,,,,,,26,2021-11-19_09h36.32.052,premceCat2_ses-02_part-02_label-phase2,2020.2.10,Win32,60,,,,,left,0.8454,4,0.0397,,,,,,,,,,right,0.1626,0,0,0,0,1,,,,,,,,
,,,,,,,,26,2021-11-19_09h36.32.052,premceCat2_ses-02_part-02_label-phase2,2020.2.10,Win32,60,,,,,,,,,0,42,42,32,1,stimuli/objects/rollingpin01a.jpg,left,old,176,,,,,,,,,,,,,,,
,,,,,,,,26,2021-11-19_09h36.32.052,premceCat2_ses-02_part-02_label-phase2,2020.2.10,Win32,60,,,,,right,2.1962,1,0.4665,0,43,43,132,1,stimuli/objects/wirestripper.jpg,right,new,276,,,,,,,,,,,,,,,
,,,,,,,,26,2021-11-19_09h36.32.052,premceCat2_ses-02_part-02_label-phase2,2020.2.10,Win32,60,,,,,left,1.0694,4,0.1488,,,,,,,,,,right,0.3442,0,0,0,0,1,,,,,,,,
,,,,,,,,26,2021-11-19_09h36.32.052,premceCat2_ses-02_part-02_label-phase2,2020.2.10,Win32,60,,,,,,,,,0,44,44,27,1,stimuli/objects/saw02b.jpg,left,old,171,,,,,,,,,,,,,,,
,,,,,,,,26,2021-11-19_09h36.32.052,premceCat2_ses-02_part-02_label-phase2,2020.2.10,Win32,60,,,,,right,1.7341,1,0.0912,0,45,45,10,1,stimuli/objects/skihelmet01.jpg,left,old,154,,,,,,,,,,,,,,,
,,,,,,,,26,2021-11-19_09h36.32.052,premceCat2_ses-02_part-02_label-phase2,2020.2.10,Win32,60,,,,,right,1.1189,1,0.1218,0,46,46,98,1,stimuli/objects/cameracase01a.jpg,right,new,242,,,,,,,,,,,,,,,
,,,,,,,,26,2021-11-19_09h36.32.052,premceCat2_ses-02_part-02_label-phase2,2020.2.10,Win32,60,,,,,left,0.9115,4,0.2004,,,,,,,,,,left,6.2041,0,0,0,0,1,,,,,,,,
,,,,,,,,26,2021-11-19_09h36.32.052,premceCat2_ses-02_part-02_label-phase2,2020.2.10,Win32,60,,,,,,,,,0,47,47,139,1,stimuli/objects/corkscrew03a.jpg,left,old,283,,,,,,,,,,,,,,,
,,,,,,,,26,2021-11-19_09h36.32.052,premceCat2_ses-02_part-02_label-phase2,2020.2.10,Win32,60,,,,,left,1.4928,3,1.3994,,,,,,,,,,right,0.5298,0,0,0,0,1,,,,,,,,
,,,,,,,,26,2021-11-19_09h36.32.052,premceCat2_ses-02_part-02_label-phase2,2020.2.10,Win32,60,,,,,,,,,0,48,48,67,1,stimuli/objects/fan.jpg,left,old,211,,,,,,,,,,,,,,,
,,,,,,,,26,2021-11-19_09h36.32.052,premceCat2_ses-02_part-02_label-phase2,2020.2.10,Win32,60,,,,,right,1.0639,2,0.1175,0,49,49,142,1,stimuli/objects/needlenosepliers01.jpg,right,new,286,,,,,,,,,,,,,,,
,,,,,,,,26,2021-11-19_09h36.32.052,premceCat2_ses-02_part-02_label-phase2,2020.2.10,Win32,60,,,,,right,2.0582,1,0.2683,0,50,50,106,1,stimuli/objects/extensioncord.jpg,left,old,250,,,,,,,,,,,,,,,
,,,,,,,,26,2021-11-19_09h36.32.052,premceCat2_ses-02_part-02_label-phase2,2020.2.10,Win32,60,,,,,right,0.773,4,0.0804,0,51,51,101,1,stimuli/objects/lifejacket.jpg,right,new,245,,,,,,,,,,,,,,,
,,,,,,,,26,2021-11-19_09h36.32.052,premceCat2_ses-02_part-02_label-phase2,2020.2.10,Win32,60,,,,,right,0.6771,4,0.0626,0,52,52,15,1,stimuli/objects/computermouse06.jpg,right,new,159,,,,,,,,,,,,,,,
,,,,,,,,26,2021-11-19_09h36.32.052,premceCat2_ses-02_part-02_label-phase2,2020.2.10,Win32,60,,,,,left,1.1178,3,0.9134,,,,,,,,,,right,0.3008,0,0,0,0,1,,,,,,,,
,,,,,,,,26,2021-11-19_09h36.32.052,premceCat2_ses-02_part-02_label-phase2,2020.2.10,Win32,60,,,,,,,,,0,53,53,96,1,stimuli/objects/wateringcan.jpg,left,old,240,,,,,,,,,,,,,,,
,,,,,,,,26,2021-11-19_09h36.32.052,premceCat2_ses-02_part-02_label-phase2,2020.2.10,Win32,60,,,,,left,2.0303,4,0.4431,,,,,,,,,,left,0.2214,0,0,0,0,1,,,,,,,,
,,,,,,,,26,2021-11-19_09h36.32.052,premceCat2_ses-02_part-02_label-phase2,2020.2.10,Win32,60,,,,,,,,,0,54,54,105,1,stimuli/objects/pitcher02b.jpg,left,old,249,,,,,,,,,,,,,,,
,,,,,,,,26,2021-11-19_09h36.32.052,premceCat2_ses-02_part-02_label-phase2,2020.2.10,Win32,60,,,,,left,1.3605,1,1.4135,,,,,,,,,,right,1.0416,0,0,0,0,1,,,,,,,,
,,,,,,,,26,2021-11-19_09h36.32.052,premceCat2_ses-02_part-02_label-phase2,2020.2.10,Win32,60,,,,,,,,,0,55,55,87,1,stimuli/objects/wiicontroller.jpg,right,new,231,,,,,,,,,,,,,,,
,,,,,,,,26,2021-11-19_09h36.32.052,premceCat2_ses-02_part-02_label-phase2,2020.2.10,Win32,60,,,,,right,1.4731,2,1.3287,0,56,56,42,1,stimuli/objects/tennisracket.jpg,right,new,186,,,,,,,,,,,,,,,
,,,,,,,,26,2021-11-19_09h36.32.052,premceCat2_ses-02_part-02_label-phase2,2020.2.10,Win32,60,,,,,right,0.7677,1,0.2017,0,57,57,120,1,stimuli/objects/tent.jpg,right,new,264,,,,,,,,,,,,,,,
,,,,,,,,26,2021-11-19_09h36.32.052,premceCat2_ses-02_part-02_label-phase2,2020.2.10,Win32,60,,,,,right,1.6255,4,0.2704,0,58,58,133,1,stimuli/objects/birdie.jpg,right,new,277,,,,,,,,,,,,,,,
,,,,,,,,26,2021-11-19_09h36.32.052,premceCat2_ses-02_part-02_label-phase2,2020.2.10,Win32,60,,,,,left,1.319,4,0.5455,,,,,,,,,,left,0.5479,0,0,0,0,1,,,,,,,,
,,,,,,,,26,2021-11-19_09h36.32.052,premceCat2_ses-02_part-02_label-phase2,2020.2.10,Win32,60,,,,,,,,,0,59,59,14,1,stimuli/objects/fishingrod.jpg,left,old,158,,,,,,,,,,,,,,,
,,,,,,,,26,2021-11-19_09h36.32.052,premceCat2_ses-02_part-02_label-phase2,2020.2.10,Win32,60,,,,,right,1.1135,3,1.8957,0,60,60,69,1,stimuli/objects/straw.jpg,right,new,213,,,,,,,,,,,,,,,
,,,,,,,,26,2021-11-19_09h36.32.052,premceCat2_ses-02_part-02_label-phase2,2020.2.10,Win32,60,,,,,left,1.0953,4,0.0911,,,,,,,,,,right,0.1132,0,0,0,0,1,,,,,,,,
,,,,,,,,26,2021-11-19_09h36.32.052,premceCat2_ses-02_part-02_label-phase2,2020.2.10,Win32,60,,,,,,,,,0,61,61,77,1,stimuli/objects/contactlens.jpg,left,old,221,,,,,,,,,,,,,,,
,,,,,,,,26,2021-11-19_09h36.32.052,premceCat2_ses-02_part-02_label-phase2,2020.2.10,Win32,60,,,,,right,1.3759,4,0.3296,0,62,62,19,1,stimuli/objects/mug01.jpg,right,new,163,,,,,,,,,,,,,,,
,,,,,,,,26,2021-11-19_09h36.32.052,premceCat2_ses-02_part-02_label-phase2,2020.2.10,Win32,60,,,,,right,0.6323,4,0.2966,0,63,63,35,1,stimuli/objects/stroller.jpg,right,new,179,,,,,,,,,,,,,,,
,,,,,,,,26,2021-11-19_09h36.32.052,premceCat2_ses-02_part-02_label-phase2,2020.2.10,Win32,60,,,,,left,0.8427,4,0.2583,,,,,,,,,,right,0.1386,0,0,0,0,1,,,,,,,,
,,,,,,,,26,2021-11-19_09h36.32.052,premceCat2_ses-02_part-02_label-phase2,2020.2.10,Win32,60,,,,,,,,,0,64,64,18,1,stimuli/objects/fluorescentlightbulb.jpg,left,old,162,,,,,,,,,,,,,,,
,,,,,,,,26,2021-11-19_09h36.32.052,premceCat2_ses-02_part-02_label-phase2,2020.2.10,Win32,60,,,,,right,1.4607,1,0.3771,0,65,65,49,1,stimuli/objects/cakeplatter.jpg,right,new,193,,,,,,,,,,,,,,,
,,,,,,,,26,2021-11-19_09h36.32.052,premceCat2_ses-02_part-02_label-phase2,2020.2.10,Win32,60,,,,,left,1.7674,3,1.1996,,,,,,,,,,left,0.7974,0,0,0,0,1,,,,,,,,
,,,,,,,,26,2021-11-19_09h36.32.052,premceCat2_ses-02_part-02_label-phase2,2020.2.10,Win32,60,,,,,,,,,0,66,66,73,1,stimuli/objects/baseballglove.jpg,left,old,217,,,,,,,,,,,,,,,
,,,,,,,,26,2021-11-19_09h36.32.052,premceCat2_ses-02_part-02_label-phase2,2020.2.10,Win32,60,,,,,left,0.9778,3,0.2646,,,,,,,,,,left,0.2652,0,0,0,0,1,,,,,,,,
,,,,,,,,26,2021-11-19_09h36.32.052,premceCat2_ses-02_part-02_label-phase2,2020.2.10,Win32,60,,,,,,,,,0,67,67,25,1,stimuli/objects/shotglass.jpg,left,old,169,,,,,,,,,,,,,,,
,,,,,,,,26,2021-11-19_09h36.32.052,premceCat2_ses-02_part-02_label-phase2,2020.2.10,Win32,60,,,,,right,1.9259,2,0.9324,0,68,68,122,1,stimuli/objects/hockeystick.jpg,right,new,266,,,,,,,,,,,,,,,
,,,,,,,,26,2021-11-19_09h36.32.052,premceCat2_ses-02_part-02_label-phase2,2020.2.10,Win32,60,,,,,left,2.3118,1,0.234,,,,,,,,,,right,0.5536,0,0,0,0,1,,,,,,,,
,,,,,,,,26,2021-11-19_09h36.32.052,premceCat2_ses-02_part-02_label-phase2,2020.2.10,Win32,60,,,,,,,,,0,69,69,36,1,stimuli/objects/loppingshears.jpg,right,new,180,,,,,,,,,,,,,,,
,,,,,,,,26,2021-11-19_09h36.32.052,premceCat2_ses-02_part-02_label-phase2,2020.2.10,Win32,60,,,,,right,1.3992,2,1.8843,0,70,70,82,1,stimuli/objects/shopvac.jpg,right,new,226,,,,,,,,,,,,,,,
,,,,,,,,26,2021-11-19_09h36.32.052,premceCat2_ses-02_part-02_label-phase2,2020.2.10,Win32,60,,,,,left,1.6931,1,0.8297,,,,,,,,,,right,0.7874,0,0,0,0,1,,,,,,,,
,,,,,,,,26,2021-11-19_09h36.32.052,premceCat2_ses-02_part-02_label-phase2,2020.2.10,Win32,60,,,,,,,,,0,71,71,4,1,stimuli/objects/cassettetape01a.jpg,right,new,148,,,,,,,,,,,,,,,
,,,,,,,,26,2021-11-19_09h36.32.052,premceCat2_ses-02_part-02_label-phase2,2020.2.10,Win32,60,,,,,right,1.3895,3,1.4136,0,72,72,3,1,stimuli/objects/boxingglove01.jpg,right,new,147,,,,,,,,,,,,,,,
,,,,,,,,26,2021-11-19_09h36.32.052,premceCat2_ses-02_part-02_label-phase2,2020.2.10,Win32,60,,,,,left,1.1667,4,0.0169,,,,,,,,,,right,0.0883,0,0,0,0,1,,,,,,,,
,,,,,,,,26,2021-11-19_09h36.32.052,premceCat2_ses-02_part-02_label-phase2,2020.2.10,Win32,60,,,,,,,,,0,73,73,21,1,stimuli/objects/drill01b.jpg,left,old,165,,,,,,,,,,,,,,,
,,,,,,,,26,2021-11-19_09h36.32.052,premceCat2_ses-02_part-02_label-phase2,2020.2.10,Win32,60,,,,,right,1.3142,2,1.3489,0,74,74,12,1,stimuli/objects/fanheater.jpg,right,new,156,,,,,,,,,,,,,,,
,,,,,,,,26,2021-11-19_09h36.32.052,premceCat2_ses-02_part-02_label-phase2,2020.2.10,Win32,60,,,,,left,1.2084,4,1.0151,,,,,,,,,,left,1.8653,0,0,0,0,1,,,,,,,,
,,,,,,,,26,2021-11-19_09h36.32.052,premceCat2_ses-02_part-02_label-phase2,2020.2.10,Win32,60,,,,,,,,,0,75,75,84,1,stimuli/objects/patioumbrella.jpg,left,old,228,,,,,,,,,,,,,,,
,,,,,,,,26,2021-11-19_09h36.32.052,premceCat2_ses-02_part-02_label-phase2,2020.2.10,Win32,60,,,,,left,2.1949,3,1.4453,,,,,,,,,,left,0.3051,0,0,0,0,1,,,,,,,,
,,,,,,,,26,2021-11-19_09h36.32.052,premceCat2_ses-02_part-02_label-phase2,2020.2.10,Win32,60,,,,,,,,,0,76,76,79,1,stimuli/objects/boatmotor.jpg,left,old,223,,,,,,,,,,,,,,,
,,,,,,,,26,2021-11-19_09h36.32.052,premceCat2_ses-02_part-02_label-phase2,2020.2.10,Win32,60,,,,,right,1.2349,4,0.0349,0,77,77,80,1,stimuli/objects/barbecue03.jpg,right,new,224,,,,,,,,,,,,,,,
,,,,,,,,26,2021-11-19_09h36.32.052,premceCat2_ses-02_part-02_label-phase2,2020.2.10,Win32,60,,,,,left,1.256,3,0.2509,,,,,,,,,,right,0.1655,0,0,0,0,1,,,,,,,,
,,,,,,,,26,2021-11-19_09h36.32.052,premceCat2_ses-02_part-02_label-phase2,2020.2.10,Win32,60,,,,,,,,,0,78,78,75,1,stimuli/objects/mallet01b.jpg,left,old,219,,,,,,,,,,,,,,,
,,,,,,,,26,2021-11-19_09h36.32.052,premceCat2_ses-02_part-02_label-phase2,2020.2.10,Win32,60,,,,,left,1.2149,3,0.3849,,,,,,,,,,left,0.0986,0,0,0,0,1,,,,,,,,
,,,,,,,,26,2021-11-19_09h36.32.052,premceCat2_ses-02_part-02_label-phase2,2020.2.10,Win32,60,,,,,,,,,0,79,79,28,1,stimuli/objects/canister.jpg,left,old,172,,,,,,,,,,,,,,,
,,,,,,,,26,2021-11-19_09h36.32.052,premceCat2_ses-02_part-02_label-phase2,2020.2.10,Win32,60,,,,,left,1.114,4,0.0054,,,,,,,,,,left,0.1509,0,0,0,0,1,,,,,,,,
,,,,,,,,26,2021-11-19_09h36.32.052,premceCat2_ses-02_part-02_label-phase2,2020.2.10,Win32,60,,,,,,,,,0,80,80,110,1,stimuli/objects/skiboot01a.jpg,left,old,254,,,,,,,,,,,,,,,
,,,,,,,,26,2021-11-19_09h36.32.052,premceCat2_ses-02_part-02_label-phase2,2020.2.10,Win32,60,,,,,right,1.4474,2,3.2861,0,81,81,51,1,stimuli/objects/cheeseknife01.jpg,right,new,195,,,,,,,,,,,,,,,
,,,,,,,,26,2021-11-19_09h36.32.052,premceCat2_ses-02_part-02_label-phase2,2020.2.10,Win32,60,,,,,left,0.8339,4,0.5959,,,,,,,,,,right,0.9284,0,0,0,0,1,,,,,,,,
,,,,,,,,26,2021-11-19_09h36.32.052,premceCat2_ses-02_part-02_label-phase2,2020.2.10,Win32,60,,,,,,,,,0,82,82,65,1,stimuli/objects/bucket02.jpg,left,old,209,,,,,,,,,,,,,,,
,,,,,,,,26,2021-11-19_09h36.32.052,premceCat2_ses-02_part-02_label-phase2,2020.2.10,Win32,60,,,,,right,1.2423,4,0.066,0,83,83,6,1,stimuli/objects/solderingwire.jpg,right,new,150,,,,,,,,,,,,,,,
,,,,,,,,26,2021-11-19_09h36.32.052,premceCat2_ses-02_part-02_label-phase2,2020.2.10,Win32,60,,,,,left,0.8949,4,0.3339,,,,,,,,,,right,0.6663,0,0,0,0,1,,,,,,,,
,,,,,,,,26,2021-11-19_09h36.32.052,premceCat2_ses-02_part-02_label-phase2,2020.2.10,Win32,60,,,,,,,,,0,84,84,22,1,stimuli/objects/paintroller01.jpg,left,old,166,,,,,,,,,,,,,,,
,,,,,,,,26,2021-11-19_09h36.32.052,premceCat2_ses-02_part-02_label-phase2,2020.2.10,Win32,60,,,,,left,1.8032,1,0.0083,,,,,,,,,,left,0.1971,0,0,0,0,1,,,,,,,,
,,,,,,,,26,2021-11-19_09h36.32.052,premceCat2_ses-02_part-02_label-phase2,2020.2.10,Win32,60,,,,,,,,,0,85,85,50,1,stimuli/objects/hockeygoaliemask.jpg,left,old,194,,,,,,,,,,,,,,,
,,,,,,,,26,2021-11-19_09h36.32.052,premceCat2_ses-02_part-02_label-phase2,2020.2.10,Win32,60,,,,,left,1.393,4,0.1472,,,,,,,,,,right,0.0834,0,0,0,0,1,,,,,,,,
,,,,,,,,26,2021-11-19_09h36.32.052,premceCat2_ses-02_part-02_label-phase2,2020.2.10,Win32,60,,,,,,,,,0,86,86,125,1,stimuli/objects/sewingmachine01a.jpg,left,old,269,,,,,,,,,,,,,,,
,,,,,,,,26,2021-11-19_09h36.32.052,premceCat2_ses-02_part-02_label-phase2,2020.2.10,Win32,60,,,,,right,1.1509,4,0.0055,0,87,87,40,1,stimuli/objects/tablesaw.jpg,right,new,184,,,,,,,,,,,,,,,
,,,,,,,,26,2021-11-19_09h36.32.052,premceCat2_ses-02_part-02_label-phase2,2020.2.10,Win32,60,,,,,left,2.6599,3,0.2174,,,,,,,,,,right,0.8109,0,0,0,0,1,,,,,,,,
,,,,,,,,26,2021-11-19_09h36.32.052,premceCat2_ses-02_part-02_label-phase2,2020.2.10,Win32,60,,,,,,,,,0,88,88,104,1,stimuli/objects/alarmclock01.jpg,left,old,248,,,,,,,,,,,,,,,
,,,,,,,,26,2021-11-19_09h36.32.052,premceCat2_ses-02_part-02_label-phase2,2020.2.10,Win32,60,,,,,left,1.1151,4,0.0226,,,,,,,,,,left,0.1878,0,0,0,0,1,,,,,,,,
,,,,,,,,26,2021-11-19_09h36.32.052,premceCat2_ses-02_part-02_label-phase2,2020.2.10,Win32,60,,,,,,,,,0,89,89,126,1,stimuli/objects/reflector.jpg,left,old,270,,,,,,,,,,,,,,,
,,,,,,,,26,2021-11-19_09h36.32.052,premceCat2_ses-02_part-02_label-phase2,2020.2.10,Win32,60,,,,,right,1.5613,4,0.0974,0,90,90,5,1,stimuli/objects/pickaxe02.jpg,right,new,149,,,,,,,,,,,,,,,
,,,,,,,,26,2021-11-19_09h36.32.052,premceCat2_ses-02_part-02_label-phase2,2020.2.10,Win32,60,,,,,left,1.2804,4,0.0138,,,,,,,,,,left,0.0619,0,0,0,0,1,,,,,,,,
,,,,,,,,26,2021-11-19_09h36.32.052,premceCat2_ses-02_part-02_label-phase2,2020.2.10,Win32,60,,,,,,,,,0,91,91,136,1,stimuli/objects/hockeypuck.jpg,left,old,280,,,,,,,,,,,,,,,
,,,,,,,,26,2021-11-19_09h36.32.052,premceCat2_ses-02_part-02_label-phase2,2020.2.10,Win32,60,,,,,right,0.9472,4,1.1061,0,92,92,34,1,stimuli/objects/kneepad01c.jpg,right,new,178,,,,,,,,,,,,,,,
,,,,,,,,26,2021-11-19_09h36.32.052,premceCat2_ses-02_part-02_label-phase2,2020.2.10,Win32,60,,,,,left,1.2444,4,0.5243,,,,,,,,,,right,0.018,0,0,0,0,1,,,,,,,,
,,,,,,,,26,2021-11-19_09h36.32.052,premceCat2_ses-02_part-02_label-phase2,2020.2.10,Win32,60,,,,,,,,,0,93,93,113,1,stimuli/objects/hedgeshears.jpg,left,old,257,,,,,,,,,,,,,,,
,,,,,,,,26,2021-11-19_09h36.32.052,premceCat2_ses-02_part-02_label-phase2,2020.2.10,Win32,60,,,,,left,4.0233,4,0.1165,,,,,,,,,,left,0.0287,0,0,0,0,1,,,,,,,,
,,,,,,,,26,2021-11-19_09h36.32.052,premceCat2_ses-02_part-02_label-phase2,2020.2.10,Win32,60,,,,,,,,,0,94,94,61,1,stimuli/objects/jumpercables.jpg,left,old,205,,,,,,,,,,,,,,,
,,,,,,,,26,2021-11-19_09h36.32.052,premceCat2_ses-02_part-02_label-phase2,2020.2.10,Win32,60,,,,,left,1.5424,3,0.4239,,,,,,,,,,right,0.1985,0,0,0,0,1,,,,,,,,
,,,,,,,,26,2021-11-19_09h36.32.052,premceCat2_ses-02_part-02_label-phase2,2020.2.10,Win32,60,,,,,,,,,0,95,95,89,1,stimuli/objects/cleaver01.jpg,left,old,233,,,,,,,,,,,,,,,
,,,,,,,,26,2021-11-19_09h36.32.052,premceCat2_ses-02_part-02_label-phase2,2020.2.10,Win32,60,,,,,left,1.0968,4,0.3359,,,,,,,,,,left,0.4405,0,0,0,0,1,,,,,,,,
,,,,,,,,26,2021-11-19_09h36.32.052,premceCat2_ses-02_part-02_label-phase2,2020.2.10,Win32,60,,,,,,,,,0,96,96,64,1,stimuli/objects/surfboard.jpg,left,old,208,,,,,,,,,,,,,,,
,,,,,,,,26,2021-11-19_09h36.32.052,premceCat2_ses-02_part-02_label-phase2,2020.2.10,Win32,60,,,,,left,1.1388,4,0.3914,,,,,,,,,,left,0.2489,0,0,0,0,1,,,,,,,,
,,,,,,,,26,2021-11-19_09h36.32.052,premceCat2_ses-02_part-02_label-phase2,2020.2.10,Win32,60,,,,,,,,,0,97,97,119,1,stimuli/objects/muffintray01.jpg,left,old,263,,,,,,,,,,,,,,,
,,,,,,,,26,2021-11-19_09h36.32.052,premceCat2_ses-02_part-02_label-phase2,2020.2.10,Win32,60,,,,,left,1.0277,4,0.1515,,,,,,,,,,left,0.2288,0,0,0,0,1,,,,,,,,
,,,,,,,,26,2021-11-19_09h36.32.052,premceCat2_ses-02_part-02_label-phase2,2020.2.10,Win32,60,,,,,,,,,0,98,98,90,1,stimuli/objects/toyhockeystick01.jpg,left,old,234,,,,,,,,,,,,,,,
,,,,,,,,26,2021-11-19_09h36.32.052,premceCat2_ses-02_part-02_label-phase2,2020.2.10,Win32,60,,,,,left,0.9597,4,0.2206,,,,,,,,,,right,1.0917,0,0,0,0,1,,,,,,,,
,,,,,,,,26,2021-11-19_09h36.32.052,premceCat2_ses-02_part-02_label-phase2,2020.2.10,Win32,60,,,,,,,,,0,99,99,88,1,stimuli/objects/magneticcompass.jpg,left,old,232,,,,,,,,,,,,,,,
,,,,,,,,26,2021-11-19_09h36.32.052,premceCat2_ses-02_part-02_label-phase2,2020.2.10,Win32,60,,,,,right,1.8126,4,0.1494,0,100,100,123,1,stimuli/objects/jackhammer.jpg,right,new,267,,,,,,,,,,,,,,,
,,,,,,,,26,2021-11-19_09h36.32.052,premceCat2_ses-02_part-02_label-phase2,2020.2.10,Win32,60,,,,,right,0.7143,4,0.0325,0,101,101,121,1,stimuli/objects/parachute.jpg,right,new,265,,,,,,,,,,,,,,,
,,,,,,,,26,2021-11-19_09h36.32.052,premceCat2_ses-02_part-02_label-phase2,2020.2.10,Win32,60,,,,,right,0.9008,4,0.0333,0,102,102,41,1,stimuli/objects/flask.jpg,right,new,185,,,,,,,,,,,,,,,
,,,,,,,,26,2021-11-19_09h36.32.052,premceCat2_ses-02_part-02_label-phase2,2020.2.10,Win32,60,,,,,right,0.6383,4,0.0501,0,103,103,60,1,stimuli/objects/kite.jpg,right,new,204,,,,,,,,,,,,,,,
,,,,,,,,26,2021-11-19_09h36.32.052,premceCat2_ses-02_part-02_label-phase2,2020.2.10,Win32,60,,,,,left,0.9814,4,0.2586,,,,,,,,,,right,0.0713,0,0,0,0,1,,,,,,,,
,,,,,,,,26,2021-11-19_09h36.32.052,premceCat2_ses-02_part-02_label-phase2,2020.2.10,Win32,60,,,,,,,,,0,104,104,109,1,stimuli/objects/toothpick02.jpg,left,old,253,,,,,,,,,,,,,,,
,,,,,,,,26,2021-11-19_09h36.32.052,premceCat2_ses-02_part-02_label-phase2,2020.2.10,Win32,60,,,,,right,1.2913,2,0.2834,0,105,105,48,1,stimuli/objects/eggslicer.jpg,right,new,192,,,,,,,,,,,,,,,
,,,,,,,,26,2021-11-19_09h36.32.052,premceCat2_ses-02_part-02_label-phase2,2020.2.10,Win32,60,,,,,left,0.7848,4,0.2295,,,,,,,,,,left,0.1159,0,0,0,0,1,,,,,,,,
,,,,,,,,26,2021-11-19_09h36.32.052,premceCat2_ses-02_part-02_label-phase2,2020.2.10,Win32,60,,,,,,,,,0,106,106,85,1,stimuli/objects/filmnegative.jpg,left,old,229,,,,,,,,,,,,,,,
,,,,,,,,26,2021-11-19_09h36.32.052,premceCat2_ses-02_part-02_label-phase2,2020.2.10,Win32,60,,,,,right,1.0283,3,0.1199,0,107,107,131,1,stimuli/objects/handblender.jpg,right,new,275,,,,,,,,,,,,,,,
,,,,,,,,26,2021-11-19_09h36.32.052,premceCat2_ses-02_part-02_label-phase2,2020.2.10,Win32,60,,,,,right,0.9859,3,0.131,0,108,108,114,1,stimuli/objects/drinkshaker.jpg,right,new,258,,,,,,,,,,,,,,,
,,,,,,,,26,2021-11-19_09h36.32.052,premceCat2_ses-02_part-02_label-phase2,2020.2.10,Win32,60,,,,,right,0.6428,1,0.9314,0,109,109,115,1,stimuli/objects/tray.jpg,left,old,259,,,,,,,,,,,,,,,
,,,,,,,,26,2021-11-19_09h36.32.052,premceCat2_ses-02_part-02_label-phase2,2020.2.10,Win32,60,,,,,left,1.3126,3,0.7195,,,,,,,,,,right,0.9968,0,0,0,0,1,,,,,,,,
,,,,,,,,26,2021-11-19_09h36.32.052,premceCat2_ses-02_part-02_label-phase2,2020.2.10,Win32,60,,,,,,,,,0,110,110,118,1,stimuli/objects/pliers02b.jpg,left,old,262,,,,,,,,,,,,,,,
,,,,,,,,26,2021-11-19_09h36.32.052,premceCat2_ses-02_part-02_label-phase2,2020.2.10,Win32,60,,,,,left,1.4489,1,0.3038,,,,,,,,,,right,0.4944,0,0,0,0,1,,,,,,,,
,,,,,,,,26,2021-11-19_09h36.32.052,premceCat2_ses-02_part-02_label-phase2,2020.2.10,Win32,60,,,,,,,,,0,111,111,91,1,stimuli/objects/cuttingpliers02.jpg,right,new,235,,,,,,,,,,,,,,,
,,,,,,,,26,2021-11-19_09h36.32.052,premceCat2_ses-02_part-02_label-phase2,2020.2.10,Win32,60,,,,,right,0.9805,4,0.1151,0,112,112,107,1,stimuli/objects/dolly01.jpg,right,new,251,,,,,,,,,,,,,,,
,,,,,,,,26,2021-11-19_09h36.32.052,premceCat2_ses-02_part-02_label-phase2,2020.2.10,Win32,60,,,,,left,1.0051,3,0.6185,,,,,,,,,,right,0.0702,0,0,0,0,1,,,,,,,,
,,,,,,,,26,2021-11-19_09h36.32.052,premceCat2_ses-02_part-02_label-phase2,2020.2.10,Win32,60,,,,,,,,,0,113,113,130,1,stimuli/objects/fuse.jpg,left,old,274,,,,,,,,,,,,,,,
,,,,,,,,26,2021-11-19_09h36.32.052,premceCat2_ses-02_part-02_label-phase2,2020.2.10,Win32,60,,,,,left,1.3415,3,0.1605,,,,,,,,,,left,0.3718,0,0,0,0,1,,,,,,,,
,,,,,,,,26,2021-11-19_09h36.32.052,premceCat2_ses-02_part-02_label-phase2,2020.2.10,Win32,60,,,,,,,,,0,114,114,62,1,stimuli/objects/pot01.jpg,left,old,206,,,,,,,,,,,,,,,
,,,,,,,,26,2021-11-19_09h36.32.052,premceCat2_ses-02_part-02_label-phase2,2020.2.10,Win32,60,,,,,left,1.3159,3,0.1687,,,,,,,,,,right,0.1513,0,0,0,0,1,,,,,,,,
,,,,,,,,26,2021-11-19_09h36.32.052,premceCat2_ses-02_part-02_label-phase2,2020.2.10,Win32,60,,,,,,,,,0,115,115,11,1,stimuli/objects/vhstape.jpg,left,old,155,,,,,,,,,,,,,,,
,,,,,,,,26,2021-11-19_09h36.32.052,premceCat2_ses-02_part-02_label-phase2,2020.2.10,Win32,60,,,,,right,1.0371,4,0.0142,0,116,116,44,1,stimuli/objects/toaster01.jpg,right,new,188,,,,,,,,,,,,,,,
,,,,,,,,26,2021-11-19_09h36.32.052,premceCat2_ses-02_part-02_label-phase2,2020.2.10,Win32,60,,,,,left,0.8132,3,0.0377,,,,,,,,,,left,0.0213,0,0,0,0,1,,,,,,,,
,,,,,,,,26,2021-11-19_09h36.32.052,premceCat2_ses-02_part-02_label-phase2,2020.2.10,Win32,60,,,,,,,,,0,117,117,13,1,stimuli/objects/bungeecord02.jpg,left,old,157,,,,,,,,,,,,,,,
,,,,,,,,26,2021-11-19_09h36.32.052,premceCat2_ses-02_part-02_label-phase2,2020.2.10,Win32,60,,,,,left,1.3242,3,0.1933,,,,,,,,,,left,0.0669,0,0,0,0,1,,,,,,,,
,,,,,,,,26,2021-11-19_09h36.32.052,premceCat2_ses-02_part-02_label-phase2,2020.2.10,Win32,60,,,,,,,,,0,118,118,23,1,stimuli/objects/snowboard.jpg,left,old,167,,,,,,,,,,,,,,,
,,,,,,,,26,2021-11-19_09h36.32.052,premceCat2_ses-02_part-02_label-phase2,2020.2.10,Win32,60,,,,,left,1.0783,4,0.0789,,,,,,,,,,left,0.1105,0,0,0,0,1,,,,,,,,
,,,,,,,,26,2021-11-19_09h36.32.052,premceCat2_ses-02_part-02_label-phase2,2020.2.10,Win32,60,,,,,,,,,0,119,119,117,1,stimuli/objects/poolnet.jpg,left,old,261,,,,,,,,,,,,,,,
,,,,,,,,26,2021-11-19_09h36.32.052,premceCat2_ses-02_part-02_label-phase2,2020.2.10,Win32,60,,,,,right,1.3317,3,0.2211,0,120,120,135,1,stimuli/objects/mortarandpestle.jpg,right,new,279,,,,,,,,,,,,,,,
,,,,,,,,26,2021-11-19_09h36.32.052,premceCat2_ses-02_part-02_label-phase2,2020.2.10,Win32,60,,,,,left,0.9376,4,0.3174,,,,,,,,,,right,0.12,0,0,0,0,1,,,,,,,,
,,,,,,,,26,2021-11-19_09h36.32.052,premceCat2_ses-02_part-02_label-phase2,2020.2.10,Win32,60,,,,,,,,,0,121,121,56,1,stimuli/objects/thermos.jpg,left,old,200,,,,,,,,,,,,,,,
,,,,,,,,26,2021-11-19_09h36.32.052,premceCat2_ses-02_part-02_label-phase2,2020.2.10,Win32,60,,,,,left,2.6914,2,0.2149,,,,,,,,,,left,0.8271,0,0,0,0,1,,,,,,,,
,,,,,,,,26,2021-11-19_09h36.32.052,premceCat2_ses-02_part-02_label-phase2,2020.2.10,Win32,60,,,,,,,,,0,122,122,47,1,stimuli/objects/plate01b.jpg,right,new,191,,,,,,,,,,,,,,,
,,,,,,,,26,2021-11-19_09h36.32.052,premceCat2_ses-02_part-02_label-phase2,2020.2.10,Win32,60,,,,,right,0.8449,3,0.3228,0,123,123,46,1,stimuli/objects/waterbottleholder.jpg,right,new,190,,,,,,,,,,,,,,,
,,,,,,,,26,2021-11-19_09h36.32.052,premceCat2_ses-02_part-02_label-phase2,2020.2.10,Win32,60,,,,,left,1.3081,2,0.0007,,,,,,,,,,left,0.531,0,0,0,0,1,,,,,,,,
,,,,,,,,26,2021-11-19_09h36.32.052,premceCat2_ses-02_part-02_label-phase2,2020.2.10,Win32,60,,,,,,,,,0,124,124,68,1,stimuli/objects/ladle02a.jpg,right,new,212,,,,,,,,,,,,,,,
,,,,,,,,26,2021-11-19_09h36.32.052,premceCat2_ses-02_part-02_label-phase2,2020.2.10,Win32,60,,,,,right,0.4669,4,0.5016,0,125,125,95,1,stimuli/objects/tennisball01b.jpg,right,new,239,,,,,,,,,,,,,,,
,,,,,,,,26,2021-11-19_09h36.32.052,premceCat2_ses-02_part-02_label-phase2,2020.2.10,Win32,60,,,,,left,0.7933,3,0.4648,,,,,,,,,,right,0.263,0,0,0,0,1,,,,,,,,
,,,,,,,,26,2021-11-19_09h36.32.052,premceCat2_ses-02_part-02_label-phase2,2020.2.10,Win32,60,,,,,,,,,0,126,126,43,1,stimuli/objects/bowrake.jpg,right,new,187,,,,,,,,,,,,,,,
,,,,,,,,26,2021-11-19_09h36.32.052,premceCat2_ses-02_part-02_label-phase2,2020.2.10,Win32,60,,,,,right,1.1105,4,0.0328,0,127,127,102,1,stimuli/objects/beachumbrella01.jpg,right,new,246,,,,,,,,,,,,,,,
,,,,,,,,26,2021-11-19_09h36.32.052,premceCat2_ses-02_part-02_label-phase2,2020.2.10,Win32,60,,,,,left,1.0099,3,0.1668,,,,,,,,,,left,1.0251,0,0,0,0,1,,,,,,,,
,,,,,,,,26,2021-11-19_09h36.32.052,premceCat2_ses-02_part-02_label-phase2,2020.2.10,Win32,60,,,,,,,,,0,128,128,72,1,stimuli/objects/wheel01.jpg,left,old,216,,,,,,,,,,,,,,,
,,,,,,,,26,2021-11-19_09h36.32.052,premceCat2_ses-02_part-02_label-phase2,2020.2.10,Win32,60,,,,,right,0.8417,3,0.4746,0,129,129,111,1,stimuli/objects/diaperbag.jpg,right,new,255,,,,,,,,,,,,,,,
,,,,,,,,26,2021-11-19_09h36.32.052,premceCat2_ses-02_part-02_label-phase2,2020.2.10,Win32,60,,,,,left,0.8733,3,0.7985,,,,,,,,,,left,0.3871,0,0,0,0,1,,,,,,,,
,,,,,,,,26,2021-11-19_09h36.32.052,premceCat2_ses-02_part-02_label-phase2,2020.2.10,Win32,60,,,,,,,,,0,130,130,58,1,stimuli/objects/volleyball.jpg,left,old,202,,,,,,,,,,,,,,,
,,,,,,,,26,2021-11-19_09h36.32.052,premceCat2_ses-02_part-02_label-phase2,2020.2.10,Win32,60,,,,,left,0.8805,3,0.18,,,,,,,,,,right,0.1868,0,0,0,0,1,,,,,,,,
,,,,,,,,26,2021-11-19_09h36.32.052,premceCat2_ses-02_part-02_label-phase2,2020.2.10,Win32,60,,,,,,,,,0,131,131,97,1,stimuli/objects/tupperware03a.jpg,left,old,241,,,,,,,,,,,,,,,
,,,,,,,,26,2021-11-19_09h36.32.052,premceCat2_ses-02_part-02_label-phase2,2020.2.10,Win32,60,,,,,right,0.8604,1,1.3807,0,132,132,37,1,stimuli/objects/computerkeyboard02.jpg,left,old,181,,,,,,,,,,,,,,,
,,,,,,,,26,2021-11-19_09h36.32.052,premceCat2_ses-02_part-02_label-phase2,2020.2.10,Win32,60,,,,,left,0.7452,4,0.0805,,,,,,,,,,right,0.1265,0,0,0,0,1,,,,,,,,
,,,,,,,,26,2021-11-19_09h36.32.052,premceCat2_ses-02_part-02_label-phase2,2020.2.10,Win32,60,,,,,,,,,0,133,133,29,1,stimuli/objects/chandelier.jpg,left,old,173,,,,,,,,,,,,,,,
,,,,,,,,26,2021-11-19_09h36.32.052,premceCat2_ses-02_part-02_label-phase2,2020.2.10,Win32,60,,,,,left,3.6155,1,0.1807,,,,,,,,,,left,0.4747,0,0,0,0,1,,,,,,,,
,,,,,,,,26,2021-11-19_09h36.32.052,premceCat2_ses-02_part-02_label-phase2,2020.2.10,Win32,60,,,,,,,,,0,134,134,108,1,stimuli/objects/telephone01b.jpg,left,old,252,,,,,,,,,,,,,,,
,,,,,,,,26,2021-11-19_09h36.32.052,premceCat2_ses-02_part-02_label-phase2,2020.2.10,Win32,60,,,,,right,0.7506,1,0.5101,0,135,135,26,1,stimuli/objects/flashlight02b.jpg,right,new,170,,,,,,,,,,,,,,,
,,,,,,,,26,2021-11-19_09h36.32.052,premceCat2_ses-02_part-02_label-phase2,2020.2.10,Win32,60,,,,,right,0.9194,2,0.0673,0,136,136,39,1,stimuli/objects/wafflemaker.jpg,right,new,183,,,,,,,,,,,,,,,
,,,,,,,,26,2021-11-19_09h36.32.052,premceCat2_ses-02_part-02_label-phase2,2020.2.10,Win32,60,,,,,left,1.3969,4,0.0991,,,,,,,,,,right,0.1121,0,0,0,0,1,,,,,,,,
,,,,,,,,26,2021-11-19_09h36.32.052,premceCat2_ses-02_part-02_label-phase2,2020.2.10,Win32,60,,,,,,,,,0,137,137,1,1,stimuli/objects/crocodileclips.jpg,left,old,145,,,,,,,,,,,,,,,
,,,,,,,,26,2021-11-19_09h36.32.052,premceCat2_ses-02_part-02_label-phase2,2020.2.10,Win32,60,,,,,left,1.4617,4,0.016,,,,,,,,,,left,0.1011,0,0,0,0,1,,,,,,,,
,,,,,,,,26,2021-11-19_09h36.32.052,premceCat2_ses-02_part-02_label-phase2,2020.2.10,Win32,60,,,,,,,,,0,138,138,92,1,stimuli/objects/snowshovel.jpg,left,old,236,,,,,,,,,,,,,,,
,,,,,,,,26,2021-11-19_09h36.32.052,premceCat2_ses-02_part-02_label-phase2,2020.2.10,Win32,60,,,,,right,0.9081,1,0.2642,0,139,139,78,1,stimuli/objects/lightswitch01.jpg,right,new,222,,,,,,,,,,,,,,,
,,,,,,,,26,2021-11-19_09h36.32.052,premceCat2_ses-02_part-02_label-phase2,2020.2.10,Win32,60,,,,,left,1.5164,4,0.0973,,,,,,,,,,right,0.0317,0,0,0,0,1,,,,,,,,
,,,,,,,,26,2021-11-19_09h36.32.052,premceCat2_ses-02_part-02_label-phase2,2020.2.10,Win32,60,,,,,,,,,0,140,140,134,1,stimuli/objects/carantenna.jpg,left,old,278,,,,,,,,,,,,,,,
,,,,,,,,26,2021-11-19_09h36.32.052,premceCat2_ses-02_part-02_label-phase2,2020.2.10,Win32,60,,,,,right,1.0163,2,0.341,0,141,141,55,1,stimuli/objects/fonduefork01.jpg,right,new,199,,,,,,,,,,,,,,,
,,,,,,,,26,2021-11-19_09h36.32.052,premceCat2_ses-02_part-02_label-phase2,2020.2.10,Win32,60,,,,,right,0.7757,4,0.1604,0,142,142,24,1,stimuli/objects/monitor.jpg,right,new,168,,,,,,,,,,,,,,,
,,,,,,,,26,2021-11-19_09h36.32.052,premceCat2_ses-02_part-02_label-phase2,2020.2.10,Win32,60,,,,,,,,,,,,,,,,,,,,,,,,,space,4.0769,0,1,1,1,1,condition_files/ImagesforRecog3_2.csv
