instructions_loop.thisRepN,instructions_loop.thisTrialN,instructions_loop.thisN,instructions_loop.thisIndex,instructions_loop.ran,text1,text2,text3,participant,date,expName,psychopyVersion,OS,frameRate,key_resp_2.keys,key_resp_2.rt,key_resp_3.keys,key_resp_3.rt,recog_resp.keys,recog_resp.rt,conf_resp.keys,conf_resp.rt,recog_loop.thisRepN,recog_loop.thisTrialN,recog_loop.thisN,recog_loop.thisIndex,recog_loop.ran,images,corr_ans,type,order,resp_assoc.keys,resp_assoc.rt,assoc_loop.thisRepN,assoc_loop.thisTrialN,assoc_loop.thisN,assoc_loop.thisIndex,assoc_loop.ran,key_resp_break.keys,key_resp_break.rt,list_loop.thisRepN,list_loop.thisTrialN,list_loop.thisN,list_loop.thisIndex,list_loop.ran,recog_list
0,0,0,0,1,Welcome to the last phase of this experiment!,.,Please press the space bar to continue,27,2021-11-29_18h04.23.160,premceCat2_ses-02_part-02_label-phase2,2020.2.10,MacIntel,60,,,,,,,,,,,,,,,,,,,,,,,,,,,,,,,,
0,1,1,1,1,.,"In this phase, you will see some objects. 

For each object, you should indicate whether you have seen it before during the experiment.

Press LEFT ARROW for YES
Press RIGHT ARROW for NO

",Please press the space bar to continue ,27,2021-11-29_18h04.23.160,premceCat2_ses-02_part-02_label-phase2,2020.2.10,MacIntel,60,,,,,,,,,,,,,,,,,,,,,,,,,,,,,,,,
0,2,2,2,1,.,"After that, you will be asked how confident you are of your choice.

Please rate the confidence in your choice with the numbers from 1 to 4 of your keyboard. 

The numbers correspond to:

1 = Very unsure
2 = Unsure
3 = Sure
4 = Very Sure",Please press the space bar to continue,27,2021-11-29_18h04.23.160,premceCat2_ses-02_part-02_label-phase2,2020.2.10,MacIntel,60,,,,,,,,,,,,,,,,,,,,,,,,,,,,,,,,
,,,,,,,,27,2021-11-29_18h04.23.160,premceCat2_ses-02_part-02_label-phase2,2020.2.10,MacIntel,60,space,4.509,space,2.4311,right,5.1798,2,3.312,0,0,0,91,1,stimuli/objects/chainsaw.jpg,left,old,92,,,,,,,,,,,,,,,
,,,,,,,,27,2021-11-29_18h04.23.160,premceCat2_ses-02_part-02_label-phase2,2020.2.10,MacIntel,60,,,,,right,5.9529,3,2.3315,0,1,1,17,1,stimuli/objects/exercisebench.jpg,right,new,18,,,,,,,,,,,,,,,
,,,,,,,,27,2021-11-29_18h04.23.160,premceCat2_ses-02_part-02_label-phase2,2020.2.10,MacIntel,60,,,,,right,3.4219,2,2.4672,0,2,2,106,1,stimuli/objects/minifridge.jpg,right,new,107,,,,,,,,,,,,,,,
,,,,,,,,27,2021-11-29_18h04.23.160,premceCat2_ses-02_part-02_label-phase2,2020.2.10,MacIntel,60,,,,,right,5.0305,4,0.6646,0,3,3,126,1,stimuli/objects/tableknife02.jpg,right,new,127,,,,,,,,,,,,,,,
,,,,,,,,27,2021-11-29_18h04.23.160,premceCat2_ses-02_part-02_label-phase2,2020.2.10,MacIntel,60,,,,,left,3.1309,4,0.7658,,,,,,,,,,right,4.8872,0,0,0,0,1,,,,,,,,
,,,,,,,,27,2021-11-29_18h04.23.160,premceCat2_ses-02_part-02_label-phase2,2020.2.10,MacIntel,60,,,,,,,,,0,4,4,31,1,stimuli/objects/mallet01b.jpg,left,old,32,,,,,,,,,,,,,,,
,,,,,,,,27,2021-11-29_18h04.23.160,premceCat2_ses-02_part-02_label-phase2,2020.2.10,MacIntel,60,,,,,left,2.5078,4,1.5982,,,,,,,,,,left,1.2002,0,0,0,0,1,,,,,,,,
,,,,,,,,27,2021-11-29_18h04.23.160,premceCat2_ses-02_part-02_label-phase2,2020.2.10,MacIntel,60,,,,,,,,,0,5,5,98,1,stimuli/objects/handgripper.jpg,left,old,99,,,,,,,,,,,,,,,
,,,,,,,,27,2021-11-29_18h04.23.160,premceCat2_ses-02_part-02_label-phase2,2020.2.10,MacIntel,60,,,,,right,2.8216,3,1.0552,0,6,6,21,1,stimuli/objects/paintbrush01.jpg,right,new,22,,,,,,,,,,,,,,,
,,,,,,,,27,2021-11-29_18h04.23.160,premceCat2_ses-02_part-02_label-phase2,2020.2.10,MacIntel,60,,,,,right,2.7224,4,0.941,0,7,7,125,1,stimuli/objects/shoulderpad.jpg,right,new,126,,,,,,,,,,,,,,,
,,,,,,,,27,2021-11-29_18h04.23.160,premceCat2_ses-02_part-02_label-phase2,2020.2.10,MacIntel,60,,,,,right,2.6727,3,1.7784,0,8,8,20,1,stimuli/objects/laptop01a.jpg,right,new,21,,,,,,,,,,,,,,,
,,,,,,,,27,2021-11-29_18h04.23.160,premceCat2_ses-02_part-02_label-phase2,2020.2.10,MacIntel,60,,,,,left,2.0555,4,0.7775,,,,,,,,,,right,1.4154,0,0,0,0,1,,,,,,,,
,,,,,,,,27,2021-11-29_18h04.23.160,premceCat2_ses-02_part-02_label-phase2,2020.2.10,MacIntel,60,,,,,,,,,0,9,9,7,1,stimuli/objects/puttyknife.jpg,left,old,8,,,,,,,,,,,,,,,
,,,,,,,,27,2021-11-29_18h04.23.160,premceCat2_ses-02_part-02_label-phase2,2020.2.10,MacIntel,60,,,,,left,1.9316,4,0.7589,,,,,,,,,,left,4.9845,0,0,0,0,1,,,,,,,,
,,,,,,,,27,2021-11-29_18h04.23.160,premceCat2_ses-02_part-02_label-phase2,2020.2.10,MacIntel,60,,,,,,,,,0,10,10,129,1,stimuli/objects/cleaver01.jpg,left,old,130,,,,,,,,,,,,,,,
,,,,,,,,27,2021-11-29_18h04.23.160,premceCat2_ses-02_part-02_label-phase2,2020.2.10,MacIntel,60,,,,,right,4.8647,2,1.1643,0,11,11,33,1,stimuli/objects/microwave.jpg,right,new,34,,,,,,,,,,,,,,,
,,,,,,,,27,2021-11-29_18h04.23.160,premceCat2_ses-02_part-02_label-phase2,2020.2.10,MacIntel,60,,,,,left,4.9345,3,2.4017,,,,,,,,,,left,4.6656,0,0,0,0,1,,,,,,,,
,,,,,,,,27,2021-11-29_18h04.23.160,premceCat2_ses-02_part-02_label-phase2,2020.2.10,MacIntel,60,,,,,,,,,0,12,12,8,1,stimuli/objects/basketballhoop01.jpg,right,new,9,,,,,,,,,,,,,,,
,,,,,,,,27,2021-11-29_18h04.23.160,premceCat2_ses-02_part-02_label-phase2,2020.2.10,MacIntel,60,,,,,right,2.2972,4,0.5377,0,13,13,139,1,stimuli/objects/frisbee.jpg,right,new,140,,,,,,,,,,,,,,,
,,,,,,,,27,2021-11-29_18h04.23.160,premceCat2_ses-02_part-02_label-phase2,2020.2.10,MacIntel,60,,,,,left,2.0149,4,0.9829,,,,,,,,,,right,1.3453,0,0,0,0,1,,,,,,,,
,,,,,,,,27,2021-11-29_18h04.23.160,premceCat2_ses-02_part-02_label-phase2,2020.2.10,MacIntel,60,,,,,,,,,0,14,14,78,1,stimuli/objects/tupperware03a.jpg,left,old,79,,,,,,,,,,,,,,,
,,,,,,,,27,2021-11-29_18h04.23.160,premceCat2_ses-02_part-02_label-phase2,2020.2.10,MacIntel,60,,,,,right,2.7001,3,1.916,0,15,15,138,1,stimuli/objects/taperecorder.jpg,right,new,139,,,,,,,,,,,,,,,
,,,,,,,,27,2021-11-29_18h04.23.160,premceCat2_ses-02_part-02_label-phase2,2020.2.10,MacIntel,60,,,,,right,4.771,3,1.2586,0,16,16,60,1,stimuli/objects/glass02a.jpg,right,new,61,,,,,,,,,,,,,,,
,,,,,,,,27,2021-11-29_18h04.23.160,premceCat2_ses-02_part-02_label-phase2,2020.2.10,MacIntel,60,,,,,left,2.2446,3,1.8158,,,,,,,,,,right,2.2632,0,0,0,0,1,,,,,,,,
,,,,,,,,27,2021-11-29_18h04.23.160,premceCat2_ses-02_part-02_label-phase2,2020.2.10,MacIntel,60,,,,,,,,,0,17,17,9,1,stimuli/objects/measuringtape01.jpg,right,new,10,,,,,,,,,,,,,,,
,,,,,,,,27,2021-11-29_18h04.23.160,premceCat2_ses-02_part-02_label-phase2,2020.2.10,MacIntel,60,,,,,right,2.3165,4,1.373,0,18,18,76,1,stimuli/objects/megaphone.jpg,right,new,77,,,,,,,,,,,,,,,
,,,,,,,,27,2021-11-29_18h04.23.160,premceCat2_ses-02_part-02_label-phase2,2020.2.10,MacIntel,60,,,,,left,2.4875,3,1.1216,,,,,,,,,,right,4.2697,0,0,0,0,1,,,,,,,,
,,,,,,,,27,2021-11-29_18h04.23.160,premceCat2_ses-02_part-02_label-phase2,2020.2.10,MacIntel,60,,,,,,,,,0,19,19,105,1,stimuli/objects/videocamera01a.jpg,left,old,106,,,,,,,,,,,,,,,
,,,,,,,,27,2021-11-29_18h04.23.160,premceCat2_ses-02_part-02_label-phase2,2020.2.10,MacIntel,60,,,,,right,1.7544,4,0.9573,0,20,20,131,1,stimuli/objects/spotlight.jpg,right,new,132,,,,,,,,,,,,,,,
,,,,,,,,27,2021-11-29_18h04.23.160,premceCat2_ses-02_part-02_label-phase2,2020.2.10,MacIntel,60,,,,,right,3.1223,3,1.2131,0,21,21,53,1,stimuli/objects/binoculars01b.jpg,right,new,54,,,,,,,,,,,,,,,
,,,,,,,,27,2021-11-29_18h04.23.160,premceCat2_ses-02_part-02_label-phase2,2020.2.10,MacIntel,60,,,,,right,2.2696,4,0.5309,0,22,22,39,1,stimuli/objects/sippycup.jpg,right,new,40,,,,,,,,,,,,,,,
,,,,,,,,27,2021-11-29_18h04.23.160,premceCat2_ses-02_part-02_label-phase2,2020.2.10,MacIntel,60,,,,,right,2.0739,4,0.0489,0,23,23,108,1,stimuli/objects/metalscissors.jpg,right,new,109,,,,,,,,,,,,,,,
,,,,,,,,27,2021-11-29_18h04.23.160,premceCat2_ses-02_part-02_label-phase2,2020.2.10,MacIntel,60,,,,,right,1.9805,4,0.8821,0,24,24,90,1,stimuli/objects/carlighter02.jpg,right,new,91,,,,,,,,,,,,,,,
,,,,,,,,27,2021-11-29_18h04.23.160,premceCat2_ses-02_part-02_label-phase2,2020.2.10,MacIntel,60,,,,,right,1.5533,4,0.2874,0,25,25,86,1,stimuli/objects/toasteroven.jpg,right,new,87,,,,,,,,,,,,,,,
,,,,,,,,27,2021-11-29_18h04.23.160,premceCat2_ses-02_part-02_label-phase2,2020.2.10,MacIntel,60,,,,,right,2.6263,3,1.5188,0,26,26,50,1,stimuli/objects/chisel02b.jpg,right,new,51,,,,,,,,,,,,,,,
,,,,,,,,27,2021-11-29_18h04.23.160,premceCat2_ses-02_part-02_label-phase2,2020.2.10,MacIntel,60,,,,,left,2.1046,4,0.3428,,,,,,,,,,left,1.2076,0,0,0,0,1,,,,,,,,
,,,,,,,,27,2021-11-29_18h04.23.160,premceCat2_ses-02_part-02_label-phase2,2020.2.10,MacIntel,60,,,,,,,,,0,27,27,130,1,stimuli/objects/soccerball.jpg,left,old,131,,,,,,,,,,,,,,,
,,,,,,,,27,2021-11-29_18h04.23.160,premceCat2_ses-02_part-02_label-phase2,2020.2.10,MacIntel,60,,,,,left,2.2512,4,0.5337,,,,,,,,,,left,4.1328,0,0,0,0,1,,,,,,,,
,,,,,,,,27,2021-11-29_18h04.23.160,premceCat2_ses-02_part-02_label-phase2,2020.2.10,MacIntel,60,,,,,,,,,0,28,28,120,1,stimuli/objects/pot01.jpg,left,old,121,,,,,,,,,,,,,,,
,,,,,,,,27,2021-11-29_18h04.23.160,premceCat2_ses-02_part-02_label-phase2,2020.2.10,MacIntel,60,,,,,right,4.2499,3,1.3192,0,29,29,66,1,stimuli/objects/nailgun.jpg,right,new,67,,,,,,,,,,,,,,,
,,,,,,,,27,2021-11-29_18h04.23.160,premceCat2_ses-02_part-02_label-phase2,2020.2.10,MacIntel,60,,,,,right,1.6247,4,0.3918,0,30,30,54,1,stimuli/objects/pda.jpg,right,new,55,,,,,,,,,,,,,,,
,,,,,,,,27,2021-11-29_18h04.23.160,premceCat2_ses-02_part-02_label-phase2,2020.2.10,MacIntel,60,,,,,right,2.2537,4,0.0004,0,31,31,113,1,stimuli/objects/powercable.jpg,right,new,114,,,,,,,,,,,,,,,
,,,,,,,,27,2021-11-29_18h04.23.160,premceCat2_ses-02_part-02_label-phase2,2020.2.10,MacIntel,60,,,,,left,2.5435,4,0.4497,,,,,,,,,,left,0.5775,0,0,0,0,1,,,,,,,,
,,,,,,,,27,2021-11-29_18h04.23.160,premceCat2_ses-02_part-02_label-phase2,2020.2.10,MacIntel,60,,,,,,,,,0,32,32,74,1,stimuli/objects/toyhockeystick01.jpg,left,old,75,,,,,,,,,,,,,,,
,,,,,,,,27,2021-11-29_18h04.23.160,premceCat2_ses-02_part-02_label-phase2,2020.2.10,MacIntel,60,,,,,left,2.1184,4,0.3735,,,,,,,,,,right,0.6827,0,0,0,0,1,,,,,,,,
,,,,,,,,27,2021-11-29_18h04.23.160,premceCat2_ses-02_part-02_label-phase2,2020.2.10,MacIntel,60,,,,,,,,,0,33,33,2,1,stimuli/objects/filmnegative.jpg,left,old,3,,,,,,,,,,,,,,,
,,,,,,,,27,2021-11-29_18h04.23.160,premceCat2_ses-02_part-02_label-phase2,2020.2.10,MacIntel,60,,,,,left,2.7561,4,1.8866,,,,,,,,,,left,1.5801,0,0,0,0,1,,,,,,,,
,,,,,,,,27,2021-11-29_18h04.23.160,premceCat2_ses-02_part-02_label-phase2,2020.2.10,MacIntel,60,,,,,,,,,0,34,34,118,1,stimuli/objects/sledgehammer.jpg,left,old,119,,,,,,,,,,,,,,,
,,,,,,,,27,2021-11-29_18h04.23.160,premceCat2_ses-02_part-02_label-phase2,2020.2.10,MacIntel,60,,,,,right,2.4861,2,0.5954,0,35,35,72,1,stimuli/objects/cclamp.jpg,right,new,73,,,,,,,,,,,,,,,
,,,,,,,,27,2021-11-29_18h04.23.160,premceCat2_ses-02_part-02_label-phase2,2020.2.10,MacIntel,60,,,,,right,2.6244,4,0.3323,0,36,36,128,1,stimuli/objects/tripod01.jpg,right,new,129,,,,,,,,,,,,,,,
,,,,,,,,27,2021-11-29_18h04.23.160,premceCat2_ses-02_part-02_label-phase2,2020.2.10,MacIntel,60,,,,,left,1.9272,4,0.4475,,,,,,,,,,left,0.4722,0,0,0,0,1,,,,,,,,
,,,,,,,,27,2021-11-29_18h04.23.160,premceCat2_ses-02_part-02_label-phase2,2020.2.10,MacIntel,60,,,,,,,,,0,37,37,34,1,stimuli/objects/hockeygoaliemask.jpg,left,old,35,,,,,,,,,,,,,,,
,,,,,,,,27,2021-11-29_18h04.23.160,premceCat2_ses-02_part-02_label-phase2,2020.2.10,MacIntel,60,,,,,right,1.6838,3,2.2499,0,38,38,110,1,stimuli/objects/lock03a.jpg,right,new,111,,,,,,,,,,,,,,,
,,,,,,,,27,2021-11-29_18h04.23.160,premceCat2_ses-02_part-02_label-phase2,2020.2.10,MacIntel,60,,,,,right,1.6832,4,1.2001,0,39,39,32,1,stimuli/objects/mitresaw.jpg,right,new,33,,,,,,,,,,,,,,,
,,,,,,,,27,2021-11-29_18h04.23.160,premceCat2_ses-02_part-02_label-phase2,2020.2.10,MacIntel,60,,,,,left,2.7154,3,0.816,,,,,,,,,,left,0.75,0,0,0,0,1,,,,,,,,
,,,,,,,,27,2021-11-29_18h04.23.160,premceCat2_ses-02_part-02_label-phase2,2020.2.10,MacIntel,60,,,,,,,,,0,40,40,49,1,stimuli/objects/volleyball.jpg,left,old,50,,,,,,,,,,,,,,,
,,,,,,,,27,2021-11-29_18h04.23.160,premceCat2_ses-02_part-02_label-phase2,2020.2.10,MacIntel,60,,,,,right,1.5945,3,0.4144,0,41,41,30,1,stimuli/objects/printer02.jpg,right,new,31,,,,,,,,,,,,,,,
,,,,,,,,27,2021-11-29_18h04.23.160,premceCat2_ses-02_part-02_label-phase2,2020.2.10,MacIntel,60,,,,,right,2.0442,4,0.4982,0,42,42,75,1,stimuli/objects/stepladder.jpg,right,new,76,,,,,,,,,,,,,,,
,,,,,,,,27,2021-11-29_18h04.23.160,premceCat2_ses-02_part-02_label-phase2,2020.2.10,MacIntel,60,,,,,right,3.8471,2,0.3834,0,43,43,109,1,stimuli/objects/winerack.jpg,right,new,110,,,,,,,,,,,,,,,
,,,,,,,,27,2021-11-29_18h04.23.160,premceCat2_ses-02_part-02_label-phase2,2020.2.10,MacIntel,60,,,,,right,3.7517,2,0.3523,0,44,44,88,1,stimuli/objects/measuringcup01.jpg,left,old,89,,,,,,,,,,,,,,,
,,,,,,,,27,2021-11-29_18h04.23.160,premceCat2_ses-02_part-02_label-phase2,2020.2.10,MacIntel,60,,,,,right,3.4019,1,2.4012,0,45,45,47,1,stimuli/objects/hoe.jpg,left,old,48,,,,,,,,,,,,,,,
,,,,,,,,27,2021-11-29_18h04.23.160,premceCat2_ses-02_part-02_label-phase2,2020.2.10,MacIntel,60,,,,,right,1.9314,3,0.2984,0,46,46,13,1,stimuli/objects/bastingbrush.jpg,right,new,14,,,,,,,,,,,,,,,
,,,,,,,,27,2021-11-29_18h04.23.160,premceCat2_ses-02_part-02_label-phase2,2020.2.10,MacIntel,60,,,,,left,2.7837,4,1.9966,,,,,,,,,,left,0.5052,0,0,0,0,1,,,,,,,,
,,,,,,,,27,2021-11-29_18h04.23.160,premceCat2_ses-02_part-02_label-phase2,2020.2.10,MacIntel,60,,,,,,,,,0,47,47,137,1,stimuli/objects/exercisebike.jpg,left,old,138,,,,,,,,,,,,,,,
,,,,,,,,27,2021-11-29_18h04.23.160,premceCat2_ses-02_part-02_label-phase2,2020.2.10,MacIntel,60,,,,,left,2.5995,4,0.5143,,,,,,,,,,right,1.6755,0,0,0,0,1,,,,,,,,
,,,,,,,,27,2021-11-29_18h04.23.160,premceCat2_ses-02_part-02_label-phase2,2020.2.10,MacIntel,60,,,,,,,,,0,48,48,5,1,stimuli/objects/fan.jpg,left,old,6,,,,,,,,,,,,,,,
,,,,,,,,27,2021-11-29_18h04.23.160,premceCat2_ses-02_part-02_label-phase2,2020.2.10,MacIntel,60,,,,,left,2.2977,4,0.3707,,,,,,,,,,right,0.4168,0,0,0,0,1,,,,,,,,
,,,,,,,,27,2021-11-29_18h04.23.160,premceCat2_ses-02_part-02_label-phase2,2020.2.10,MacIntel,60,,,,,,,,,0,49,49,101,1,stimuli/objects/chandelier.jpg,left,old,102,,,,,,,,,,,,,,,
,,,,,,,,27,2021-11-29_18h04.23.160,premceCat2_ses-02_part-02_label-phase2,2020.2.10,MacIntel,60,,,,,right,1.8067,4,0.5189,0,50,50,4,1,stimuli/objects/microphone01.jpg,right,new,5,,,,,,,,,,,,,,,
,,,,,,,,27,2021-11-29_18h04.23.160,premceCat2_ses-02_part-02_label-phase2,2020.2.10,MacIntel,60,,,,,right,1.2378,4,0.0653,0,51,51,100,1,stimuli/objects/remotecontrol04.jpg,right,new,101,,,,,,,,,,,,,,,
,,,,,,,,27,2021-11-29_18h04.23.160,premceCat2_ses-02_part-02_label-phase2,2020.2.10,MacIntel,60,,,,,right,0.9992,4,0.118,0,52,52,89,1,stimuli/objects/ducttape.jpg,right,new,90,,,,,,,,,,,,,,,
,,,,,,,,27,2021-11-29_18h04.23.160,premceCat2_ses-02_part-02_label-phase2,2020.2.10,MacIntel,60,,,,,left,1.9196,4,0.4715,,,,,,,,,,right,0.4727,0,0,0,0,1,,,,,,,,
,,,,,,,,27,2021-11-29_18h04.23.160,premceCat2_ses-02_part-02_label-phase2,2020.2.10,MacIntel,60,,,,,,,,,0,53,53,95,1,stimuli/objects/lectern01.jpg,left,old,96,,,,,,,,,,,,,,,
,,,,,,,,27,2021-11-29_18h04.23.160,premceCat2_ses-02_part-02_label-phase2,2020.2.10,MacIntel,60,,,,,right,1.6109,4,0.3682,0,54,54,83,1,stimuli/objects/kitchenscale01a.jpg,right,new,84,,,,,,,,,,,,,,,
,,,,,,,,27,2021-11-29_18h04.23.160,premceCat2_ses-02_part-02_label-phase2,2020.2.10,MacIntel,60,,,,,right,2.3039,2,0.8411,0,55,55,37,1,stimuli/objects/bungeecord02.jpg,left,old,38,,,,,,,,,,,,,,,
,,,,,,,,27,2021-11-29_18h04.23.160,premceCat2_ses-02_part-02_label-phase2,2020.2.10,MacIntel,60,,,,,left,2.142,4,2.0146,,,,,,,,,,right,2.7457,0,0,0,0,1,,,,,,,,
,,,,,,,,27,2021-11-29_18h04.23.160,premceCat2_ses-02_part-02_label-phase2,2020.2.10,MacIntel,60,,,,,,,,,0,56,56,87,1,stimuli/objects/fluorescentlightbulb.jpg,left,old,88,,,,,,,,,,,,,,,
,,,,,,,,27,2021-11-29_18h04.23.160,premceCat2_ses-02_part-02_label-phase2,2020.2.10,MacIntel,60,,,,,right,2.3949,4,0.3201,0,57,57,112,1,stimuli/objects/gymnasticring.jpg,right,new,113,,,,,,,,,,,,,,,
,,,,,,,,27,2021-11-29_18h04.23.160,premceCat2_ses-02_part-02_label-phase2,2020.2.10,MacIntel,60,,,,,right,1.4822,4,0.6222,0,58,58,135,1,stimuli/objects/pressurewasher.jpg,left,old,136,,,,,,,,,,,,,,,
,,,,,,,,27,2021-11-29_18h04.23.160,premceCat2_ses-02_part-02_label-phase2,2020.2.10,MacIntel,60,,,,,right,0.9318,4,0.426,0,59,59,80,1,stimuli/objects/snowman.jpg,right,new,81,,,,,,,,,,,,,,,
,,,,,,,,27,2021-11-29_18h04.23.160,premceCat2_ses-02_part-02_label-phase2,2020.2.10,MacIntel,60,,,,,right,1.2019,4,0.3697,0,60,60,140,1,stimuli/objects/catchermask.jpg,left,old,141,,,,,,,,,,,,,,,
,,,,,,,,27,2021-11-29_18h04.23.160,premceCat2_ses-02_part-02_label-phase2,2020.2.10,MacIntel,60,,,,,right,0.9822,4,0.3811,0,61,61,51,1,stimuli/objects/webcam.jpg,right,new,52,,,,,,,,,,,,,,,
,,,,,,,,27,2021-11-29_18h04.23.160,premceCat2_ses-02_part-02_label-phase2,2020.2.10,MacIntel,60,,,,,left,1.5525,4,0.4849,,,,,,,,,,right,0.4564,0,0,0,0,1,,,,,,,,
,,,,,,,,27,2021-11-29_18h04.23.160,premceCat2_ses-02_part-02_label-phase2,2020.2.10,MacIntel,60,,,,,,,,,0,62,62,14,1,stimuli/objects/wheelbarrow01.jpg,left,old,15,,,,,,,,,,,,,,,
,,,,,,,,27,2021-11-29_18h04.23.160,premceCat2_ses-02_part-02_label-phase2,2020.2.10,MacIntel,60,,,,,left,1.7937,4,1.1386,,,,,,,,,,right,0.3427,0,0,0,0,1,,,,,,,,
,,,,,,,,27,2021-11-29_18h04.23.160,premceCat2_ses-02_part-02_label-phase2,2020.2.10,MacIntel,60,,,,,,,,,0,63,63,69,1,stimuli/objects/atm.jpg,left,old,70,,,,,,,,,,,,,,,
,,,,,,,,27,2021-11-29_18h04.23.160,premceCat2_ses-02_part-02_label-phase2,2020.2.10,MacIntel,60,,,,,right,1.734,4,0.6014,0,64,64,46,1,stimuli/objects/walkman.jpg,right,new,47,,,,,,,,,,,,,,,
,,,,,,,,27,2021-11-29_18h04.23.160,premceCat2_ses-02_part-02_label-phase2,2020.2.10,MacIntel,60,,,,,right,1.1592,4,0.6345,0,65,65,38,1,stimuli/objects/soundmixer.jpg,right,new,39,,,,,,,,,,,,,,,
,,,,,,,,27,2021-11-29_18h04.23.160,premceCat2_ses-02_part-02_label-phase2,2020.2.10,MacIntel,60,,,,,right,1.0227,4,0.3336,0,66,66,81,1,stimuli/objects/avcable.jpg,right,new,82,,,,,,,,,,,,,,,
,,,,,,,,27,2021-11-29_18h04.23.160,premceCat2_ses-02_part-02_label-phase2,2020.2.10,MacIntel,60,,,,,left,1.7374,4,0.7093,,,,,,,,,,left,0.2808,0,0,0,0,1,,,,,,,,
,,,,,,,,27,2021-11-29_18h04.23.160,premceCat2_ses-02_part-02_label-phase2,2020.2.10,MacIntel,60,,,,,,,,,0,67,67,27,1,stimuli/objects/baseballglove.jpg,left,old,28,,,,,,,,,,,,,,,
,,,,,,,,27,2021-11-29_18h04.23.160,premceCat2_ses-02_part-02_label-phase2,2020.2.10,MacIntel,60,,,,,right,1.3027,4,0.2818,0,68,68,82,1,stimuli/objects/snowbrush.jpg,right,new,83,,,,,,,,,,,,,,,
,,,,,,,,27,2021-11-29_18h04.23.160,premceCat2_ses-02_part-02_label-phase2,2020.2.10,MacIntel,60,,,,,right,1.1104,4,0.2335,0,69,69,55,1,stimuli/objects/toolbox02.jpg,right,new,56,,,,,,,,,,,,,,,
,,,,,,,,27,2021-11-29_18h04.23.160,premceCat2_ses-02_part-02_label-phase2,2020.2.10,MacIntel,60,,,,,right,1.5184,4,2.324,0,70,70,93,1,stimuli/objects/icepack.jpg,right,new,94,,,,,,,,,,,,,,,
,,,,,,,,27,2021-11-29_18h04.23.160,premceCat2_ses-02_part-02_label-phase2,2020.2.10,MacIntel,60,,,,,right,1.9388,4,0.4366,0,71,71,43,1,stimuli/objects/punchingball.jpg,right,new,44,,,,,,,,,,,,,,,
,,,,,,,,27,2021-11-29_18h04.23.160,premceCat2_ses-02_part-02_label-phase2,2020.2.10,MacIntel,60,,,,,left,1.4211,4,0.502,,,,,,,,,,left,1.4794,0,0,0,0,1,,,,,,,,
,,,,,,,,27,2021-11-29_18h04.23.160,premceCat2_ses-02_part-02_label-phase2,2020.2.10,MacIntel,60,,,,,,,,,0,72,72,142,1,stimuli/objects/spoon01.jpg,left,old,143,,,,,,,,,,,,,,,
,,,,,,,,27,2021-11-29_18h04.23.160,premceCat2_ses-02_part-02_label-phase2,2020.2.10,MacIntel,60,,,,,left,1.9329,4,0.2339,,,,,,,,,,left,0.231,0,0,0,0,1,,,,,,,,
,,,,,,,,27,2021-11-29_18h04.23.160,premceCat2_ses-02_part-02_label-phase2,2020.2.10,MacIntel,60,,,,,,,,,0,73,73,107,1,stimuli/objects/canister.jpg,left,old,108,,,,,,,,,,,,,,,
,,,,,,,,27,2021-11-29_18h04.23.160,premceCat2_ses-02_part-02_label-phase2,2020.2.10,MacIntel,60,,,,,right,1.4986,4,0.306,0,74,74,25,1,stimuli/objects/bowlingball.jpg,right,new,26,,,,,,,,,,,,,,,
,,,,,,,,27,2021-11-29_18h04.23.160,premceCat2_ses-02_part-02_label-phase2,2020.2.10,MacIntel,60,,,,,right,1.1964,4,0.5773,0,75,75,73,1,stimuli/objects/clock01a.jpg,right,new,74,,,,,,,,,,,,,,,
,,,,,,,,27,2021-11-29_18h04.23.160,premceCat2_ses-02_part-02_label-phase2,2020.2.10,MacIntel,60,,,,,left,1.5946,4,1.5805,,,,,,,,,,left,0.7212,0,0,0,0,1,,,,,,,,
,,,,,,,,27,2021-11-29_18h04.23.160,premceCat2_ses-02_part-02_label-phase2,2020.2.10,MacIntel,60,,,,,,,,,0,76,76,67,1,stimuli/objects/bikelock.jpg,left,old,68,,,,,,,,,,,,,,,
,,,,,,,,27,2021-11-29_18h04.23.160,premceCat2_ses-02_part-02_label-phase2,2020.2.10,MacIntel,60,,,,,right,1.1171,4,0.6661,0,77,77,111,1,stimuli/objects/speaker04.jpg,right,new,112,,,,,,,,,,,,,,,
,,,,,,,,27,2021-11-29_18h04.23.160,premceCat2_ses-02_part-02_label-phase2,2020.2.10,MacIntel,60,,,,,left,1.3193,4,0.5172,,,,,,,,,,left,0.4828,0,0,0,0,1,,,,,,,,
,,,,,,,,27,2021-11-29_18h04.23.160,premceCat2_ses-02_part-02_label-phase2,2020.2.10,MacIntel,60,,,,,,,,,0,78,78,48,1,stimuli/objects/breadknife.jpg,left,old,49,,,,,,,,,,,,,,,
,,,,,,,,27,2021-11-29_18h04.23.160,premceCat2_ses-02_part-02_label-phase2,2020.2.10,MacIntel,60,,,,,right,1.6993,4,0.4653,0,79,79,127,1,stimuli/objects/badmintonracket.jpg,left,old,128,,,,,,,,,,,,,,,
,,,,,,,,27,2021-11-29_18h04.23.160,premceCat2_ses-02_part-02_label-phase2,2020.2.10,MacIntel,60,,,,,right,1.038,4,0.3332,0,80,80,59,1,stimuli/objects/studiolight.jpg,right,new,60,,,,,,,,,,,,,,,
,,,,,,,,27,2021-11-29_18h04.23.160,premceCat2_ses-02_part-02_label-phase2,2020.2.10,MacIntel,60,,,,,left,1.7833,4,0.3874,,,,,,,,,,left,1.5979,0,0,0,0,1,,,,,,,,
,,,,,,,,27,2021-11-29_18h04.23.160,premceCat2_ses-02_part-02_label-phase2,2020.2.10,MacIntel,60,,,,,,,,,0,81,81,124,1,stimuli/objects/reflector.jpg,left,old,125,,,,,,,,,,,,,,,
,,,,,,,,27,2021-11-29_18h04.23.160,premceCat2_ses-02_part-02_label-phase2,2020.2.10,MacIntel,60,,,,,right,1.1504,4,0.2293,0,82,82,71,1,stimuli/objects/faxmachine.jpg,right,new,72,,,,,,,,,,,,,,,
,,,,,,,,27,2021-11-29_18h04.23.160,premceCat2_ses-02_part-02_label-phase2,2020.2.10,MacIntel,60,,,,,left,1.4831,3,1.715,,,,,,,,,,right,0.4617,0,0,0,0,1,,,,,,,,
,,,,,,,,27,2021-11-29_18h04.23.160,premceCat2_ses-02_part-02_label-phase2,2020.2.10,MacIntel,60,,,,,,,,,0,83,83,44,1,stimuli/objects/pliers02b.jpg,left,old,45,,,,,,,,,,,,,,,
,,,,,,,,27,2021-11-29_18h04.23.160,premceCat2_ses-02_part-02_label-phase2,2020.2.10,MacIntel,60,,,,,left,1.2422,4,0.8064,,,,,,,,,,left,0.4751,0,0,0,0,1,,,,,,,,
,,,,,,,,27,2021-11-29_18h04.23.160,premceCat2_ses-02_part-02_label-phase2,2020.2.10,MacIntel,60,,,,,,,,,0,84,84,103,1,stimuli/objects/towel01.jpg,left,old,104,,,,,,,,,,,,,,,
,,,,,,,,27,2021-11-29_18h04.23.160,premceCat2_ses-02_part-02_label-phase2,2020.2.10,MacIntel,60,,,,,left,1.2031,4,2.2356,,,,,,,,,,right,0.3036,0,0,0,0,1,,,,,,,,
,,,,,,,,27,2021-11-29_18h04.23.160,premceCat2_ses-02_part-02_label-phase2,2020.2.10,MacIntel,60,,,,,,,,,0,85,85,65,1,stimuli/objects/squeegee01b.jpg,left,old,66,,,,,,,,,,,,,,,
,,,,,,,,27,2021-11-29_18h04.23.160,premceCat2_ses-02_part-02_label-phase2,2020.2.10,MacIntel,60,,,,,left,1.6179,4,0.6652,,,,,,,,,,left,0.2703,0,0,0,0,1,,,,,,,,
,,,,,,,,27,2021-11-29_18h04.23.160,premceCat2_ses-02_part-02_label-phase2,2020.2.10,MacIntel,60,,,,,,,,,0,86,86,24,1,stimuli/objects/skateboard.jpg,right,new,25,,,,,,,,,,,,,,,
,,,,,,,,27,2021-11-29_18h04.23.160,premceCat2_ses-02_part-02_label-phase2,2020.2.10,MacIntel,60,,,,,left,1.479,3,1.3818,,,,,,,,,,right,0.0071,0,0,0,0,1,,,,,,,,
,,,,,,,,27,2021-11-29_18h04.23.160,premceCat2_ses-02_part-02_label-phase2,2020.2.10,MacIntel,60,,,,,,,,,0,87,87,115,1,stimuli/objects/pipewrench.jpg,left,old,116,,,,,,,,,,,,,,,
,,,,,,,,27,2021-11-29_18h04.23.160,premceCat2_ses-02_part-02_label-phase2,2020.2.10,MacIntel,60,,,,,right,1.6098,4,0.0842,0,88,88,134,1,stimuli/objects/screwdriver04b.jpg,right,new,135,,,,,,,,,,,,,,,
,,,,,,,,27,2021-11-29_18h04.23.160,premceCat2_ses-02_part-02_label-phase2,2020.2.10,MacIntel,60,,,,,right,1.0358,4,0.5513,0,89,89,12,1,stimuli/objects/garlicpress02a.jpg,right,new,13,,,,,,,,,,,,,,,
,,,,,,,,27,2021-11-29_18h04.23.160,premceCat2_ses-02_part-02_label-phase2,2020.2.10,MacIntel,60,,,,,left,3.6245,4,0.3851,,,,,,,,,,right,0.3498,0,0,0,0,1,,,,,,,,
,,,,,,,,27,2021-11-29_18h04.23.160,premceCat2_ses-02_part-02_label-phase2,2020.2.10,MacIntel,60,,,,,,,,,0,90,90,35,1,stimuli/objects/crocodileclips.jpg,left,old,36,,,,,,,,,,,,,,,
,,,,,,,,27,2021-11-29_18h04.23.160,premceCat2_ses-02_part-02_label-phase2,2020.2.10,MacIntel,60,,,,,right,2.2515,3,0.2933,0,91,91,68,1,stimuli/objects/leafblower01.jpg,right,new,69,,,,,,,,,,,,,,,
,,,,,,,,27,2021-11-29_18h04.23.160,premceCat2_ses-02_part-02_label-phase2,2020.2.10,MacIntel,60,,,,,right,1.4966,2,1.4157,0,92,92,19,1,stimuli/objects/peppermill02b.jpg,right,new,20,,,,,,,,,,,,,,,
,,,,,,,,27,2021-11-29_18h04.23.160,premceCat2_ses-02_part-02_label-phase2,2020.2.10,MacIntel,60,,,,,left,1.9879,4,0.7676,,,,,,,,,,left,0.4127,0,0,0,0,1,,,,,,,,
,,,,,,,,27,2021-11-29_18h04.23.160,premceCat2_ses-02_part-02_label-phase2,2020.2.10,MacIntel,60,,,,,,,,,0,93,93,15,1,stimuli/objects/watercooler.jpg,left,old,16,,,,,,,,,,,,,,,
,,,,,,,,27,2021-11-29_18h04.23.160,premceCat2_ses-02_part-02_label-phase2,2020.2.10,MacIntel,60,,,,,left,1.3175,3,2.2698,,,,,,,,,,right,0.4985,0,0,0,0,1,,,,,,,,
,,,,,,,,27,2021-11-29_18h04.23.160,premceCat2_ses-02_part-02_label-phase2,2020.2.10,MacIntel,60,,,,,,,,,0,94,94,1,1,stimuli/objects/photocopier.jpg,left,old,2,,,,,,,,,,,,,,,
,,,,,,,,27,2021-11-29_18h04.23.160,premceCat2_ses-02_part-02_label-phase2,2020.2.10,MacIntel,60,,,,,right,1.2992,4,0.5904,0,95,95,92,1,stimuli/objects/carjack.jpg,right,new,93,,,,,,,,,,,,,,,
,,,,,,,,27,2021-11-29_18h04.23.160,premceCat2_ses-02_part-02_label-phase2,2020.2.10,MacIntel,60,,,,,right,1.0213,4,0.2651,0,96,96,133,1,stimuli/objects/icebucket.jpg,right,new,134,,,,,,,,,,,,,,,
,,,,,,,,27,2021-11-29_18h04.23.160,premceCat2_ses-02_part-02_label-phase2,2020.2.10,MacIntel,60,,,,,left,1.109,4,3.3362,,,,,,,,,,right,0.4652,0,0,0,0,1,,,,,,,,
,,,,,,,,27,2021-11-29_18h04.23.160,premceCat2_ses-02_part-02_label-phase2,2020.2.10,MacIntel,60,,,,,,,,,0,97,97,3,1,stimuli/objects/dishrack.jpg,left,old,4,,,,,,,,,,,,,,,
,,,,,,,,27,2021-11-29_18h04.23.160,premceCat2_ses-02_part-02_label-phase2,2020.2.10,MacIntel,60,,,,,left,1.5159,4,1.7065,,,,,,,,,,right,0.4458,0,0,0,0,1,,,,,,,,
,,,,,,,,27,2021-11-29_18h04.23.160,premceCat2_ses-02_part-02_label-phase2,2020.2.10,MacIntel,60,,,,,,,,,0,98,98,104,1,stimuli/objects/carantenna.jpg,left,old,105,,,,,,,,,,,,,,,
,,,,,,,,27,2021-11-29_18h04.23.160,premceCat2_ses-02_part-02_label-phase2,2020.2.10,MacIntel,60,,,,,left,1.2741,4,0.3337,,,,,,,,,,left,0.2041,0,0,0,0,1,,,,,,,,
,,,,,,,,27,2021-11-29_18h04.23.160,premceCat2_ses-02_part-02_label-phase2,2020.2.10,MacIntel,60,,,,,,,,,0,99,99,84,1,stimuli/objects/hockeypuck.jpg,left,old,85,,,,,,,,,,,,,,,
,,,,,,,,27,2021-11-29_18h04.23.160,premceCat2_ses-02_part-02_label-phase2,2020.2.10,MacIntel,60,,,,,left,1.1244,4,0.604,,,,,,,,,,left,0.2363,0,0,0,0,1,,,,,,,,
,,,,,,,,27,2021-11-29_18h04.23.160,premceCat2_ses-02_part-02_label-phase2,2020.2.10,MacIntel,60,,,,,,,,,0,100,100,23,1,stimuli/objects/football.jpg,right,new,24,,,,,,,,,,,,,,,
,,,,,,,,27,2021-11-29_18h04.23.160,premceCat2_ses-02_part-02_label-phase2,2020.2.10,MacIntel,60,,,,,right,2.533,2,0.5288,0,101,101,45,1,stimuli/objects/aluminiumfoil.jpg,left,old,46,,,,,,,,,,,,,,,
,,,,,,,,27,2021-11-29_18h04.23.160,premceCat2_ses-02_part-02_label-phase2,2020.2.10,MacIntel,60,,,,,left,2.4731,4,0.347,,,,,,,,,,right,0.2916,0,0,0,0,1,,,,,,,,
,,,,,,,,27,2021-11-29_18h04.23.160,premceCat2_ses-02_part-02_label-phase2,2020.2.10,MacIntel,60,,,,,,,,,0,102,102,70,1,stimuli/objects/martiniglass01b.jpg,left,old,71,,,,,,,,,,,,,,,
,,,,,,,,27,2021-11-29_18h04.23.160,premceCat2_ses-02_part-02_label-phase2,2020.2.10,MacIntel,60,,,,,left,1.6546,4,0.583,,,,,,,,,,left,0.3177,0,0,0,0,1,,,,,,,,
,,,,,,,,27,2021-11-29_18h04.23.160,premceCat2_ses-02_part-02_label-phase2,2020.2.10,MacIntel,60,,,,,,,,,0,103,103,56,1,stimuli/objects/thermos.jpg,left,old,57,,,,,,,,,,,,,,,
,,,,,,,,27,2021-11-29_18h04.23.160,premceCat2_ses-02_part-02_label-phase2,2020.2.10,MacIntel,60,,,,,right,1.1508,4,0.6676,0,104,104,42,1,stimuli/objects/snowshoe.jpg,right,new,43,,,,,,,,,,,,,,,
,,,,,,,,27,2021-11-29_18h04.23.160,premceCat2_ses-02_part-02_label-phase2,2020.2.10,MacIntel,60,,,,,right,1.8381,4,0.4204,0,105,105,121,1,stimuli/objects/ceilingspeaker.jpg,right,new,122,,,,,,,,,,,,,,,
,,,,,,,,27,2021-11-29_18h04.23.160,premceCat2_ses-02_part-02_label-phase2,2020.2.10,MacIntel,60,,,,,right,0.7286,4,0.2654,0,106,106,41,1,stimuli/objects/pylon01.jpg,right,new,42,,,,,,,,,,,,,,,
,,,,,,,,27,2021-11-29_18h04.23.160,premceCat2_ses-02_part-02_label-phase2,2020.2.10,MacIntel,60,,,,,left,2.0625,4,0.3554,,,,,,,,,,left,0.2811,0,0,0,0,1,,,,,,,,
,,,,,,,,27,2021-11-29_18h04.23.160,premceCat2_ses-02_part-02_label-phase2,2020.2.10,MacIntel,60,,,,,,,,,0,107,107,10,1,stimuli/objects/dvdcase01.jpg,left,old,11,,,,,,,,,,,,,,,
,,,,,,,,27,2021-11-29_18h04.23.160,premceCat2_ses-02_part-02_label-phase2,2020.2.10,MacIntel,60,,,,,left,1.0649,4,0.4971,,,,,,,,,,left,1.1804,0,0,0,0,1,,,,,,,,
,,,,,,,,27,2021-11-29_18h04.23.160,premceCat2_ses-02_part-02_label-phase2,2020.2.10,MacIntel,60,,,,,,,,,0,108,108,114,1,stimuli/objects/butterknife.jpg,left,old,115,,,,,,,,,,,,,,,
,,,,,,,,27,2021-11-29_18h04.23.160,premceCat2_ses-02_part-02_label-phase2,2020.2.10,MacIntel,60,,,,,left,1.3306,4,0.3981,,,,,,,,,,left,0.6096,0,0,0,0,1,,,,,,,,
,,,,,,,,27,2021-11-29_18h04.23.160,premceCat2_ses-02_part-02_label-phase2,2020.2.10,MacIntel,60,,,,,,,,,0,109,109,6,1,stimuli/objects/corkscrew03a.jpg,left,old,7,,,,,,,,,,,,,,,
,,,,,,,,27,2021-11-29_18h04.23.160,premceCat2_ses-02_part-02_label-phase2,2020.2.10,MacIntel,60,,,,,left,1.1642,4,0.3684,,,,,,,,,,left,0.084,0,0,0,0,1,,,,,,,,
,,,,,,,,27,2021-11-29_18h04.23.160,premceCat2_ses-02_part-02_label-phase2,2020.2.10,MacIntel,60,,,,,,,,,0,110,110,28,1,stimuli/objects/anchor.jpg,left,old,29,,,,,,,,,,,,,,,
,,,,,,,,27,2021-11-29_18h04.23.160,premceCat2_ses-02_part-02_label-phase2,2020.2.10,MacIntel,60,,,,,right,1.593,2,1.539,0,111,111,11,1,stimuli/objects/telephone01b.jpg,left,old,12,,,,,,,,,,,,,,,
,,,,,,,,27,2021-11-29_18h04.23.160,premceCat2_ses-02_part-02_label-phase2,2020.2.10,MacIntel,60,,,,,left,1.0529,4,0.8532,,,,,,,,,,right,0.9488,0,0,0,0,1,,,,,,,,
,,,,,,,,27,2021-11-29_18h04.23.160,premceCat2_ses-02_part-02_label-phase2,2020.2.10,MacIntel,60,,,,,,,,,0,112,112,0,1,stimuli/objects/ethernetcable02.jpg,left,old,1,,,,,,,,,,,,,,,
,,,,,,,,27,2021-11-29_18h04.23.160,premceCat2_ses-02_part-02_label-phase2,2020.2.10,MacIntel,60,,,,,left,1.5795,4,1.7673,,,,,,,,,,right,0.0972,0,0,0,0,1,,,,,,,,
,,,,,,,,27,2021-11-29_18h04.23.160,premceCat2_ses-02_part-02_label-phase2,2020.2.10,MacIntel,60,,,,,,,,,0,113,113,16,1,stimuli/objects/stubbywrench01a.jpg,left,old,17,,,,,,,,,,,,,,,
,,,,,,,,27,2021-11-29_18h04.23.160,premceCat2_ses-02_part-02_label-phase2,2020.2.10,MacIntel,60,,,,,left,1.5841,4,0.869,,,,,,,,,,left,0.5498,0,0,0,0,1,,,,,,,,
,,,,,,,,27,2021-11-29_18h04.23.160,premceCat2_ses-02_part-02_label-phase2,2020.2.10,MacIntel,60,,,,,,,,,0,114,114,102,1,stimuli/objects/propanetank01.jpg,left,old,103,,,,,,,,,,,,,,,
,,,,,,,,27,2021-11-29_18h04.23.160,premceCat2_ses-02_part-02_label-phase2,2020.2.10,MacIntel,60,,,,,left,3.668,4,2.349,,,,,,,,,,right,1.4623,0,0,0,0,1,,,,,,,,
,,,,,,,,27,2021-11-29_18h04.23.160,premceCat2_ses-02_part-02_label-phase2,2020.2.10,MacIntel,60,,,,,,,,,0,115,115,99,1,stimuli/objects/snowblower.jpg,left,old,100,,,,,,,,,,,,,,,
,,,,,,,,27,2021-11-29_18h04.23.160,premceCat2_ses-02_part-02_label-phase2,2020.2.10,MacIntel,60,,,,,left,1.2329,4,0.2076,,,,,,,,,,right,0.2335,0,0,0,0,1,,,,,,,,
,,,,,,,,27,2021-11-29_18h04.23.160,premceCat2_ses-02_part-02_label-phase2,2020.2.10,MacIntel,60,,,,,,,,,0,116,116,36,1,stimuli/objects/gps.jpg,left,old,37,,,,,,,,,,,,,,,
,,,,,,,,27,2021-11-29_18h04.23.160,premceCat2_ses-02_part-02_label-phase2,2020.2.10,MacIntel,60,,,,,right,1.2544,4,0.2508,0,117,117,63,1,stimuli/objects/butterdish.jpg,right,new,64,,,,,,,,,,,,,,,
,,,,,,,,27,2021-11-29_18h04.23.160,premceCat2_ses-02_part-02_label-phase2,2020.2.10,MacIntel,60,,,,,right,0.8699,4,0.2161,0,118,118,26,1,stimuli/objects/boogieboard.jpg,right,new,27,,,,,,,,,,,,,,,
,,,,,,,,27,2021-11-29_18h04.23.160,premceCat2_ses-02_part-02_label-phase2,2020.2.10,MacIntel,60,,,,,left,1.5868,4,1.5757,,,,,,,,,,left,0.8825,0,0,0,0,1,,,,,,,,
,,,,,,,,27,2021-11-29_18h04.23.160,premceCat2_ses-02_part-02_label-phase2,2020.2.10,MacIntel,60,,,,,,,,,0,119,119,97,1,stimuli/objects/coffeemachine.jpg,left,old,98,,,,,,,,,,,,,,,
,,,,,,,,27,2021-11-29_18h04.23.160,premceCat2_ses-02_part-02_label-phase2,2020.2.10,MacIntel,60,,,,,right,1.1812,3,0.6831,0,120,120,22,1,stimuli/objects/umbrella04.jpg,right,new,23,,,,,,,,,,,,,,,
,,,,,,,,27,2021-11-29_18h04.23.160,premceCat2_ses-02_part-02_label-phase2,2020.2.10,MacIntel,60,,,,,left,1.2544,4,0.5686,,,,,,,,,,right,0.4639,0,0,0,0,1,,,,,,,,
,,,,,,,,27,2021-11-29_18h04.23.160,premceCat2_ses-02_part-02_label-phase2,2020.2.10,MacIntel,60,,,,,,,,,0,121,121,79,1,stimuli/objects/dvdplayer.jpg,left,old,80,,,,,,,,,,,,,,,
,,,,,,,,27,2021-11-29_18h04.23.160,premceCat2_ses-02_part-02_label-phase2,2020.2.10,MacIntel,60,,,,,left,1.5295,4,1.2352,,,,,,,,,,right,0.3041,0,0,0,0,1,,,,,,,,
,,,,,,,,27,2021-11-29_18h04.23.160,premceCat2_ses-02_part-02_label-phase2,2020.2.10,MacIntel,60,,,,,,,,,0,122,122,122,1,stimuli/objects/extensioncord.jpg,left,old,123,,,,,,,,,,,,,,,
,,,,,,,,27,2021-11-29_18h04.23.160,premceCat2_ses-02_part-02_label-phase2,2020.2.10,MacIntel,60,,,,,right,1.7471,3,1.7427,0,123,123,57,1,stimuli/objects/audiocablesplitter.jpg,right,new,58,,,,,,,,,,,,,,,
,,,,,,,,27,2021-11-29_18h04.23.160,premceCat2_ses-02_part-02_label-phase2,2020.2.10,MacIntel,60,,,,,right,1.0958,4,0.3074,0,124,124,119,1,stimuli/objects/tongs01b.jpg,right,new,120,,,,,,,,,,,,,,,
,,,,,,,,27,2021-11-29_18h04.23.160,premceCat2_ses-02_part-02_label-phase2,2020.2.10,MacIntel,60,,,,,left,1.6092,4,0.258,,,,,,,,,,left,0.2661,0,0,0,0,1,,,,,,,,
,,,,,,,,27,2021-11-29_18h04.23.160,premceCat2_ses-02_part-02_label-phase2,2020.2.10,MacIntel,60,,,,,,,,,0,125,125,123,1,stimuli/objects/gasburner.jpg,left,old,124,,,,,,,,,,,,,,,
,,,,,,,,27,2021-11-29_18h04.23.160,premceCat2_ses-02_part-02_label-phase2,2020.2.10,MacIntel,60,,,,,left,1.363,4,0.3004,,,,,,,,,,right,0.0284,0,0,0,0,1,,,,,,,,
,,,,,,,,27,2021-11-29_18h04.23.160,premceCat2_ses-02_part-02_label-phase2,2020.2.10,MacIntel,60,,,,,,,,,0,126,126,64,1,stimuli/objects/knifesharpener.jpg,left,old,65,,,,,,,,,,,,,,,
,,,,,,,,27,2021-11-29_18h04.23.160,premceCat2_ses-02_part-02_label-phase2,2020.2.10,MacIntel,60,,,,,right,1.0047,3,0.3737,0,127,127,136,1,stimuli/objects/battery02b.jpg,right,new,137,,,,,,,,,,,,,,,
,,,,,,,,27,2021-11-29_18h04.23.160,premceCat2_ses-02_part-02_label-phase2,2020.2.10,MacIntel,60,,,,,left,1.3326,4,0.3707,,,,,,,,,,right,0.318,0,0,0,0,1,,,,,,,,
,,,,,,,,27,2021-11-29_18h04.23.160,premceCat2_ses-02_part-02_label-phase2,2020.2.10,MacIntel,60,,,,,,,,,0,128,128,132,1,stimuli/objects/djmixer02.jpg,left,old,133,,,,,,,,,,,,,,,
,,,,,,,,27,2021-11-29_18h04.23.160,premceCat2_ses-02_part-02_label-phase2,2020.2.10,MacIntel,60,,,,,right,1.1796,3,1.3701,0,129,129,94,1,stimuli/objects/electricmixer.jpg,right,new,95,,,,,,,,,,,,,,,
,,,,,,,,27,2021-11-29_18h04.23.160,premceCat2_ses-02_part-02_label-phase2,2020.2.10,MacIntel,60,,,,,left,1.4581,4,0.4709,,,,,,,,,,right,0.3573,0,0,0,0,1,,,,,,,,
,,,,,,,,27,2021-11-29_18h04.23.160,premceCat2_ses-02_part-02_label-phase2,2020.2.10,MacIntel,60,,,,,,,,,0,130,130,61,1,stimuli/objects/metalbrush.jpg,left,old,62,,,,,,,,,,,,,,,
,,,,,,,,27,2021-11-29_18h04.23.160,premceCat2_ses-02_part-02_label-phase2,2020.2.10,MacIntel,60,,,,,left,1.4222,4,1.1732,,,,,,,,,,right,0.2312,0,0,0,0,1,,,,,,,,
,,,,,,,,27,2021-11-29_18h04.23.160,premceCat2_ses-02_part-02_label-phase2,2020.2.10,MacIntel,60,,,,,,,,,0,131,131,77,1,stimuli/objects/headphones02b.jpg,left,old,78,,,,,,,,,,,,,,,
,,,,,,,,27,2021-11-29_18h04.23.160,premceCat2_ses-02_part-02_label-phase2,2020.2.10,MacIntel,60,,,,,right,1.3373,3,1.4403,0,132,132,29,1,stimuli/objects/computerkeyboard02.jpg,left,old,30,,,,,,,,,,,,,,,
,,,,,,,,27,2021-11-29_18h04.23.160,premceCat2_ses-02_part-02_label-phase2,2020.2.10,MacIntel,60,,,,,right,1.8957,3,0.25,0,133,133,117,1,stimuli/objects/videotape01b.jpg,right,new,118,,,,,,,,,,,,,,,
,,,,,,,,27,2021-11-29_18h04.23.160,premceCat2_ses-02_part-02_label-phase2,2020.2.10,MacIntel,60,,,,,left,1.4541,4,0.2978,,,,,,,,,,left,1.4004,0,0,0,0,1,,,,,,,,
,,,,,,,,27,2021-11-29_18h04.23.160,premceCat2_ses-02_part-02_label-phase2,2020.2.10,MacIntel,60,,,,,,,,,0,134,134,40,1,stimuli/objects/wateringcan.jpg,left,old,41,,,,,,,,,,,,,,,
,,,,,,,,27,2021-11-29_18h04.23.160,premceCat2_ses-02_part-02_label-phase2,2020.2.10,MacIntel,60,,,,,right,1.5626,1,2.2033,0,135,135,52,1,stimuli/objects/spatula04.jpg,left,old,53,,,,,,,,,,,,,,,
,,,,,,,,27,2021-11-29_18h04.23.160,premceCat2_ses-02_part-02_label-phase2,2020.2.10,MacIntel,60,,,,,right,1.839,3,0.3322,0,136,136,18,1,stimuli/objects/cashregister01.jpg,right,new,19,,,,,,,,,,,,,,,
,,,,,,,,27,2021-11-29_18h04.23.160,premceCat2_ses-02_part-02_label-phase2,2020.2.10,MacIntel,60,,,,,right,0.9344,4,0.0805,0,137,137,85,1,stimuli/objects/golfball.jpg,right,new,86,,,,,,,,,,,,,,,
,,,,,,,,27,2021-11-29_18h04.23.160,premceCat2_ses-02_part-02_label-phase2,2020.2.10,MacIntel,60,,,,,right,2.0044,4,0.6963,0,138,138,96,1,stimuli/objects/golfbag.jpg,right,new,97,,,,,,,,,,,,,,,
,,,,,,,,27,2021-11-29_18h04.23.160,premceCat2_ses-02_part-02_label-phase2,2020.2.10,MacIntel,60,,,,,right,1.5823,4,0.4838,0,139,139,141,1,stimuli/objects/generator.jpg,right,new,142,,,,,,,,,,,,,,,
,,,,,,,,27,2021-11-29_18h04.23.160,premceCat2_ses-02_part-02_label-phase2,2020.2.10,MacIntel,60,,,,,right,1.001,4,0.9718,0,140,140,116,1,stimuli/objects/radio01.jpg,right,new,117,,,,,,,,,,,,,,,
,,,,,,,,27,2021-11-29_18h04.23.160,premceCat2_ses-02_part-02_label-phase2,2020.2.10,MacIntel,60,,,,,left,1.8854,4,0.6685,,,,,,,,,,right,1.4436,0,0,0,0,1,,,,,,,,
,,,,,,,,27,2021-11-29_18h04.23.160,premceCat2_ses-02_part-02_label-phase2,2020.2.10,MacIntel,60,,,,,,,,,0,141,141,58,1,stimuli/objects/toyhardhat.jpg,left,old,59,,,,,,,,,,,,,,,
,,,,,,,,27,2021-11-29_18h04.23.160,premceCat2_ses-02_part-02_label-phase2,2020.2.10,MacIntel,60,,,,,left,1.0453,4,0.8544,,,,,,,,,,left,0.4,0,0,0,0,1,,,,,,,,
,,,,,,,,27,2021-11-29_18h04.23.160,premceCat2_ses-02_part-02_label-phase2,2020.2.10,MacIntel,60,,,,,,,,,0,142,142,62,1,stimuli/objects/potatomasher03b.jpg,left,old,63,,,,,,,,,,,,,,,
,,,,,,,,27,2021-11-29_18h04.23.160,premceCat2_ses-02_part-02_label-phase2,2020.2.10,MacIntel,60,,,,,,,,,,,,,,,,,,,,,,,,,space,103.6483,0,0,0,0,1,condition_files/ImagesforRecog4_1.csv
,,,,,,,,27,2021-11-29_18h04.23.160,premceCat2_ses-02_part-02_label-phase2,2020.2.10,MacIntel,60,,,,,left,1.8497,4,0.4708,,,,,,,,,,right,0.2389,0,0,0,0,1,,,,,,,,
,,,,,,,,27,2021-11-29_18h04.23.160,premceCat2_ses-02_part-02_label-phase2,2020.2.10,MacIntel,60,,,,,,,,,0,0,0,29,1,stimuli/objects/slidetray.jpg,left,old,173,,,,,,,,,,,,,,,
,,,,,,,,27,2021-11-29_18h04.23.160,premceCat2_ses-02_part-02_label-phase2,2020.2.10,MacIntel,60,,,,,left,1.3109,4,0.7476,,,,,,,,,,right,0.266,0,0,0,0,1,,,,,,,,
,,,,,,,,27,2021-11-29_18h04.23.160,premceCat2_ses-02_part-02_label-phase2,2020.2.10,MacIntel,60,,,,,,,,,0,1,1,52,1,stimuli/objects/usbkey.jpg,left,old,196,,,,,,,,,,,,,,,
,,,,,,,,27,2021-11-29_18h04.23.160,premceCat2_ses-02_part-02_label-phase2,2020.2.10,MacIntel,60,,,,,right,1.3657,4,0.4163,0,2,2,49,1,stimuli/objects/cakeplatter.jpg,right,new,193,,,,,,,,,,,,,,,
,,,,,,,,27,2021-11-29_18h04.23.160,premceCat2_ses-02_part-02_label-phase2,2020.2.10,MacIntel,60,,,,,left,0.9784,4,0.5012,,,,,,,,,,left,0.3469,0,0,0,0,1,,,,,,,,
,,,,,,,,27,2021-11-29_18h04.23.160,premceCat2_ses-02_part-02_label-phase2,2020.2.10,MacIntel,60,,,,,,,,,0,3,3,109,1,stimuli/objects/saladspinner.jpg,left,old,253,,,,,,,,,,,,,,,
,,,,,,,,27,2021-11-29_18h04.23.160,premceCat2_ses-02_part-02_label-phase2,2020.2.10,MacIntel,60,,,,,right,1.9615,2,0.1733,0,4,4,132,1,stimuli/objects/wirestripper.jpg,right,new,276,,,,,,,,,,,,,,,
,,,,,,,,27,2021-11-29_18h04.23.160,premceCat2_ses-02_part-02_label-phase2,2020.2.10,MacIntel,60,,,,,right,1.3652,2,1.5861,0,5,5,86,1,stimuli/objects/trampoline.jpg,right,new,230,,,,,,,,,,,,,,,
,,,,,,,,27,2021-11-29_18h04.23.160,premceCat2_ses-02_part-02_label-phase2,2020.2.10,MacIntel,60,,,,,left,1.1706,4,0.3677,,,,,,,,,,right,0.9154,0,0,0,0,1,,,,,,,,
,,,,,,,,27,2021-11-29_18h04.23.160,premceCat2_ses-02_part-02_label-phase2,2020.2.10,MacIntel,60,,,,,,,,,0,6,6,21,1,stimuli/objects/gluetube.jpg,left,old,165,,,,,,,,,,,,,,,
,,,,,,,,27,2021-11-29_18h04.23.160,premceCat2_ses-02_part-02_label-phase2,2020.2.10,MacIntel,60,,,,,right,2.5579,1,0.2835,0,7,7,123,1,stimuli/objects/jackhammer.jpg,right,new,267,,,,,,,,,,,,,,,
,,,,,,,,27,2021-11-29_18h04.23.160,premceCat2_ses-02_part-02_label-phase2,2020.2.10,MacIntel,60,,,,,right,1.4105,3,1.0222,0,8,8,78,1,stimuli/objects/lightswitch01.jpg,right,new,222,,,,,,,,,,,,,,,
,,,,,,,,27,2021-11-29_18h04.23.160,premceCat2_ses-02_part-02_label-phase2,2020.2.10,MacIntel,60,,,,,right,1.2051,4,0.1773,0,9,9,131,1,stimuli/objects/handblender.jpg,right,new,275,,,,,,,,,,,,,,,
,,,,,,,,27,2021-11-29_18h04.23.160,premceCat2_ses-02_part-02_label-phase2,2020.2.10,MacIntel,60,,,,,left,1.0831,4,0.118,,,,,,,,,,right,0.1496,0,0,0,0,1,,,,,,,,
,,,,,,,,27,2021-11-29_18h04.23.160,premceCat2_ses-02_part-02_label-phase2,2020.2.10,MacIntel,60,,,,,,,,,0,10,10,100,1,stimuli/objects/setsquare.jpg,left,old,244,,,,,,,,,,,,,,,
,,,,,,,,27,2021-11-29_18h04.23.160,premceCat2_ses-02_part-02_label-phase2,2020.2.10,MacIntel,60,,,,,left,1.5207,4,0.8095,,,,,,,,,,left,0.1471,0,0,0,0,1,,,,,,,,
,,,,,,,,27,2021-11-29_18h04.23.160,premceCat2_ses-02_part-02_label-phase2,2020.2.10,MacIntel,60,,,,,,,,,0,11,11,77,1,stimuli/objects/bowl02a.jpg,left,old,221,,,,,,,,,,,,,,,
,,,,,,,,27,2021-11-29_18h04.23.160,premceCat2_ses-02_part-02_label-phase2,2020.2.10,MacIntel,60,,,,,right,2.1047,3,0.4941,0,12,12,5,1,stimuli/objects/pickaxe02.jpg,right,new,149,,,,,,,,,,,,,,,
,,,,,,,,27,2021-11-29_18h04.23.160,premceCat2_ses-02_part-02_label-phase2,2020.2.10,MacIntel,60,,,,,right,2.0815,3,0.8325,0,13,13,30,1,stimuli/objects/halogenlightbulb.jpg,right,new,174,,,,,,,,,,,,,,,
,,,,,,,,27,2021-11-29_18h04.23.160,premceCat2_ses-02_part-02_label-phase2,2020.2.10,MacIntel,60,,,,,right,1.0465,3,0.3501,0,14,14,47,1,stimuli/objects/plate01b.jpg,right,new,191,,,,,,,,,,,,,,,
,,,,,,,,27,2021-11-29_18h04.23.160,premceCat2_ses-02_part-02_label-phase2,2020.2.10,MacIntel,60,,,,,left,1.4021,3,0.3802,,,,,,,,,,left,0.3471,0,0,0,0,1,,,,,,,,
,,,,,,,,27,2021-11-29_18h04.23.160,premceCat2_ses-02_part-02_label-phase2,2020.2.10,MacIntel,60,,,,,,,,,0,15,15,38,1,stimuli/objects/contactlens.jpg,left,old,182,,,,,,,,,,,,,,,
,,,,,,,,27,2021-11-29_18h04.23.160,premceCat2_ses-02_part-02_label-phase2,2020.2.10,MacIntel,60,,,,,right,1.3015,3,0.2707,0,16,16,3,1,stimuli/objects/boxingglove01.jpg,right,new,147,,,,,,,,,,,,,,,
,,,,,,,,27,2021-11-29_18h04.23.160,premceCat2_ses-02_part-02_label-phase2,2020.2.10,MacIntel,60,,,,,left,1.3264,4,0.2881,,,,,,,,,,right,0.2165,0,0,0,0,1,,,,,,,,
,,,,,,,,27,2021-11-29_18h04.23.160,premceCat2_ses-02_part-02_label-phase2,2020.2.10,MacIntel,60,,,,,,,,,0,17,17,108,1,stimuli/objects/outletadapter.jpg,left,old,252,,,,,,,,,,,,,,,
,,,,,,,,27,2021-11-29_18h04.23.160,premceCat2_ses-02_part-02_label-phase2,2020.2.10,MacIntel,60,,,,,left,1.1681,4,0.5415,,,,,,,,,,left,0.1968,0,0,0,0,1,,,,,,,,
,,,,,,,,27,2021-11-29_18h04.23.160,premceCat2_ses-02_part-02_label-phase2,2020.2.10,MacIntel,60,,,,,,,,,0,18,18,58,1,stimuli/objects/skiboot01a.jpg,left,old,202,,,,,,,,,,,,,,,
,,,,,,,,27,2021-11-29_18h04.23.160,premceCat2_ses-02_part-02_label-phase2,2020.2.10,MacIntel,60,,,,,right,1.0682,4,0.4333,0,19,19,16,1,stimuli/objects/bottleopener01.jpg,right,new,160,,,,,,,,,,,,,,,
,,,,,,,,27,2021-11-29_18h04.23.160,premceCat2_ses-02_part-02_label-phase2,2020.2.10,MacIntel,60,,,,,right,1.2594,4,0.0526,0,20,20,66,1,stimuli/objects/heatpump.jpg,right,new,210,,,,,,,,,,,,,,,
,,,,,,,,27,2021-11-29_18h04.23.160,premceCat2_ses-02_part-02_label-phase2,2020.2.10,MacIntel,60,,,,,left,1.554,3,1.6466,,,,,,,,,,left,0.0988,0,0,0,0,1,,,,,,,,
,,,,,,,,27,2021-11-29_18h04.23.160,premceCat2_ses-02_part-02_label-phase2,2020.2.10,MacIntel,60,,,,,,,,,0,21,21,59,1,stimuli/objects/speedball.jpg,right,new,203,,,,,,,,,,,,,,,
,,,,,,,,27,2021-11-29_18h04.23.160,premceCat2_ses-02_part-02_label-phase2,2020.2.10,MacIntel,60,,,,,left,1.0233,4,1.4339,,,,,,,,,,right,0.1958,0,0,0,0,1,,,,,,,,
,,,,,,,,27,2021-11-29_18h04.23.160,premceCat2_ses-02_part-02_label-phase2,2020.2.10,MacIntel,60,,,,,,,,,0,22,22,113,1,stimuli/objects/sewingmachine01a.jpg,left,old,257,,,,,,,,,,,,,,,
,,,,,,,,27,2021-11-29_18h04.23.160,premceCat2_ses-02_part-02_label-phase2,2020.2.10,MacIntel,60,,,,,left,1.3229,4,0.2474,,,,,,,,,,right,0.131,0,0,0,0,1,,,,,,,,
,,,,,,,,27,2021-11-29_18h04.23.160,premceCat2_ses-02_part-02_label-phase2,2020.2.10,MacIntel,60,,,,,,,,,0,23,23,70,1,stimuli/objects/shovel01.jpg,right,new,214,,,,,,,,,,,,,,,
,,,,,,,,27,2021-11-29_18h04.23.160,premceCat2_ses-02_part-02_label-phase2,2020.2.10,MacIntel,60,,,,,right,3.3044,2,1.1627,0,24,24,99,1,stimuli/objects/floodlight.jpg,right,new,243,,,,,,,,,,,,,,,
,,,,,,,,27,2021-11-29_18h04.23.160,premceCat2_ses-02_part-02_label-phase2,2020.2.10,MacIntel,60,,,,,right,1.2191,2,1.2187,0,25,25,93,1,stimuli/objects/lawnmower.jpg,left,old,237,,,,,,,,,,,,,,,
,,,,,,,,27,2021-11-29_18h04.23.160,premceCat2_ses-02_part-02_label-phase2,2020.2.10,MacIntel,60,,,,,right,2.4714,4,1.1139,0,26,26,9,1,stimuli/objects/alarmsystem.jpg,right,new,153,,,,,,,,,,,,,,,
,,,,,,,,27,2021-11-29_18h04.23.160,premceCat2_ses-02_part-02_label-phase2,2020.2.10,MacIntel,60,,,,,left,0.8403,4,0.368,,,,,,,,,,left,0.1964,0,0,0,0,1,,,,,,,,
,,,,,,,,27,2021-11-29_18h04.23.160,premceCat2_ses-02_part-02_label-phase2,2020.2.10,MacIntel,60,,,,,,,,,0,27,27,79,1,stimuli/objects/bikehelmet.jpg,left,old,223,,,,,,,,,,,,,,,
,,,,,,,,27,2021-11-29_18h04.23.160,premceCat2_ses-02_part-02_label-phase2,2020.2.10,MacIntel,60,,,,,right,1.0651,4,0.2487,0,28,28,135,1,stimuli/objects/mortarandpestle.jpg,right,new,279,,,,,,,,,,,,,,,
,,,,,,,,27,2021-11-29_18h04.23.160,premceCat2_ses-02_part-02_label-phase2,2020.2.10,MacIntel,60,,,,,left,1.2232,4,1.9018,,,,,,,,,,right,0.1086,0,0,0,0,1,,,,,,,,
,,,,,,,,27,2021-11-29_18h04.23.160,premceCat2_ses-02_part-02_label-phase2,2020.2.10,MacIntel,60,,,,,,,,,0,29,29,50,1,stimuli/objects/boatmotor.jpg,left,old,194,,,,,,,,,,,,,,,
,,,,,,,,27,2021-11-29_18h04.23.160,premceCat2_ses-02_part-02_label-phase2,2020.2.10,MacIntel,60,,,,,right,1.6173,2,1.0748,0,30,30,45,1,stimuli/objects/charcoalbarbecue.jpg,left,old,189,,,,,,,,,,,,,,,
,,,,,,,,27,2021-11-29_18h04.23.160,premceCat2_ses-02_part-02_label-phase2,2020.2.10,MacIntel,60,,,,,left,1.0673,4,0.2502,,,,,,,,,,right,0.9494,0,0,0,0,1,,,,,,,,
,,,,,,,,27,2021-11-29_18h04.23.160,premceCat2_ses-02_part-02_label-phase2,2020.2.10,MacIntel,60,,,,,,,,,0,31,31,8,1,stimuli/objects/tape02a.jpg,left,old,152,,,,,,,,,,,,,,,
,,,,,,,,27,2021-11-29_18h04.23.160,premceCat2_ses-02_part-02_label-phase2,2020.2.10,MacIntel,60,,,,,right,0.9904,3,1.7722,0,32,32,2,1,stimuli/objects/wetfloorsign.jpg,right,new,146,,,,,,,,,,,,,,,
,,,,,,,,27,2021-11-29_18h04.23.160,premceCat2_ses-02_part-02_label-phase2,2020.2.10,MacIntel,60,,,,,right,1.2592,3,0.28,0,33,33,142,1,stimuli/objects/needlenosepliers01.jpg,right,new,286,,,,,,,,,,,,,,,
,,,,,,,,27,2021-11-29_18h04.23.160,premceCat2_ses-02_part-02_label-phase2,2020.2.10,MacIntel,60,,,,,left,1.0756,4,0.2924,,,,,,,,,,left,0.2316,0,0,0,0,1,,,,,,,,
,,,,,,,,27,2021-11-29_18h04.23.160,premceCat2_ses-02_part-02_label-phase2,2020.2.10,MacIntel,60,,,,,,,,,0,34,34,23,1,stimuli/objects/surfboard.jpg,left,old,167,,,,,,,,,,,,,,,
,,,,,,,,27,2021-11-29_18h04.23.160,premceCat2_ses-02_part-02_label-phase2,2020.2.10,MacIntel,60,,,,,right,1.55,3,2.2171,0,35,35,46,1,stimuli/objects/waterbottleholder.jpg,right,new,190,,,,,,,,,,,,,,,
,,,,,,,,27,2021-11-29_18h04.23.160,premceCat2_ses-02_part-02_label-phase2,2020.2.10,MacIntel,60,,,,,right,1.8524,2,0.9745,0,36,36,43,1,stimuli/objects/bowrake.jpg,right,new,187,,,,,,,,,,,,,,,
,,,,,,,,27,2021-11-29_18h04.23.160,premceCat2_ses-02_part-02_label-phase2,2020.2.10,MacIntel,60,,,,,left,1.3308,3,5.1921,,,,,,,,,,right,0.3988,0,0,0,0,1,,,,,,,,
,,,,,,,,27,2021-11-29_18h04.23.160,premceCat2_ses-02_part-02_label-phase2,2020.2.10,MacIntel,60,,,,,,,,,0,37,37,96,1,stimuli/objects/boltcutter.jpg,left,old,240,,,,,,,,,,,,,,,
,,,,,,,,27,2021-11-29_18h04.23.160,premceCat2_ses-02_part-02_label-phase2,2020.2.10,MacIntel,60,,,,,right,2.1786,4,0.7688,0,38,38,89,1,stimuli/objects/rollingpin01a.jpg,left,old,233,,,,,,,,,,,,,,,
,,,,,,,,27,2021-11-29_18h04.23.160,premceCat2_ses-02_part-02_label-phase2,2020.2.10,MacIntel,60,,,,,left,1.7535,4,0.3471,,,,,,,,,,left,0.5738,0,0,0,0,1,,,,,,,,
,,,,,,,,27,2021-11-29_18h04.23.160,premceCat2_ses-02_part-02_label-phase2,2020.2.10,MacIntel,60,,,,,,,,,0,39,39,20,1,stimuli/objects/treadmill.jpg,left,old,164,,,,,,,,,,,,,,,
,,,,,,,,27,2021-11-29_18h04.23.160,premceCat2_ses-02_part-02_label-phase2,2020.2.10,MacIntel,60,,,,,right,1.0385,4,0.5822,0,40,40,97,1,stimuli/objects/peeler01.jpg,left,old,241,,,,,,,,,,,,,,,
,,,,,,,,27,2021-11-29_18h04.23.160,premceCat2_ses-02_part-02_label-phase2,2020.2.10,MacIntel,60,,,,,right,1.4187,4,0.2815,0,41,41,107,1,stimuli/objects/dolly01.jpg,right,new,251,,,,,,,,,,,,,,,
,,,,,,,,27,2021-11-29_18h04.23.160,premceCat2_ses-02_part-02_label-phase2,2020.2.10,MacIntel,60,,,,,right,1.088,4,0.1847,0,42,42,118,1,stimuli/objects/caulking.jpg,left,old,262,,,,,,,,,,,,,,,
,,,,,,,,27,2021-11-29_18h04.23.160,premceCat2_ses-02_part-02_label-phase2,2020.2.10,MacIntel,60,,,,,left,0.9205,4,0.2461,,,,,,,,,,right,0.2637,0,0,0,0,1,,,,,,,,
,,,,,,,,27,2021-11-29_18h04.23.160,premceCat2_ses-02_part-02_label-phase2,2020.2.10,MacIntel,60,,,,,,,,,0,43,43,27,1,stimuli/objects/level03a.jpg,left,old,171,,,,,,,,,,,,,,,
,,,,,,,,27,2021-11-29_18h04.23.160,premceCat2_ses-02_part-02_label-phase2,2020.2.10,MacIntel,60,,,,,right,1.0215,4,0.2641,0,44,44,101,1,stimuli/objects/lifejacket.jpg,right,new,245,,,,,,,,,,,,,,,
,,,,,,,,27,2021-11-29_18h04.23.160,premceCat2_ses-02_part-02_label-phase2,2020.2.10,MacIntel,60,,,,,left,1.2366,3,2.1621,,,,,,,,,,left,3.6417,0,0,0,0,1,,,,,,,,
,,,,,,,,27,2021-11-29_18h04.23.160,premceCat2_ses-02_part-02_label-phase2,2020.2.10,MacIntel,60,,,,,,,,,0,45,45,117,1,stimuli/objects/snowboard.jpg,left,old,261,,,,,,,,,,,,,,,
,,,,,,,,27,2021-11-29_18h04.23.160,premceCat2_ses-02_part-02_label-phase2,2020.2.10,MacIntel,60,,,,,right,1.7575,4,0.2803,0,46,46,81,1,stimuli/objects/grill.jpg,right,new,225,,,,,,,,,,,,,,,
,,,,,,,,27,2021-11-29_18h04.23.160,premceCat2_ses-02_part-02_label-phase2,2020.2.10,MacIntel,60,,,,,left,1.6679,4,0.2812,,,,,,,,,,left,0.2662,0,0,0,0,1,,,,,,,,
,,,,,,,,27,2021-11-29_18h04.23.160,premceCat2_ses-02_part-02_label-phase2,2020.2.10,MacIntel,60,,,,,,,,,0,47,47,57,1,stimuli/objects/kiddiepool.jpg,left,old,201,,,,,,,,,,,,,,,
,,,,,,,,27,2021-11-29_18h04.23.160,premceCat2_ses-02_part-02_label-phase2,2020.2.10,MacIntel,60,,,,,left,1.4555,4,1.0666,,,,,,,,,,right,0.1992,0,0,0,0,1,,,,,,,,
,,,,,,,,27,2021-11-29_18h04.23.160,premceCat2_ses-02_part-02_label-phase2,2020.2.10,MacIntel,60,,,,,,,,,0,48,48,85,1,stimuli/objects/lamp04a.jpg,left,old,229,,,,,,,,,,,,,,,
,,,,,,,,27,2021-11-29_18h04.23.160,premceCat2_ses-02_part-02_label-phase2,2020.2.10,MacIntel,60,,,,,left,1.1914,4,0.187,,,,,,,,,,right,0.7574,0,0,0,0,1,,,,,,,,
,,,,,,,,27,2021-11-29_18h04.23.160,premceCat2_ses-02_part-02_label-phase2,2020.2.10,MacIntel,60,,,,,,,,,0,49,49,1,1,stimuli/objects/satellitedish01.jpg,left,old,145,,,,,,,,,,,,,,,
,,,,,,,,27,2021-11-29_18h04.23.160,premceCat2_ses-02_part-02_label-phase2,2020.2.10,MacIntel,60,,,,,left,1.9058,4,0.202,,,,,,,,,,right,0.1416,0,0,0,0,1,,,,,,,,
,,,,,,,,27,2021-11-29_18h04.23.160,premceCat2_ses-02_part-02_label-phase2,2020.2.10,MacIntel,60,,,,,,,,,0,50,50,22,1,stimuli/objects/aircompressor.jpg,left,old,166,,,,,,,,,,,,,,,
,,,,,,,,27,2021-11-29_18h04.23.160,premceCat2_ses-02_part-02_label-phase2,2020.2.10,MacIntel,60,,,,,right,1.3981,3,1.4854,0,51,51,140,1,stimuli/objects/wineglass01.jpg,right,new,284,,,,,,,,,,,,,,,
,,,,,,,,27,2021-11-29_18h04.23.160,premceCat2_ses-02_part-02_label-phase2,2020.2.10,MacIntel,60,,,,,right,1.1948,4,0.5215,0,52,52,82,1,stimuli/objects/shopvac.jpg,right,new,226,,,,,,,,,,,,,,,
,,,,,,,,27,2021-11-29_18h04.23.160,premceCat2_ses-02_part-02_label-phase2,2020.2.10,MacIntel,60,,,,,right,1.2276,4,0.351,0,53,53,40,1,stimuli/objects/tablesaw.jpg,right,new,184,,,,,,,,,,,,,,,
,,,,,,,,27,2021-11-29_18h04.23.160,premceCat2_ses-02_part-02_label-phase2,2020.2.10,MacIntel,60,,,,,right,2.0472,3,2.6005,0,54,54,28,1,stimuli/objects/oven.jpg,left,old,172,,,,,,,,,,,,,,,
,,,,,,,,27,2021-11-29_18h04.23.160,premceCat2_ses-02_part-02_label-phase2,2020.2.10,MacIntel,60,,,,,left,3.2811,4,3.4325,,,,,,,,,,left,0.6118,0,0,0,0,1,,,,,,,,
,,,,,,,,27,2021-11-29_18h04.23.160,premceCat2_ses-02_part-02_label-phase2,2020.2.10,MacIntel,60,,,,,,,,,0,55,55,105,1,stimuli/objects/spicerack.jpg,left,old,249,,,,,,,,,,,,,,,
,,,,,,,,27,2021-11-29_18h04.23.160,premceCat2_ses-02_part-02_label-phase2,2020.2.10,MacIntel,60,,,,,left,3.2504,4,0.7293,,,,,,,,,,right,0.3198,0,0,0,0,1,,,,,,,,
,,,,,,,,27,2021-11-29_18h04.23.160,premceCat2_ses-02_part-02_label-phase2,2020.2.10,MacIntel,60,,,,,,,,,0,56,56,65,1,stimuli/objects/gastank.jpg,left,old,209,,,,,,,,,,,,,,,
,,,,,,,,27,2021-11-29_18h04.23.160,premceCat2_ses-02_part-02_label-phase2,2020.2.10,MacIntel,60,,,,,left,1.0413,4,1.4811,,,,,,,,,,left,0.4396,0,0,0,0,1,,,,,,,,
,,,,,,,,27,2021-11-29_18h04.23.160,premceCat2_ses-02_part-02_label-phase2,2020.2.10,MacIntel,60,,,,,,,,,0,57,57,32,1,stimuli/objects/travelmug.jpg,left,old,176,,,,,,,,,,,,,,,
,,,,,,,,27,2021-11-29_18h04.23.160,premceCat2_ses-02_part-02_label-phase2,2020.2.10,MacIntel,60,,,,,left,0.8534,4,0.3832,,,,,,,,,,left,0.1675,0,0,0,0,1,,,,,,,,
,,,,,,,,27,2021-11-29_18h04.23.160,premceCat2_ses-02_part-02_label-phase2,2020.2.10,MacIntel,60,,,,,,,,,0,58,58,110,1,stimuli/objects/fishingrod.jpg,left,old,254,,,,,,,,,,,,,,,
,,,,,,,,27,2021-11-29_18h04.23.160,premceCat2_ses-02_part-02_label-phase2,2020.2.10,MacIntel,60,,,,,right,1.218,3,0.4495,0,59,59,133,1,stimuli/objects/birdie.jpg,right,new,277,,,,,,,,,,,,,,,
,,,,,,,,27,2021-11-29_18h04.23.160,premceCat2_ses-02_part-02_label-phase2,2020.2.10,MacIntel,60,,,,,left,0.943,4,0.2829,,,,,,,,,,left,0.2228,0,0,0,0,1,,,,,,,,
,,,,,,,,27,2021-11-29_18h04.23.160,premceCat2_ses-02_part-02_label-phase2,2020.2.10,MacIntel,60,,,,,,,,,0,60,60,10,1,stimuli/objects/sportbag.jpg,left,old,154,,,,,,,,,,,,,,,
,,,,,,,,27,2021-11-29_18h04.23.160,premceCat2_ses-02_part-02_label-phase2,2020.2.10,MacIntel,60,,,,,right,1.0009,3,1.115,0,61,61,19,1,stimuli/objects/mug01.jpg,right,new,163,,,,,,,,,,,,,,,
,,,,,,,,27,2021-11-29_18h04.23.160,premceCat2_ses-02_part-02_label-phase2,2020.2.10,MacIntel,60,,,,,right,2.2159,3,0.3819,0,62,62,63,1,stimuli/objects/coffeepot03a.jpg,left,old,207,,,,,,,,,,,,,,,
,,,,,,,,27,2021-11-29_18h04.23.160,premceCat2_ses-02_part-02_label-phase2,2020.2.10,MacIntel,60,,,,,left,1.4214,4,1.6753,,,,,,,,,,right,0.3155,0,0,0,0,1,,,,,,,,
,,,,,,,,27,2021-11-29_18h04.23.160,premceCat2_ses-02_part-02_label-phase2,2020.2.10,MacIntel,60,,,,,,,,,0,63,63,112,1,stimuli/objects/wire.jpg,left,old,256,,,,,,,,,,,,,,,
,,,,,,,,27,2021-11-29_18h04.23.160,premceCat2_ses-02_part-02_label-phase2,2020.2.10,MacIntel,60,,,,,right,2.2307,4,0.0431,0,64,64,4,1,stimuli/objects/cassettetape01a.jpg,right,new,148,,,,,,,,,,,,,,,
,,,,,,,,27,2021-11-29_18h04.23.160,premceCat2_ses-02_part-02_label-phase2,2020.2.10,MacIntel,60,,,,,left,1.0113,4,0.5912,,,,,,,,,,right,0.2167,0,0,0,0,1,,,,,,,,
,,,,,,,,27,2021-11-29_18h04.23.160,premceCat2_ses-02_part-02_label-phase2,2020.2.10,MacIntel,60,,,,,,,,,0,65,65,129,1,stimuli/objects/bucket02.jpg,left,old,273,,,,,,,,,,,,,,,
,,,,,,,,27,2021-11-29_18h04.23.160,premceCat2_ses-02_part-02_label-phase2,2020.2.10,MacIntel,60,,,,,right,1.1128,4,0.1388,0,66,66,39,1,stimuli/objects/wafflemaker.jpg,right,new,183,,,,,,,,,,,,,,,
,,,,,,,,27,2021-11-29_18h04.23.160,premceCat2_ses-02_part-02_label-phase2,2020.2.10,MacIntel,60,,,,,right,1.2686,4,0.2729,0,67,67,122,1,stimuli/objects/hockeystick.jpg,right,new,266,,,,,,,,,,,,,,,
,,,,,,,,27,2021-11-29_18h04.23.160,premceCat2_ses-02_part-02_label-phase2,2020.2.10,MacIntel,60,,,,,right,0.8863,4,0.3446,0,68,68,98,1,stimuli/objects/cameracase01a.jpg,right,new,242,,,,,,,,,,,,,,,
,,,,,,,,27,2021-11-29_18h04.23.160,premceCat2_ses-02_part-02_label-phase2,2020.2.10,MacIntel,60,,,,,left,1.2964,3,0.3338,,,,,,,,,,right,0.4518,0,0,0,0,1,,,,,,,,
,,,,,,,,27,2021-11-29_18h04.23.160,premceCat2_ses-02_part-02_label-phase2,2020.2.10,MacIntel,60,,,,,,,,,0,69,69,91,1,stimuli/objects/cuttingpliers02.jpg,right,new,235,,,,,,,,,,,,,,,
,,,,,,,,27,2021-11-29_18h04.23.160,premceCat2_ses-02_part-02_label-phase2,2020.2.10,MacIntel,60,,,,,right,3.8927,3,1.5675,0,70,70,35,1,stimuli/objects/stroller.jpg,right,new,179,,,,,,,,,,,,,,,
,,,,,,,,27,2021-11-29_18h04.23.160,premceCat2_ses-02_part-02_label-phase2,2020.2.10,MacIntel,60,,,,,right,1.2939,4,0.1597,0,71,71,83,1,stimuli/objects/icecubetray01a.jpg,right,new,227,,,,,,,,,,,,,,,
,,,,,,,,27,2021-11-29_18h04.23.160,premceCat2_ses-02_part-02_label-phase2,2020.2.10,MacIntel,60,,,,,left,0.9627,4,0.2821,,,,,,,,,,left,0.2468,0,0,0,0,1,,,,,,,,
,,,,,,,,27,2021-11-29_18h04.23.160,premceCat2_ses-02_part-02_label-phase2,2020.2.10,MacIntel,60,,,,,,,,,0,72,72,136,1,stimuli/objects/skihelmet01.jpg,left,old,280,,,,,,,,,,,,,,,
,,,,,,,,27,2021-11-29_18h04.23.160,premceCat2_ses-02_part-02_label-phase2,2020.2.10,MacIntel,60,,,,,right,1.0683,4,0.3438,0,73,73,41,1,stimuli/objects/flask.jpg,right,new,185,,,,,,,,,,,,,,,
,,,,,,,,27,2021-11-29_18h04.23.160,premceCat2_ses-02_part-02_label-phase2,2020.2.10,MacIntel,60,,,,,right,0.9504,4,0.1291,0,74,74,15,1,stimuli/objects/computermouse06.jpg,right,new,159,,,,,,,,,,,,,,,
,,,,,,,,27,2021-11-29_18h04.23.160,premceCat2_ses-02_part-02_label-phase2,2020.2.10,MacIntel,60,,,,,right,13.5032,4,1.1524,0,75,75,138,1,stimuli/objects/beermug01a.jpg,right,new,282,,,,,,,,,,,,,,,
,,,,,,,,27,2021-11-29_18h04.23.160,premceCat2_ses-02_part-02_label-phase2,2020.2.10,MacIntel,60,,,,,left,1.1145,4,1.3158,,,,,,,,,,right,0.2653,0,0,0,0,1,,,,,,,,
,,,,,,,,27,2021-11-29_18h04.23.160,premceCat2_ses-02_part-02_label-phase2,2020.2.10,MacIntel,60,,,,,,,,,0,76,76,72,1,stimuli/objects/paintroller01.jpg,left,old,216,,,,,,,,,,,,,,,
,,,,,,,,27,2021-11-29_18h04.23.160,premceCat2_ses-02_part-02_label-phase2,2020.2.10,MacIntel,60,,,,,right,1.1601,3,0.8631,0,77,77,12,1,stimuli/objects/fanheater.jpg,right,new,156,,,,,,,,,,,,,,,
,,,,,,,,27,2021-11-29_18h04.23.160,premceCat2_ses-02_part-02_label-phase2,2020.2.10,MacIntel,60,,,,,left,1.368,4,0.364,,,,,,,,,,left,0.2078,0,0,0,0,1,,,,,,,,
,,,,,,,,27,2021-11-29_18h04.23.160,premceCat2_ses-02_part-02_label-phase2,2020.2.10,MacIntel,60,,,,,,,,,0,78,78,115,1,stimuli/objects/toothpick02.jpg,left,old,259,,,,,,,,,,,,,,,
,,,,,,,,27,2021-11-29_18h04.23.160,premceCat2_ses-02_part-02_label-phase2,2020.2.10,MacIntel,60,,,,,left,1.5534,4,0.1571,,,,,,,,,,right,0.2533,0,0,0,0,1,,,,,,,,
,,,,,,,,27,2021-11-29_18h04.23.160,premceCat2_ses-02_part-02_label-phase2,2020.2.10,MacIntel,60,,,,,,,,,0,79,79,125,1,stimuli/objects/leafrake.jpg,left,old,269,,,,,,,,,,,,,,,
,,,,,,,,27,2021-11-29_18h04.23.160,premceCat2_ses-02_part-02_label-phase2,2020.2.10,MacIntel,60,,,,,right,1.5958,3,0.6923,0,80,80,73,1,stimuli/objects/shinpad.jpg,left,old,217,,,,,,,,,,,,,,,
,,,,,,,,27,2021-11-29_18h04.23.160,premceCat2_ses-02_part-02_label-phase2,2020.2.10,MacIntel,60,,,,,left,2.2506,4,1.2157,,,,,,,,,,left,1.1645,0,0,0,0,1,,,,,,,,
,,,,,,,,27,2021-11-29_18h04.23.160,premceCat2_ses-02_part-02_label-phase2,2020.2.10,MacIntel,60,,,,,,,,,0,81,81,84,1,stimuli/objects/hockeygoalieglove.jpg,left,old,228,,,,,,,,,,,,,,,
,,,,,,,,27,2021-11-29_18h04.23.160,premceCat2_ses-02_part-02_label-phase2,2020.2.10,MacIntel,60,,,,,right,2.4265,4,5.0641,0,82,82,42,1,stimuli/objects/tennisracket.jpg,right,new,186,,,,,,,,,,,,,,,
,,,,,,,,27,2021-11-29_18h04.23.160,premceCat2_ses-02_part-02_label-phase2,2020.2.10,MacIntel,60,,,,,right,1.4089,4,0.9799,0,83,83,48,1,stimuli/objects/eggslicer.jpg,right,new,192,,,,,,,,,,,,,,,
,,,,,,,,27,2021-11-29_18h04.23.160,premceCat2_ses-02_part-02_label-phase2,2020.2.10,MacIntel,60,,,,,left,0.943,4,0.3137,,,,,,,,,,left,0.2326,0,0,0,0,1,,,,,,,,
,,,,,,,,27,2021-11-29_18h04.23.160,premceCat2_ses-02_part-02_label-phase2,2020.2.10,MacIntel,60,,,,,,,,,0,84,84,62,1,stimuli/objects/shotglass.jpg,left,old,206,,,,,,,,,,,,,,,
,,,,,,,,27,2021-11-29_18h04.23.160,premceCat2_ses-02_part-02_label-phase2,2020.2.10,MacIntel,60,,,,,left,1.0801,4,0.3344,,,,,,,,,,right,0.2588,0,0,0,0,1,,,,,,,,
,,,,,,,,27,2021-11-29_18h04.23.160,premceCat2_ses-02_part-02_label-phase2,2020.2.10,MacIntel,60,,,,,,,,,0,85,85,67,1,stimuli/objects/desktopcomputer.jpg,left,old,211,,,,,,,,,,,,,,,
,,,,,,,,27,2021-11-29_18h04.23.160,premceCat2_ses-02_part-02_label-phase2,2020.2.10,MacIntel,60,,,,,left,2.0363,4,0.2409,,,,,,,,,,left,0.1312,0,0,0,0,1,,,,,,,,
,,,,,,,,27,2021-11-29_18h04.23.160,premceCat2_ses-02_part-02_label-phase2,2020.2.10,MacIntel,60,,,,,,,,,0,86,86,119,1,stimuli/objects/servingspoon01.jpg,left,old,263,,,,,,,,,,,,,,,
,,,,,,,,27,2021-11-29_18h04.23.160,premceCat2_ses-02_part-02_label-phase2,2020.2.10,MacIntel,60,,,,,left,1.1843,4,0.4311,,,,,,,,,,right,0.2661,0,0,0,0,1,,,,,,,,
,,,,,,,,27,2021-11-29_18h04.23.160,premceCat2_ses-02_part-02_label-phase2,2020.2.10,MacIntel,60,,,,,,,,,0,87,87,76,1,stimuli/objects/papershredder.jpg,left,old,220,,,,,,,,,,,,,,,
,,,,,,,,27,2021-11-29_18h04.23.160,premceCat2_ses-02_part-02_label-phase2,2020.2.10,MacIntel,60,,,,,right,1.0384,4,0.2409,0,88,88,60,1,stimuli/objects/kite.jpg,right,new,204,,,,,,,,,,,,,,,
,,,,,,,,27,2021-11-29_18h04.23.160,premceCat2_ses-02_part-02_label-phase2,2020.2.10,MacIntel,60,,,,,left,1.0899,4,0.317,,,,,,,,,,right,0.212,0,0,0,0,1,,,,,,,,
,,,,,,,,27,2021-11-29_18h04.23.160,premceCat2_ses-02_part-02_label-phase2,2020.2.10,MacIntel,60,,,,,,,,,0,89,89,130,1,stimuli/objects/ipad02.jpg,left,old,274,,,,,,,,,,,,,,,
,,,,,,,,27,2021-11-29_18h04.23.160,premceCat2_ses-02_part-02_label-phase2,2020.2.10,MacIntel,60,,,,,left,1.2777,4,0.2169,,,,,,,,,,left,0.1531,0,0,0,0,1,,,,,,,,
,,,,,,,,27,2021-11-29_18h04.23.160,premceCat2_ses-02_part-02_label-phase2,2020.2.10,MacIntel,60,,,,,,,,,0,90,90,14,1,stimuli/objects/weight01.jpg,left,old,158,,,,,,,,,,,,,,,
,,,,,,,,27,2021-11-29_18h04.23.160,premceCat2_ses-02_part-02_label-phase2,2020.2.10,MacIntel,60,,,,,left,1.0277,4,0.1695,,,,,,,,,,right,0.0823,0,0,0,0,1,,,,,,,,
,,,,,,,,27,2021-11-29_18h04.23.160,premceCat2_ses-02_part-02_label-phase2,2020.2.10,MacIntel,60,,,,,,,,,0,91,91,104,1,stimuli/objects/securitycamera.jpg,left,old,248,,,,,,,,,,,,,,,
,,,,,,,,27,2021-11-29_18h04.23.160,premceCat2_ses-02_part-02_label-phase2,2020.2.10,MacIntel,60,,,,,left,2.1278,4,0.1813,,,,,,,,,,right,0.1135,0,0,0,0,1,,,,,,,,
,,,,,,,,27,2021-11-29_18h04.23.160,premceCat2_ses-02_part-02_label-phase2,2020.2.10,MacIntel,60,,,,,,,,,0,92,92,11,1,stimuli/objects/airconditioner.jpg,left,old,155,,,,,,,,,,,,,,,
,,,,,,,,27,2021-11-29_18h04.23.160,premceCat2_ses-02_part-02_label-phase2,2020.2.10,MacIntel,60,,,,,right,1.0956,3,0.2338,0,93,93,68,1,stimuli/objects/ladle02a.jpg,right,new,212,,,,,,,,,,,,,,,
,,,,,,,,27,2021-11-29_18h04.23.160,premceCat2_ses-02_part-02_label-phase2,2020.2.10,MacIntel,60,,,,,left,2.2261,3,1.3688,,,,,,,,,,left,0.2819,0,0,0,0,1,,,,,,,,
,,,,,,,,27,2021-11-29_18h04.23.160,premceCat2_ses-02_part-02_label-phase2,2020.2.10,MacIntel,60,,,,,,,,,0,94,94,17,1,stimuli/objects/baseball01a.jpg,left,old,161,,,,,,,,,,,,,,,
,,,,,,,,27,2021-11-29_18h04.23.160,premceCat2_ses-02_part-02_label-phase2,2020.2.10,MacIntel,60,,,,,left,1.073,4,0.166,,,,,,,,,,left,0.0821,0,0,0,0,1,,,,,,,,
,,,,,,,,27,2021-11-29_18h04.23.160,premceCat2_ses-02_part-02_label-phase2,2020.2.10,MacIntel,60,,,,,,,,,0,95,95,127,1,stimuli/objects/skigoggles01.jpg,right,new,271,,,,,,,,,,,,,,,
,,,,,,,,27,2021-11-29_18h04.23.160,premceCat2_ses-02_part-02_label-phase2,2020.2.10,MacIntel,60,,,,,right,1.2455,4,0.1565,0,96,96,114,1,stimuli/objects/drinkshaker.jpg,right,new,258,,,,,,,,,,,,,,,
,,,,,,,,27,2021-11-29_18h04.23.160,premceCat2_ses-02_part-02_label-phase2,2020.2.10,MacIntel,60,,,,,left,0.9365,4,0.0787,,,,,,,,,,left,0.3839,0,0,0,0,1,,,,,,,,
,,,,,,,,27,2021-11-29_18h04.23.160,premceCat2_ses-02_part-02_label-phase2,2020.2.10,MacIntel,60,,,,,,,,,0,97,97,71,1,stimuli/objects/swimgoggles.jpg,left,old,215,,,,,,,,,,,,,,,
,,,,,,,,27,2021-11-29_18h04.23.160,premceCat2_ses-02_part-02_label-phase2,2020.2.10,MacIntel,60,,,,,right,1.1851,4,0.1018,0,98,98,121,1,stimuli/objects/parachute.jpg,right,new,265,,,,,,,,,,,,,,,
,,,,,,,,27,2021-11-29_18h04.23.160,premceCat2_ses-02_part-02_label-phase2,2020.2.10,MacIntel,60,,,,,right,1.1783,4,0.0604,0,99,99,102,1,stimuli/objects/beachumbrella01.jpg,right,new,246,,,,,,,,,,,,,,,
,,,,,,,,27,2021-11-29_18h04.23.160,premceCat2_ses-02_part-02_label-phase2,2020.2.10,MacIntel,60,,,,,right,1.0366,4,0.1024,0,100,100,94,1,stimuli/objects/file.jpg,right,new,238,,,,,,,,,,,,,,,
,,,,,,,,27,2021-11-29_18h04.23.160,premceCat2_ses-02_part-02_label-phase2,2020.2.10,MacIntel,60,,,,,right,0.887,4,0.0163,0,101,101,111,1,stimuli/objects/diaperbag.jpg,right,new,255,,,,,,,,,,,,,,,
,,,,,,,,27,2021-11-29_18h04.23.160,premceCat2_ses-02_part-02_label-phase2,2020.2.10,MacIntel,60,,,,,right,0.9784,3,1.1211,0,102,102,24,1,stimuli/objects/monitor.jpg,right,new,168,,,,,,,,,,,,,,,
,,,,,,,,27,2021-11-29_18h04.23.160,premceCat2_ses-02_part-02_label-phase2,2020.2.10,MacIntel,60,,,,,right,2.5962,3,0.3585,0,103,103,139,1,stimuli/objects/pitcher02b.jpg,left,old,283,,,,,,,,,,,,,,,
,,,,,,,,27,2021-11-29_18h04.23.160,premceCat2_ses-02_part-02_label-phase2,2020.2.10,MacIntel,60,,,,,right,1.0133,4,0.1642,0,104,104,80,1,stimuli/objects/barbecue03.jpg,right,new,224,,,,,,,,,,,,,,,
,,,,,,,,27,2021-11-29_18h04.23.160,premceCat2_ses-02_part-02_label-phase2,2020.2.10,MacIntel,60,,,,,right,1.2239,4,0.1142,0,105,105,34,1,stimuli/objects/kneepad01c.jpg,right,new,178,,,,,,,,,,,,,,,
,,,,,,,,27,2021-11-29_18h04.23.160,premceCat2_ses-02_part-02_label-phase2,2020.2.10,MacIntel,60,,,,,right,0.8267,4,0.0774,0,106,106,120,1,stimuli/objects/tent.jpg,right,new,264,,,,,,,,,,,,,,,
,,,,,,,,27,2021-11-29_18h04.23.160,premceCat2_ses-02_part-02_label-phase2,2020.2.10,MacIntel,60,,,,,left,2.9521,2,1.0406,,,,,,,,,,left,0.2643,0,0,0,0,1,,,,,,,,
,,,,,,,,27,2021-11-29_18h04.23.160,premceCat2_ses-02_part-02_label-phase2,2020.2.10,MacIntel,60,,,,,,,,,0,107,107,90,1,stimuli/objects/fishinghook03.jpg,left,old,234,,,,,,,,,,,,,,,
,,,,,,,,27,2021-11-29_18h04.23.160,premceCat2_ses-02_part-02_label-phase2,2020.2.10,MacIntel,60,,,,,right,1.0415,4,0.2424,0,108,108,103,1,stimuli/objects/swissarmyknife01a.jpg,right,new,247,,,,,,,,,,,,,,,
,,,,,,,,27,2021-11-29_18h04.23.160,premceCat2_ses-02_part-02_label-phase2,2020.2.10,MacIntel,60,,,,,right,1.1952,4,0.0322,0,109,109,33,1,stimuli/objects/scanner.jpg,left,old,177,,,,,,,,,,,,,,,
,,,,,,,,27,2021-11-29_18h04.23.160,premceCat2_ses-02_part-02_label-phase2,2020.2.10,MacIntel,60,,,,,left,1.1847,4,0.3001,,,,,,,,,,right,0.087,0,0,0,0,1,,,,,,,,
,,,,,,,,27,2021-11-29_18h04.23.160,premceCat2_ses-02_part-02_label-phase2,2020.2.10,MacIntel,60,,,,,,,,,0,110,110,37,1,stimuli/objects/expansioncard.jpg,left,old,181,,,,,,,,,,,,,,,
,,,,,,,,27,2021-11-29_18h04.23.160,premceCat2_ses-02_part-02_label-phase2,2020.2.10,MacIntel,60,,,,,left,1.2329,4,0.286,,,,,,,,,,left,0.2276,0,0,0,0,1,,,,,,,,
,,,,,,,,27,2021-11-29_18h04.23.160,premceCat2_ses-02_part-02_label-phase2,2020.2.10,MacIntel,60,,,,,,,,,0,111,111,74,1,stimuli/objects/patioumbrella.jpg,left,old,218,,,,,,,,,,,,,,,
,,,,,,,,27,2021-11-29_18h04.23.160,premceCat2_ses-02_part-02_label-phase2,2020.2.10,MacIntel,60,,,,,left,1.2674,3,0.8633,,,,,,,,,,left,0.0207,0,0,0,0,1,,,,,,,,
,,,,,,,,27,2021-11-29_18h04.23.160,premceCat2_ses-02_part-02_label-phase2,2020.2.10,MacIntel,60,,,,,,,,,0,112,112,64,1,stimuli/objects/exercisemachine.jpg,left,old,208,,,,,,,,,,,,,,,
,,,,,,,,27,2021-11-29_18h04.23.160,premceCat2_ses-02_part-02_label-phase2,2020.2.10,MacIntel,60,,,,,left,1.142,4,0.1326,,,,,,,,,,right,0.4015,0,0,0,0,1,,,,,,,,
,,,,,,,,27,2021-11-29_18h04.23.160,premceCat2_ses-02_part-02_label-phase2,2020.2.10,MacIntel,60,,,,,,,,,0,113,113,134,1,stimuli/objects/electricoutlet.jpg,left,old,278,,,,,,,,,,,,,,,
,,,,,,,,27,2021-11-29_18h04.23.160,premceCat2_ses-02_part-02_label-phase2,2020.2.10,MacIntel,60,,,,,right,1.5121,4,0.1506,0,114,114,0,1,stimuli/objects/smokedetector02.jpg,right,new,144,,,,,,,,,,,,,,,
,,,,,,,,27,2021-11-29_18h04.23.160,premceCat2_ses-02_part-02_label-phase2,2020.2.10,MacIntel,60,,,,,right,0.9388,4,0.0087,0,115,115,6,1,stimuli/objects/solderingwire.jpg,right,new,150,,,,,,,,,,,,,,,
,,,,,,,,27,2021-11-29_18h04.23.160,premceCat2_ses-02_part-02_label-phase2,2020.2.10,MacIntel,60,,,,,right,4.0343,2,0.2339,0,116,116,13,1,stimuli/objects/gardenshears01a.jpg,left,old,157,,,,,,,,,,,,,,,
,,,,,,,,27,2021-11-29_18h04.23.160,premceCat2_ses-02_part-02_label-phase2,2020.2.10,MacIntel,60,,,,,right,2.0876,3,0.2063,0,117,117,44,1,stimuli/objects/toaster01.jpg,right,new,188,,,,,,,,,,,,,,,
,,,,,,,,27,2021-11-29_18h04.23.160,premceCat2_ses-02_part-02_label-phase2,2020.2.10,MacIntel,60,,,,,left,0.8848,4,0.247,,,,,,,,,,left,0.1629,0,0,0,0,1,,,,,,,,
,,,,,,,,27,2021-11-29_18h04.23.160,premceCat2_ses-02_part-02_label-phase2,2020.2.10,MacIntel,60,,,,,,,,,0,118,118,126,1,stimuli/objects/bikewheel.jpg,left,old,270,,,,,,,,,,,,,,,
,,,,,,,,27,2021-11-29_18h04.23.160,premceCat2_ses-02_part-02_label-phase2,2020.2.10,MacIntel,60,,,,,left,1.0317,2,2.0347,,,,,,,,,,right,0.6821,0,0,0,0,1,,,,,,,,
,,,,,,,,27,2021-11-29_18h04.23.160,premceCat2_ses-02_part-02_label-phase2,2020.2.10,MacIntel,60,,,,,,,,,0,119,119,92,1,stimuli/objects/axe01.jpg,left,old,236,,,,,,,,,,,,,,,
,,,,,,,,27,2021-11-29_18h04.23.160,premceCat2_ses-02_part-02_label-phase2,2020.2.10,MacIntel,60,,,,,right,0.9063,3,0.2528,0,120,120,55,1,stimuli/objects/fonduefork01.jpg,right,new,199,,,,,,,,,,,,,,,
,,,,,,,,27,2021-11-29_18h04.23.160,premceCat2_ses-02_part-02_label-phase2,2020.2.10,MacIntel,60,,,,,right,0.6981,4,0.1807,0,121,121,51,1,stimuli/objects/cheeseknife01.jpg,right,new,195,,,,,,,,,,,,,,,
,,,,,,,,27,2021-11-29_18h04.23.160,premceCat2_ses-02_part-02_label-phase2,2020.2.10,MacIntel,60,,,,,left,1.5653,4,0.9995,,,,,,,,,,right,0.247,0,0,0,0,1,,,,,,,,
,,,,,,,,27,2021-11-29_18h04.23.160,premceCat2_ses-02_part-02_label-phase2,2020.2.10,MacIntel,60,,,,,,,,,0,122,122,61,1,stimuli/objects/flooringstapler.jpg,left,old,205,,,,,,,,,,,,,,,
,,,,,,,,27,2021-11-29_18h04.23.160,premceCat2_ses-02_part-02_label-phase2,2020.2.10,MacIntel,60,,,,,right,1.0156,4,0.2015,0,123,123,69,1,stimuli/objects/straw.jpg,right,new,213,,,,,,,,,,,,,,,
,,,,,,,,27,2021-11-29_18h04.23.160,premceCat2_ses-02_part-02_label-phase2,2020.2.10,MacIntel,60,,,,,right,0.6683,4,0.2846,0,124,124,87,1,stimuli/objects/wiicontroller.jpg,right,new,231,,,,,,,,,,,,,,,
,,,,,,,,27,2021-11-29_18h04.23.160,premceCat2_ses-02_part-02_label-phase2,2020.2.10,MacIntel,60,,,,,left,1.4057,4,0.4038,,,,,,,,,,left,0.2003,0,0,0,0,1,,,,,,,,
,,,,,,,,27,2021-11-29_18h04.23.160,premceCat2_ses-02_part-02_label-phase2,2020.2.10,MacIntel,60,,,,,,,,,0,125,125,31,1,stimuli/objects/cooler01.jpg,left,old,175,,,,,,,,,,,,,,,
,,,,,,,,27,2021-11-29_18h04.23.160,premceCat2_ses-02_part-02_label-phase2,2020.2.10,MacIntel,60,,,,,right,2.1312,4,0.7309,0,126,126,137,1,stimuli/objects/nutcracker01.jpg,right,new,281,,,,,,,,,,,,,,,
,,,,,,,,27,2021-11-29_18h04.23.160,premceCat2_ses-02_part-02_label-phase2,2020.2.10,MacIntel,60,,,,,left,2.0082,4,0.5029,,,,,,,,,,right,0.1991,0,0,0,0,1,,,,,,,,
,,,,,,,,27,2021-11-29_18h04.23.160,premceCat2_ses-02_part-02_label-phase2,2020.2.10,MacIntel,60,,,,,,,,,0,127,127,18,1,stimuli/objects/fanblades.jpg,left,old,162,,,,,,,,,,,,,,,
,,,,,,,,27,2021-11-29_18h04.23.160,premceCat2_ses-02_part-02_label-phase2,2020.2.10,MacIntel,60,,,,,right,2.7757,3,1.7861,0,128,128,88,1,stimuli/objects/iceskate.jpg,left,old,232,,,,,,,,,,,,,,,
,,,,,,,,27,2021-11-29_18h04.23.160,premceCat2_ses-02_part-02_label-phase2,2020.2.10,MacIntel,60,,,,,left,1.0845,4,1.1006,,,,,,,,,,left,1.0192,0,0,0,0,1,,,,,,,,
,,,,,,,,27,2021-11-29_18h04.23.160,premceCat2_ses-02_part-02_label-phase2,2020.2.10,MacIntel,60,,,,,,,,,0,129,129,56,1,stimuli/objects/cork02.jpg,left,old,200,,,,,,,,,,,,,,,
,,,,,,,,27,2021-11-29_18h04.23.160,premceCat2_ses-02_part-02_label-phase2,2020.2.10,MacIntel,60,,,,,left,1.35,4,0.3002,,,,,,,,,,right,0.7086,0,0,0,0,1,,,,,,,,
,,,,,,,,27,2021-11-29_18h04.23.160,premceCat2_ses-02_part-02_label-phase2,2020.2.10,MacIntel,60,,,,,,,,,0,130,130,25,1,stimuli/objects/cowbell.jpg,left,old,169,,,,,,,,,,,,,,,
,,,,,,,,27,2021-11-29_18h04.23.160,premceCat2_ses-02_part-02_label-phase2,2020.2.10,MacIntel,60,,,,,left,1.1308,4,0.0497,,,,,,,,,,right,0.0645,0,0,0,0,1,,,,,,,,
,,,,,,,,27,2021-11-29_18h04.23.160,premceCat2_ses-02_part-02_label-phase2,2020.2.10,MacIntel,60,,,,,,,,,0,131,131,54,1,stimuli/objects/ladder.jpg,left,old,198,,,,,,,,,,,,,,,
,,,,,,,,27,2021-11-29_18h04.23.160,premceCat2_ses-02_part-02_label-phase2,2020.2.10,MacIntel,60,,,,,right,1.4959,3,0.3004,0,132,132,36,1,stimuli/objects/loppingshears.jpg,right,new,180,,,,,,,,,,,,,,,
,,,,,,,,27,2021-11-29_18h04.23.160,premceCat2_ses-02_part-02_label-phase2,2020.2.10,MacIntel,60,,,,,right,1.2167,3,0.1465,0,133,133,141,1,stimuli/objects/waterbottle03.jpg,left,old,285,,,,,,,,,,,,,,,
,,,,,,,,27,2021-11-29_18h04.23.160,premceCat2_ses-02_part-02_label-phase2,2020.2.10,MacIntel,60,,,,,left,1.0692,4,0.1351,,,,,,,,,,left,0.2717,0,0,0,0,1,,,,,,,,
,,,,,,,,27,2021-11-29_18h04.23.160,premceCat2_ses-02_part-02_label-phase2,2020.2.10,MacIntel,60,,,,,,,,,0,134,134,7,1,stimuli/objects/bottlecap.jpg,left,old,151,,,,,,,,,,,,,,,
,,,,,,,,27,2021-11-29_18h04.23.160,premceCat2_ses-02_part-02_label-phase2,2020.2.10,MacIntel,60,,,,,right,0.9797,4,0.2881,0,135,135,116,1,stimuli/objects/lockingplier.jpg,right,new,260,,,,,,,,,,,,,,,
,,,,,,,,27,2021-11-29_18h04.23.160,premceCat2_ses-02_part-02_label-phase2,2020.2.10,MacIntel,60,,,,,left,4.2017,1,0.8774,,,,,,,,,,right,0.8161,0,0,0,0,1,,,,,,,,
,,,,,,,,27,2021-11-29_18h04.23.160,premceCat2_ses-02_part-02_label-phase2,2020.2.10,MacIntel,60,,,,,,,,,0,136,136,53,1,stimuli/objects/staplegun.jpg,left,old,197,,,,,,,,,,,,,,,
,,,,,,,,27,2021-11-29_18h04.23.160,premceCat2_ses-02_part-02_label-phase2,2020.2.10,MacIntel,60,,,,,left,0.9118,4,0.2172,,,,,,,,,,left,0.1501,0,0,0,0,1,,,,,,,,
,,,,,,,,27,2021-11-29_18h04.23.160,premceCat2_ses-02_part-02_label-phase2,2020.2.10,MacIntel,60,,,,,,,,,0,137,137,128,1,stimuli/objects/hourglass.jpg,left,old,272,,,,,,,,,,,,,,,
,,,,,,,,27,2021-11-29_18h04.23.160,premceCat2_ses-02_part-02_label-phase2,2020.2.10,MacIntel,60,,,,,left,1.4535,4,0.3123,,,,,,,,,,right,0.0591,0,0,0,0,1,,,,,,,,
,,,,,,,,27,2021-11-29_18h04.23.160,premceCat2_ses-02_part-02_label-phase2,2020.2.10,MacIntel,60,,,,,,,,,0,138,138,106,1,stimuli/objects/phonejack.jpg,left,old,250,,,,,,,,,,,,,,,
,,,,,,,,27,2021-11-29_18h04.23.160,premceCat2_ses-02_part-02_label-phase2,2020.2.10,MacIntel,60,,,,,right,1.1144,4,0.153,0,139,139,26,1,stimuli/objects/flashlight02b.jpg,right,new,170,,,,,,,,,,,,,,,
,,,,,,,,27,2021-11-29_18h04.23.160,premceCat2_ses-02_part-02_label-phase2,2020.2.10,MacIntel,60,,,,,right,0.8325,4,0.0729,0,140,140,124,1,stimuli/objects/basketball01.jpg,right,new,268,,,,,,,,,,,,,,,
,,,,,,,,27,2021-11-29_18h04.23.160,premceCat2_ses-02_part-02_label-phase2,2020.2.10,MacIntel,60,,,,,right,0.6668,4,0.0316,0,141,141,95,1,stimuli/objects/tennisball01b.jpg,right,new,239,,,,,,,,,,,,,,,
,,,,,,,,27,2021-11-29_18h04.23.160,premceCat2_ses-02_part-02_label-phase2,2020.2.10,MacIntel,60,,,,,right,1.1742,4,0.0003,0,142,142,75,1,stimuli/objects/painttray.jpg,left,old,219,,,,,,,,,,,,,,,
,,,,,,,,27,2021-11-29_18h04.23.160,premceCat2_ses-02_part-02_label-phase2,2020.2.10,MacIntel,60,,,,,,,,,,,,,,,,,,,,,,,,,space,2.3565,0,1,1,1,1,condition_files/ImagesforRecog4_2.csv
