myownaccuracy,respcorrs,minNrPractice,considerNrTrials,Instr_resp.keys,Instr_resp.rt,taskGoresp.keys,taskGoresp.rt,warmup_resp.keys,warmup_resp.corr,warmup_resp.rt,myownaccuracyCORR,trials.thisRepN,trials.thisTrialN,trials.thisN,trials.thisIndex,trials.ran,first_character,second_character,Cue,left_categ,centleft_categ,centright_categ,right_categ,corr_ans,trial_cond,switch_cond,cuedCharacter,obj_category,image,participant,date,expName,psychopyVersion,OS,frameRate,task_resp.keys,task_resp.corr,task_resp.rt,task_loop.thisRepN,task_loop.thisTrialN,task_loop.thisN,task_loop.thisIndex,task_loop.ran,list_loop.thisRepN,list_loop.thisTrialN,list_loop.thisN,list_loop.thisIndex,list_loop.ran,conditions
0,[],10,10,space,4.3364,space,6.7973,3,0,0.6506,0,0,0,0,0,1,stimuli/m5.jpg,stimuli/m2.jpg,1,stimuli/Outdoor activity & sport item.png,stimuli/Hand labour tool & accessory.png,stimuli/Kitchen & utensil.png,stimuli/Electronic device & accessory.png,2,1,1,stimuli/m5.jpg,Hand labour tool & accessory,stimuli/objects/handrake01a.jpg,28,2021-11-29_18h31.55.145,premceCat2_ses-02_part-01_label-phase1,2020.2.9,Win32,60,,,,,,,,,,,,,,
1,[],,,,,,,4,1,0.4708,1,0,1,1,1,1,stimuli/m2.jpg,stimuli/m5.jpg,2,stimuli/Outdoor activity & sport item.png,stimuli/Electronic device & accessory.png,stimuli/Kitchen & utensil.png,stimuli/Hand labour tool & accessory.png,4,1,1,stimuli/m5.jpg,Hand labour tool & accessory,stimuli/objects/jumpingjack.jpg,28,2021-11-29_18h31.55.145,premceCat2_ses-02_part-01_label-phase1,2020.2.9,Win32,60,,,,,,,,,,,,,,
1,[],,,,,,,3,1,1.2571,1,0,2,2,2,1,stimuli/m2.jpg,stimuli/m5.jpg,1,stimuli/Kitchen & utensil.png,stimuli/Hand labour tool & accessory.png,stimuli/Outdoor activity & sport item.png,stimuli/Electronic device & accessory.png,3,1,1,stimuli/m2.jpg,Outdoor activity & sport item,stimuli/objects/racquetballracket.jpg,28,2021-11-29_18h31.55.145,premceCat2_ses-02_part-01_label-phase1,2020.2.9,Win32,60,,,,,,,,,,,,,,
1,[],,,,,,,4,1,0.6955,1,0,3,3,3,1,stimuli/m2.jpg,stimuli/m5.jpg,1,stimuli/Electronic device & accessory.png,stimuli/Hand labour tool & accessory.png,stimuli/Kitchen & utensil.png,stimuli/Outdoor activity & sport item.png,4,1,1,stimuli/m2.jpg,Outdoor activity & sport item,stimuli/objects/racquetballracket.jpg,28,2021-11-29_18h31.55.145,premceCat2_ses-02_part-01_label-phase1,2020.2.9,Win32,60,,,,,,,,,,,,,,
1,[],,,,,,,1,1,1.1954,1,0,4,4,4,1,stimuli/m2.jpg,stimuli/m5.jpg,1,stimuli/Outdoor activity & sport item.png,stimuli/Kitchen & utensil.png,stimuli/Hand labour tool & accessory.png,stimuli/Electronic device & accessory.png,1,1,1,stimuli/m2.jpg,Outdoor activity & sport item,stimuli/objects/crosscountryski.jpg,28,2021-11-29_18h31.55.145,premceCat2_ses-02_part-01_label-phase1,2020.2.9,Win32,60,,,,,,,,,,,,,,
1,[],,,,,,,1,1,0.746,1,0,5,5,5,1,stimuli/m2.jpg,stimuli/m5.jpg,1,stimuli/Outdoor activity & sport item.png,stimuli/Electronic device & accessory.png,stimuli/Hand labour tool & accessory.png,stimuli/Kitchen & utensil.png,1,1,1,stimuli/m2.jpg,Outdoor activity & sport item,stimuli/objects/crosscountryski.jpg,28,2021-11-29_18h31.55.145,premceCat2_ses-02_part-01_label-phase1,2020.2.9,Win32,60,,,,,,,,,,,,,,
0,[],,,,,,,2,0,0.4623,0,0,6,6,6,1,stimuli/m5.jpg,stimuli/m2.jpg,1,stimuli/Outdoor activity & sport item.png,stimuli/Electronic device & accessory.png,stimuli/Hand labour tool & accessory.png,stimuli/Kitchen & utensil.png,3,1,1,stimuli/m5.jpg,Hand labour tool & accessory,stimuli/objects/jumpingjack.jpg,28,2021-11-29_18h31.55.145,premceCat2_ses-02_part-01_label-phase1,2020.2.9,Win32,60,,,,,,,,,,,,,,
0,[],,,,,,,2,0,0.9288,0,0,7,7,7,1,stimuli/m2.jpg,stimuli/m5.jpg,2,stimuli/Outdoor activity & sport item.png,stimuli/Electronic device & accessory.png,stimuli/Hand labour tool & accessory.png,stimuli/Kitchen & utensil.png,4,0,1,stimuli/m5.jpg,Kitchen & utensil,stimuli/objects/jug.jpg,28,2021-11-29_18h31.55.145,premceCat2_ses-02_part-01_label-phase1,2020.2.9,Win32,60,,,,,,,,,,,,,,
1,[],,,,,,,2,1,1.3341,1,0,8,8,8,1,stimuli/m5.jpg,stimuli/m2.jpg,1,stimuli/Outdoor activity & sport item.png,stimuli/Hand labour tool & accessory.png,stimuli/Electronic device & accessory.png,stimuli/Kitchen & utensil.png,2,1,1,stimuli/m5.jpg,Hand labour tool & accessory,stimuli/objects/pitchfork.jpg,28,2021-11-29_18h31.55.145,premceCat2_ses-02_part-01_label-phase1,2020.2.9,Win32,60,,,,,,,,,,,,,,
0,[],,,,,,,4,0,1.1718,1,0,9,9,9,1,stimuli/m5.jpg,stimuli/m2.jpg,2,stimuli/Kitchen & utensil.png,stimuli/Hand labour tool & accessory.png,stimuli/Electronic device & accessory.png,stimuli/Outdoor activity & sport item.png,2,0,1,stimuli/m2.jpg,Hand labour tool & accessory,stimuli/objects/boxcutter03a.jpg,28,2021-11-29_18h31.55.145,premceCat2_ses-02_part-01_label-phase1,2020.2.9,Win32,60,,,,,,,,,,,,,,
0,[],,,,,,,2,0,0.9634,0,0,10,10,10,1,stimuli/m5.jpg,stimuli/m2.jpg,1,stimuli/Kitchen & utensil.png,stimuli/Outdoor activity & sport item.png,stimuli/Electronic device & accessory.png,stimuli/Hand labour tool & accessory.png,4,1,1,stimuli/m5.jpg,Hand labour tool & accessory,stimuli/objects/gavel.jpg,28,2021-11-29_18h31.55.145,premceCat2_ses-02_part-01_label-phase1,2020.2.9,Win32,60,,,,,,,,,,,,,,
0,[],,,,,,,3,0,0.7449,0,0,11,11,11,1,stimuli/m5.jpg,stimuli/m2.jpg,1,stimuli/Kitchen & utensil.png,stimuli/Hand labour tool & accessory.png,stimuli/Electronic device & accessory.png,stimuli/Outdoor activity & sport item.png,4,0,1,stimuli/m5.jpg,Outdoor activity & sport item,stimuli/objects/swing.jpg,28,2021-11-29_18h31.55.145,premceCat2_ses-02_part-01_label-phase1,2020.2.9,Win32,60,,,,,,,,,,,,,,
1,[],,,,,,,1,1,0.9587,1,0,12,12,12,1,stimuli/m5.jpg,stimuli/m2.jpg,2,stimuli/Outdoor activity & sport item.png,stimuli/Electronic device & accessory.png,stimuli/Kitchen & utensil.png,stimuli/Hand labour tool & accessory.png,1,1,1,stimuli/m2.jpg,Outdoor activity & sport item,stimuli/objects/bicycle.jpg,28,2021-11-29_18h31.55.145,premceCat2_ses-02_part-01_label-phase1,2020.2.9,Win32,60,,,,,,,,,,,,,,
0,[],,,,,,,3,0,0.9432,0,0,13,13,13,1,stimuli/m2.jpg,stimuli/m5.jpg,1,stimuli/Electronic device & accessory.png,stimuli/Outdoor activity & sport item.png,stimuli/Hand labour tool & accessory.png,stimuli/Kitchen & utensil.png,2,1,1,stimuli/m2.jpg,Outdoor activity & sport item,stimuli/objects/racquetballracket.jpg,28,2021-11-29_18h31.55.145,premceCat2_ses-02_part-01_label-phase1,2020.2.9,Win32,60,,,,,,,,,,,,,,
0,[],,,,,,,4,0,1.1279,0,0,14,14,14,1,stimuli/m5.jpg,stimuli/m2.jpg,1,stimuli/Hand labour tool & accessory.png,stimuli/Outdoor activity & sport item.png,stimuli/Kitchen & utensil.png,stimuli/Electronic device & accessory.png,3,0,1,stimuli/m5.jpg,Kitchen & utensil,stimuli/objects/freezer02.jpg,28,2021-11-29_18h31.55.145,premceCat2_ses-02_part-01_label-phase1,2020.2.9,Win32,60,,,,,,,,,,,,,,
0,[],,,,,,,4,0,1.0503,0,0,15,15,15,1,stimuli/m2.jpg,stimuli/m5.jpg,1,stimuli/Kitchen & utensil.png,stimuli/Hand labour tool & accessory.png,stimuli/Electronic device & accessory.png,stimuli/Outdoor activity & sport item.png,2,0,1,stimuli/m2.jpg,Hand labour tool & accessory,stimuli/objects/handrake01a.jpg,28,2021-11-29_18h31.55.145,premceCat2_ses-02_part-01_label-phase1,2020.2.9,Win32,60,,,,,,,,,,,,,,
1,[],,,,,,,2,1,0.8757,1,0,16,16,16,1,stimuli/m5.jpg,stimuli/m2.jpg,2,stimuli/Hand labour tool & accessory.png,stimuli/Outdoor activity & sport item.png,stimuli/Kitchen & utensil.png,stimuli/Electronic device & accessory.png,2,1,1,stimuli/m2.jpg,Outdoor activity & sport item,stimuli/objects/rollerblade.jpg,28,2021-11-29_18h31.55.145,premceCat2_ses-02_part-01_label-phase1,2020.2.9,Win32,60,,,,,,,,,,,,,,
0,[],,,,,,,3,0,0.7119,0,0,17,17,17,1,stimuli/m2.jpg,stimuli/m5.jpg,2,stimuli/Hand labour tool & accessory.png,stimuli/Kitchen & utensil.png,stimuli/Electronic device & accessory.png,stimuli/Outdoor activity & sport item.png,1,1,1,stimuli/m5.jpg,Hand labour tool & accessory,stimuli/objects/hedgetrimmer.jpg,28,2021-11-29_18h31.55.145,premceCat2_ses-02_part-01_label-phase1,2020.2.9,Win32,60,,,,,,,,,,,,,,
0,[],,,,,,,3,0,1.3288,0,0,18,18,18,1,stimuli/m5.jpg,stimuli/m2.jpg,1,stimuli/Hand labour tool & accessory.png,stimuli/Outdoor activity & sport item.png,stimuli/Electronic device & accessory.png,stimuli/Kitchen & utensil.png,1,1,1,stimuli/m5.jpg,Hand labour tool & accessory,stimuli/objects/jumpingjack.jpg,28,2021-11-29_18h31.55.145,premceCat2_ses-02_part-01_label-phase1,2020.2.9,Win32,60,,,,,,,,,,,,,,
0,[],,,,,,,,,,0,,,,,,stimuli/m2.jpg,stimuli/m5.jpg,2,stimuli/Electronic device & accessory.png,stimuli/Kitchen & utensil.png,stimuli/Hand labour tool & accessory.png,stimuli/Outdoor activity & sport item.png,2,0,2,stimuli/m5.jpg,Kitchen & utensil,stimuli/objects/woodenspoon.jpg,28,2021-11-29_18h31.55.145,premceCat2_ses-02_part-01_label-phase1,2020.2.9,Win32,60,4,0,0.7575,0,0,0,0,1,,,,,,
1,[],,,,,,,,,,1,,,,,,stimuli/m2.jpg,stimuli/m5.jpg,1,stimuli/Kitchen & utensil.png,stimuli/Outdoor activity & sport item.png,stimuli/Electronic device & accessory.png,stimuli/Hand labour tool & accessory.png,2,1,2,stimuli/m2.jpg,Outdoor activity & sport item,stimuli/objects/ellipticalmachine.jpg,28,2021-11-29_18h31.55.145,premceCat2_ses-02_part-01_label-phase1,2020.2.9,Win32,60,2,1,0.5365,0,1,1,1,1,,,,,,
0,[1],,,,,,,,,,1,,,,,,stimuli/m2.jpg,stimuli/m5.jpg,2,stimuli/Electronic device & accessory.png,stimuli/Hand labour tool & accessory.png,stimuli/Outdoor activity & sport item.png,stimuli/Kitchen & utensil.png,3,0,2,stimuli/m5.jpg,Outdoor activity & sport item,stimuli/objects/reflector.jpg,28,2021-11-29_18h31.55.145,premceCat2_ses-02_part-01_label-phase1,2020.2.9,Win32,60,1,0,0.948,0,2,2,2,1,,,,,,
1,[1],,,,,,,,,,1,,,,,,stimuli/m2.jpg,stimuli/m5.jpg,2,stimuli/Kitchen & utensil.png,stimuli/Hand labour tool & accessory.png,stimuli/Electronic device & accessory.png,stimuli/Outdoor activity & sport item.png,2,1,2,stimuli/m5.jpg,Hand labour tool & accessory,stimuli/objects/rope03.jpg,28,2021-11-29_18h31.55.145,premceCat2_ses-02_part-01_label-phase1,2020.2.9,Win32,60,2,1,0.9455,0,3,3,3,1,,,,,,
0,"[1,1]",,,,,,,,,,1,,,,,,stimuli/m2.jpg,stimuli/m5.jpg,1,stimuli/Kitchen & utensil.png,stimuli/Hand labour tool & accessory.png,stimuli/Electronic device & accessory.png,stimuli/Outdoor activity & sport item.png,3,0,2,stimuli/m2.jpg,Electronic device & accessory,stimuli/objects/usbkey.jpg,28,2021-11-29_18h31.55.145,premceCat2_ses-02_part-01_label-phase1,2020.2.9,Win32,60,4,0,0.767,0,4,4,4,1,,,,,,
1,"[1,1]",,,,,,,,,,1,,,,,,stimuli/m5.jpg,stimuli/m2.jpg,2,stimuli/Hand labour tool & accessory.png,stimuli/Electronic device & accessory.png,stimuli/Kitchen & utensil.png,stimuli/Outdoor activity & sport item.png,4,1,2,stimuli/m2.jpg,Outdoor activity & sport item,stimuli/objects/sportbag.jpg,28,2021-11-29_18h31.55.145,premceCat2_ses-02_part-01_label-phase1,2020.2.9,Win32,60,4,1,0.8544,0,5,5,5,1,,,,,,
0,"[1,1,1]",,,,,,,,,,1,,,,,,stimuli/m5.jpg,stimuli/m2.jpg,1,stimuli/Electronic device & accessory.png,stimuli/Outdoor activity & sport item.png,stimuli/Kitchen & utensil.png,stimuli/Hand labour tool & accessory.png,1,0,2,stimuli/m5.jpg,Electronic device & accessory,stimuli/objects/lamp04a.jpg,28,2021-11-29_18h31.55.145,premceCat2_ses-02_part-01_label-phase1,2020.2.9,Win32,60,2,0,0.4771,0,6,6,6,1,,,,,,
0,"[1,1,1]",,,,,,,,,,1,,,,,,stimuli/m2.jpg,stimuli/m5.jpg,2,stimuli/Electronic device & accessory.png,stimuli/Kitchen & utensil.png,stimuli/Outdoor activity & sport item.png,stimuli/Hand labour tool & accessory.png,2,0,2,stimuli/m5.jpg,Kitchen & utensil,stimuli/objects/fryingpan02a.jpg,28,2021-11-29_18h31.55.145,premceCat2_ses-02_part-01_label-phase1,2020.2.9,Win32,60,1,0,1.1432,0,7,7,7,1,,,,,,
0,"[1,1,1]",,,,,,,,,,0,,,,,,stimuli/m5.jpg,stimuli/m2.jpg,2,stimuli/Outdoor activity & sport item.png,stimuli/Hand labour tool & accessory.png,stimuli/Kitchen & utensil.png,stimuli/Electronic device & accessory.png,1,1,2,stimuli/m2.jpg,Outdoor activity & sport item,stimuli/objects/toyhockeystick01.jpg,28,2021-11-29_18h31.55.145,premceCat2_ses-02_part-01_label-phase1,2020.2.9,Win32,60,4,0,0.8009,0,8,8,8,1,,,,,,
0,"[1,1,1,0]",,,,,,,,,,0,,,,,,stimuli/m2.jpg,stimuli/m5.jpg,1,stimuli/Electronic device & accessory.png,stimuli/Hand labour tool & accessory.png,stimuli/Kitchen & utensil.png,stimuli/Outdoor activity & sport item.png,4,1,2,stimuli/m2.jpg,Outdoor activity & sport item,stimuli/objects/fishinghook03.jpg,28,2021-11-29_18h31.55.145,premceCat2_ses-02_part-01_label-phase1,2020.2.9,Win32,60,2,0,0.3783,0,9,9,9,1,,,,,,
0,"[1,1,1,0,0]",,,,,,,,,,0,,,,,,stimuli/m2.jpg,stimuli/m5.jpg,1,stimuli/Electronic device & accessory.png,stimuli/Outdoor activity & sport item.png,stimuli/Hand labour tool & accessory.png,stimuli/Kitchen & utensil.png,2,1,2,stimuli/m2.jpg,Outdoor activity & sport item,stimuli/objects/volleyball.jpg,28,2021-11-29_18h31.55.145,premceCat2_ses-02_part-01_label-phase1,2020.2.9,Win32,60,3,0,0.4627,0,10,10,10,1,,,,,,
0,"[1,1,1,0,0,0]",,,,,,,,,,0,,,,,,stimuli/m5.jpg,stimuli/m2.jpg,1,stimuli/Electronic device & accessory.png,stimuli/Outdoor activity & sport item.png,stimuli/Hand labour tool & accessory.png,stimuli/Kitchen & utensil.png,3,1,2,stimuli/m5.jpg,Hand labour tool & accessory,stimuli/objects/gluetube.jpg,28,2021-11-29_18h31.55.145,premceCat2_ses-02_part-01_label-phase1,2020.2.9,Win32,60,2,0,0.87,0,11,11,11,1,,,,,,
0,"[1,1,1,0,0,0,0]",,,,,,,,,,0,,,,,,stimuli/m2.jpg,stimuli/m5.jpg,2,stimuli/Kitchen & utensil.png,stimuli/Hand labour tool & accessory.png,stimuli/Outdoor activity & sport item.png,stimuli/Electronic device & accessory.png,2,1,2,stimuli/m5.jpg,Hand labour tool & accessory,stimuli/objects/toyhardhat.jpg,28,2021-11-29_18h31.55.145,premceCat2_ses-02_part-01_label-phase1,2020.2.9,Win32,60,4,0,0.5649,0,12,12,12,1,,,,,,
1,"[1,1,1,0,0,0,0,0]",,,,,,,,,,1,,,,,,stimuli/m5.jpg,stimuli/m2.jpg,2,stimuli/Kitchen & utensil.png,stimuli/Outdoor activity & sport item.png,stimuli/Hand labour tool & accessory.png,stimuli/Electronic device & accessory.png,2,1,2,stimuli/m2.jpg,Outdoor activity & sport item,stimuli/objects/cooler01.jpg,28,2021-11-29_18h31.55.145,premceCat2_ses-02_part-01_label-phase1,2020.2.9,Win32,60,2,1,0.8286,0,13,13,13,1,,,,,,
0,"[1,1,1,0,0,0,0,0,1]",,,,,,,,,,1,,,,,,stimuli/m2.jpg,stimuli/m5.jpg,1,stimuli/Outdoor activity & sport item.png,stimuli/Kitchen & utensil.png,stimuli/Hand labour tool & accessory.png,stimuli/Electronic device & accessory.png,2,0,2,stimuli/m2.jpg,Kitchen & utensil,stimuli/objects/toothpick02.jpg,28,2021-11-29_18h31.55.145,premceCat2_ses-02_part-01_label-phase1,2020.2.9,Win32,60,1,0,1.0738,0,14,14,14,1,,,,,,
1,"[1,1,1,0,0,0,0,0,1]",,,,,,,,,,1,,,,,,stimuli/m2.jpg,stimuli/m5.jpg,1,stimuli/Electronic device & accessory.png,stimuli/Hand labour tool & accessory.png,stimuli/Outdoor activity & sport item.png,stimuli/Kitchen & utensil.png,4,0,2,stimuli/m2.jpg,Kitchen & utensil,stimuli/objects/spatula04.jpg,28,2021-11-29_18h31.55.145,premceCat2_ses-02_part-01_label-phase1,2020.2.9,Win32,60,4,1,1.0307,0,15,15,15,1,,,,,,
0,"[1,1,1,0,0,0,0,0,1]",,,,,,,,,,0,,,,,,stimuli/m5.jpg,stimuli/m2.jpg,1,stimuli/Kitchen & utensil.png,stimuli/Outdoor activity & sport item.png,stimuli/Hand labour tool & accessory.png,stimuli/Electronic device & accessory.png,3,1,2,stimuli/m5.jpg,Hand labour tool & accessory,stimuli/objects/saw02b.jpg,28,2021-11-29_18h31.55.145,premceCat2_ses-02_part-01_label-phase1,2020.2.9,Win32,60,1,0,0.614,0,16,16,16,1,,,,,,
1,"[1,1,1,0,0,0,0,0,1,0]",,,,,,,,,,0,,,,,,stimuli/m2.jpg,stimuli/m5.jpg,2,stimuli/Outdoor activity & sport item.png,stimuli/Electronic device & accessory.png,stimuli/Hand labour tool & accessory.png,stimuli/Kitchen & utensil.png,2,0,2,stimuli/m5.jpg,Electronic device & accessory,stimuli/objects/carantenna.jpg,28,2021-11-29_18h31.55.145,premceCat2_ses-02_part-01_label-phase1,2020.2.9,Win32,60,2,1,0.8765,0,17,17,17,1,,,,,,
1,"[1,1,1,0,0,0,0,0,1,0]",,,,,,,,,,1,,,,,,stimuli/m5.jpg,stimuli/m2.jpg,2,stimuli/Electronic device & accessory.png,stimuli/Outdoor activity & sport item.png,stimuli/Kitchen & utensil.png,stimuli/Hand labour tool & accessory.png,2,1,2,stimuli/m2.jpg,Outdoor activity & sport item,stimuli/objects/canoepaddle02.jpg,28,2021-11-29_18h31.55.145,premceCat2_ses-02_part-01_label-phase1,2020.2.9,Win32,60,2,1,0.7812,0,18,18,18,1,,,,,,
1,"[1,1,1,0,0,0,0,0,1,0,1]",,,,,,,,,,1,,,,,,stimuli/m2.jpg,stimuli/m5.jpg,2,stimuli/Hand labour tool & accessory.png,stimuli/Outdoor activity & sport item.png,stimuli/Kitchen & utensil.png,stimuli/Electronic device & accessory.png,1,1,2,stimuli/m5.jpg,Hand labour tool & accessory,stimuli/objects/snowshovel.jpg,28,2021-11-29_18h31.55.145,premceCat2_ses-02_part-01_label-phase1,2020.2.9,Win32,60,1,1,1.1794,0,19,19,19,1,,,,,,
1,"[1,1,1,0,0,0,0,0,1,0,1,1]",,,,,,,,,,1,,,,,,stimuli/m2.jpg,stimuli/m5.jpg,1,stimuli/Hand labour tool & accessory.png,stimuli/Electronic device & accessory.png,stimuli/Outdoor activity & sport item.png,stimuli/Kitchen & utensil.png,3,1,2,stimuli/m2.jpg,Outdoor activity & sport item,stimuli/objects/surfboard.jpg,28,2021-11-29_18h31.55.145,premceCat2_ses-02_part-01_label-phase1,2020.2.9,Win32,60,3,1,0.9492,0,20,20,20,1,,,,,,
0,"[1,1,1,0,0,0,0,0,1,0,1,1,1]",,,,,,,,,,0,,,,,,stimuli/m5.jpg,stimuli/m2.jpg,1,stimuli/Electronic device & accessory.png,stimuli/Kitchen & utensil.png,stimuli/Outdoor activity & sport item.png,stimuli/Hand labour tool & accessory.png,4,1,2,stimuli/m5.jpg,Hand labour tool & accessory,stimuli/objects/chainsaw.jpg,28,2021-11-29_18h31.55.145,premceCat2_ses-02_part-01_label-phase1,2020.2.9,Win32,60,1,0,0.7162,0,21,21,21,1,,,,,,
1,"[1,1,1,0,0,0,0,0,1,0,1,1,1,0]",,,,,,,,,,1,,,,,,stimuli/m2.jpg,stimuli/m5.jpg,1,stimuli/Hand labour tool & accessory.png,stimuli/Kitchen & utensil.png,stimuli/Electronic device & accessory.png,stimuli/Outdoor activity & sport item.png,4,1,2,stimuli/m2.jpg,Outdoor activity & sport item,stimuli/objects/bikelock.jpg,28,2021-11-29_18h31.55.145,premceCat2_ses-02_part-01_label-phase1,2020.2.9,Win32,60,4,1,0.6562,0,22,22,22,1,,,,,,
1,"[1,1,1,0,0,0,0,0,1,0,1,1,1,0,1]",,,,,,,,,,1,,,,,,stimuli/m2.jpg,stimuli/m5.jpg,2,stimuli/Kitchen & utensil.png,stimuli/Electronic device & accessory.png,stimuli/Hand labour tool & accessory.png,stimuli/Outdoor activity & sport item.png,3,1,2,stimuli/m5.jpg,Hand labour tool & accessory,stimuli/objects/lawnmower.jpg,28,2021-11-29_18h31.55.145,premceCat2_ses-02_part-01_label-phase1,2020.2.9,Win32,60,3,1,0.8445,0,23,23,23,1,,,,,,
1,"[1,1,1,0,0,0,0,0,1,0,1,1,1,0,1,1]",,,,,,,,,,1,,,,,,stimuli/m5.jpg,stimuli/m2.jpg,2,stimuli/Electronic device & accessory.png,stimuli/Hand labour tool & accessory.png,stimuli/Kitchen & utensil.png,stimuli/Outdoor activity & sport item.png,1,0,2,stimuli/m2.jpg,Electronic device & accessory,stimuli/objects/fluorescentlightbulb.jpg,28,2021-11-29_18h31.55.145,premceCat2_ses-02_part-01_label-phase1,2020.2.9,Win32,60,1,1,0.6444,0,24,24,24,1,,,,,,
0,"[1,1,1,0,0,0,0,0,1,0,1,1,1,0,1,1]",,,,,,,,,,0,,,,,,stimuli/m2.jpg,stimuli/m5.jpg,2,stimuli/Hand labour tool & accessory.png,stimuli/Outdoor activity & sport item.png,stimuli/Electronic device & accessory.png,stimuli/Kitchen & utensil.png,1,1,2,stimuli/m5.jpg,Hand labour tool & accessory,stimuli/objects/adjustablewrench01b.jpg,28,2021-11-29_18h31.55.145,premceCat2_ses-02_part-01_label-phase1,2020.2.9,Win32,60,4,0,1.1943,0,25,25,25,1,,,,,,
1,"[1,1,1,0,0,0,0,0,1,0,1,1,1,0,1,1,0]",,,,,,,,,,1,,,,,,stimuli/m5.jpg,stimuli/m2.jpg,1,stimuli/Kitchen & utensil.png,stimuli/Hand labour tool & accessory.png,stimuli/Outdoor activity & sport item.png,stimuli/Electronic device & accessory.png,2,1,2,stimuli/m5.jpg,Hand labour tool & accessory,stimuli/objects/boltcutter.jpg,28,2021-11-29_18h31.55.145,premceCat2_ses-02_part-01_label-phase1,2020.2.9,Win32,60,2,1,0.9185,0,26,26,26,1,,,,,,
0,"[1,1,1,0,0,0,0,0,1,0,1,1,1,0,1,1,0,1]",,,,,,,,,,0,,,,,,stimuli/m5.jpg,stimuli/m2.jpg,2,stimuli/Kitchen & utensil.png,stimuli/Hand labour tool & accessory.png,stimuli/Electronic device & accessory.png,stimuli/Outdoor activity & sport item.png,4,1,2,stimuli/m2.jpg,Outdoor activity & sport item,stimuli/objects/fishingrod.jpg,28,2021-11-29_18h31.55.145,premceCat2_ses-02_part-01_label-phase1,2020.2.9,Win32,60,2,0,0.6379,0,27,27,27,1,,,,,,
1,"[1,1,1,0,0,0,0,0,1,0,1,1,1,0,1,1,0,1,0]",,,,,,,,,,1,,,,,,stimuli/m2.jpg,stimuli/m5.jpg,1,stimuli/Hand labour tool & accessory.png,stimuli/Kitchen & utensil.png,stimuli/Outdoor activity & sport item.png,stimuli/Electronic device & accessory.png,3,1,2,stimuli/m2.jpg,Outdoor activity & sport item,stimuli/objects/swimgoggles.jpg,28,2021-11-29_18h31.55.145,premceCat2_ses-02_part-01_label-phase1,2020.2.9,Win32,60,3,1,1.0106,0,28,28,28,1,,,,,,
1,"[1,1,1,0,0,0,0,0,1,0,1,1,1,0,1,1,0,1,0,1]",,,,,,,,,,1,,,,,,stimuli/m5.jpg,stimuli/m2.jpg,2,stimuli/Electronic device & accessory.png,stimuli/Outdoor activity & sport item.png,stimuli/Hand labour tool & accessory.png,stimuli/Kitchen & utensil.png,2,1,2,stimuli/m2.jpg,Outdoor activity & sport item,stimuli/objects/outdoorheater.jpg,28,2021-11-29_18h31.55.145,premceCat2_ses-02_part-01_label-phase1,2020.2.9,Win32,60,2,1,0.7455,0,29,29,29,1,,,,,,
1,"[1,1,1,0,0,0,0,0,1,0,1,1,1,0,1,1,0,1,0,1,1]",,,,,,,,,,1,,,,,,stimuli/m2.jpg,stimuli/m5.jpg,2,stimuli/Kitchen & utensil.png,stimuli/Outdoor activity & sport item.png,stimuli/Electronic device & accessory.png,stimuli/Hand labour tool & accessory.png,4,1,2,stimuli/m5.jpg,Hand labour tool & accessory,stimuli/objects/aircompressor.jpg,28,2021-11-29_18h31.55.145,premceCat2_ses-02_part-01_label-phase1,2020.2.9,Win32,60,4,1,0.667,0,30,30,30,1,,,,,,
1,"[1,1,1,0,0,0,0,0,1,0,1,1,1,0,1,1,0,1,0,1,1,1]",,,,,,,,,,1,,,,,,stimuli/m2.jpg,stimuli/m5.jpg,2,stimuli/Hand labour tool & accessory.png,stimuli/Kitchen & utensil.png,stimuli/Outdoor activity & sport item.png,stimuli/Electronic device & accessory.png,1,1,2,stimuli/m5.jpg,Hand labour tool & accessory,stimuli/objects/flooringstapler.jpg,28,2021-11-29_18h31.55.145,premceCat2_ses-02_part-01_label-phase1,2020.2.9,Win32,60,1,1,0.4283,0,31,31,31,1,,,,,,
0,"[1,1,1,0,0,0,0,0,1,0,1,1,1,0,1,1,0,1,0,1,1,1,1]",,,,,,,,,,1,,,,,,stimuli/m5.jpg,stimuli/m2.jpg,2,stimuli/Kitchen & utensil.png,stimuli/Hand labour tool & accessory.png,stimuli/Outdoor activity & sport item.png,stimuli/Electronic device & accessory.png,2,0,2,stimuli/m2.jpg,Hand labour tool & accessory,stimuli/objects/hedgeshears.jpg,28,2021-11-29_18h31.55.145,premceCat2_ses-02_part-01_label-phase1,2020.2.9,Win32,60,3,0,0.549,0,32,32,32,1,,,,,,
0,"[1,1,1,0,0,0,0,0,1,0,1,1,1,0,1,1,0,1,0,1,1,1,1]",,,,,,,,,,0,,,,,,stimuli/m5.jpg,stimuli/m2.jpg,1,stimuli/Outdoor activity & sport item.png,stimuli/Hand labour tool & accessory.png,stimuli/Kitchen & utensil.png,stimuli/Electronic device & accessory.png,2,1,2,stimuli/m5.jpg,Hand labour tool & accessory,stimuli/objects/sledgehammer.jpg,28,2021-11-29_18h31.55.145,premceCat2_ses-02_part-01_label-phase1,2020.2.9,Win32,60,4,0,0.3833,0,33,33,33,1,,,,,,
1,"[1,1,1,0,0,0,0,0,1,0,1,1,1,0,1,1,0,1,0,1,1,1,1,0]",,,,,,,,,,1,,,,,,stimuli/m5.jpg,stimuli/m2.jpg,1,stimuli/Electronic device & accessory.png,stimuli/Hand labour tool & accessory.png,stimuli/Kitchen & utensil.png,stimuli/Outdoor activity & sport item.png,2,1,2,stimuli/m5.jpg,Hand labour tool & accessory,stimuli/objects/mallet01b.jpg,28,2021-11-29_18h31.55.145,premceCat2_ses-02_part-01_label-phase1,2020.2.9,Win32,60,2,1,0.3413,0,34,34,34,1,,,,,,
0,"[1,1,1,0,0,0,0,0,1,0,1,1,1,0,1,1,0,1,0,1,1,1,1,0,1]",,,,,,,,,,1,,,,,,stimuli/m5.jpg,stimuli/m2.jpg,1,stimuli/Outdoor activity & sport item.png,stimuli/Hand labour tool & accessory.png,stimuli/Electronic device & accessory.png,stimuli/Kitchen & utensil.png,1,0,2,stimuli/m5.jpg,Outdoor activity & sport item,stimuli/objects/skiboot01a.jpg,28,2021-11-29_18h31.55.145,premceCat2_ses-02_part-01_label-phase1,2020.2.9,Win32,60,3,0,0.5666,0,35,35,35,1,,,,,,
1,"[1,1,1,0,0,0,0,0,1,0,1,1,1,0,1,1,0,1,0,1,1,1,1,0,1]",,,,,,,,,,1,,,,,,stimuli/m2.jpg,stimuli/m5.jpg,1,stimuli/Outdoor activity & sport item.png,stimuli/Electronic device & accessory.png,stimuli/Kitchen & utensil.png,stimuli/Hand labour tool & accessory.png,1,1,2,stimuli/m2.jpg,Outdoor activity & sport item,stimuli/objects/badmintonracket.jpg,28,2021-11-29_18h31.55.145,premceCat2_ses-02_part-01_label-phase1,2020.2.9,Win32,60,1,1,0.5369,0,36,36,36,1,,,,,,
0,"[1,1,1,0,0,0,0,0,1,0,1,1,1,0,1,1,0,1,0,1,1,1,1,0,1,1]",,,,,,,,,,0,,,,,,stimuli/m5.jpg,stimuli/m2.jpg,2,stimuli/Hand labour tool & accessory.png,stimuli/Outdoor activity & sport item.png,stimuli/Kitchen & utensil.png,stimuli/Electronic device & accessory.png,2,1,2,stimuli/m2.jpg,Outdoor activity & sport item,stimuli/objects/propanetank01.jpg,28,2021-11-29_18h31.55.145,premceCat2_ses-02_part-01_label-phase1,2020.2.9,Win32,60,3,0,0.5061,0,37,37,37,1,,,,,,
1,"[1,1,1,0,0,0,0,0,1,0,1,1,1,0,1,1,0,1,0,1,1,1,1,0,1,1,0]",,,,,,,,,,1,,,,,,stimuli/m5.jpg,stimuli/m2.jpg,2,stimuli/Outdoor activity & sport item.png,stimuli/Electronic device & accessory.png,stimuli/Hand labour tool & accessory.png,stimuli/Kitchen & utensil.png,1,1,2,stimuli/m2.jpg,Outdoor activity & sport item,stimuli/objects/exercisebike.jpg,28,2021-11-29_18h31.55.145,premceCat2_ses-02_part-01_label-phase1,2020.2.9,Win32,60,1,1,0.5488,0,38,38,38,1,,,,,,
0,"[1,1,1,0,0,0,0,0,1,0,1,1,1,0,1,1,0,1,0,1,1,1,1,0,1,1,0,1]",,,,,,,,,,0,,,,,,stimuli/m2.jpg,stimuli/m5.jpg,1,stimuli/Hand labour tool & accessory.png,stimuli/Outdoor activity & sport item.png,stimuli/Electronic device & accessory.png,stimuli/Kitchen & utensil.png,2,1,2,stimuli/m2.jpg,Outdoor activity & sport item,stimuli/objects/weight01.jpg,28,2021-11-29_18h31.55.145,premceCat2_ses-02_part-01_label-phase1,2020.2.9,Win32,60,4,0,0.4613,0,39,39,39,1,,,,,,
0,"[1,1,1,0,0,0,0,0,1,0,1,1,1,0,1,1,0,1,0,1,1,1,1,0,1,1,0,1,0]",,,,,,,,,,0,,,,,,stimuli/m5.jpg,stimuli/m2.jpg,1,stimuli/Outdoor activity & sport item.png,stimuli/Electronic device & accessory.png,stimuli/Kitchen & utensil.png,stimuli/Hand labour tool & accessory.png,4,1,2,stimuli/m5.jpg,Hand labour tool & accessory,stimuli/objects/puttyknife.jpg,28,2021-11-29_18h31.55.145,premceCat2_ses-02_part-01_label-phase1,2020.2.9,Win32,60,2,0,0.466,0,40,40,40,1,,,,,,
1,"[1,1,1,0,0,0,0,0,1,0,1,1,1,0,1,1,0,1,0,1,1,1,1,0,1,1,0,1,0,0]",,,,,,,,,,0,,,,,,stimuli/m2.jpg,stimuli/m5.jpg,1,stimuli/Kitchen & utensil.png,stimuli/Hand labour tool & accessory.png,stimuli/Outdoor activity & sport item.png,stimuli/Electronic device & accessory.png,2,0,2,stimuli/m2.jpg,Hand labour tool & accessory,stimuli/objects/level03a.jpg,28,2021-11-29_18h31.55.145,premceCat2_ses-02_part-01_label-phase1,2020.2.9,Win32,60,2,1,0.7976,0,41,41,41,1,,,,,,
0,"[1,1,1,0,0,0,0,0,1,0,1,1,1,0,1,1,0,1,0,1,1,1,1,0,1,1,0,1,0,0]",,,,,,,,,,0,,,,,,stimuli/m2.jpg,stimuli/m5.jpg,2,stimuli/Outdoor activity & sport item.png,stimuli/Hand labour tool & accessory.png,stimuli/Kitchen & utensil.png,stimuli/Electronic device & accessory.png,2,1,2,stimuli/m5.jpg,Hand labour tool & accessory,stimuli/objects/bungeecord02.jpg,28,2021-11-29_18h31.55.145,premceCat2_ses-02_part-01_label-phase1,2020.2.9,Win32,60,4,0,0.5159,0,42,42,42,1,,,,,,
1,"[1,1,1,0,0,0,0,0,1,0,1,1,1,0,1,1,0,1,0,1,1,1,1,0,1,1,0,1,0,0,0]",,,,,,,,,,1,,,,,,stimuli/m5.jpg,stimuli/m2.jpg,2,stimuli/Electronic device & accessory.png,stimuli/Kitchen & utensil.png,stimuli/Outdoor activity & sport item.png,stimuli/Hand labour tool & accessory.png,3,1,2,stimuli/m2.jpg,Outdoor activity & sport item,stimuli/objects/patioumbrella.jpg,28,2021-11-29_18h31.55.145,premceCat2_ses-02_part-01_label-phase1,2020.2.9,Win32,60,3,1,0.3286,0,43,43,43,1,,,,,,
0,"[1,1,1,0,0,0,0,0,1,0,1,1,1,0,1,1,0,1,0,1,1,1,1,0,1,1,0,1,0,0,0,1]",,,,,,,,,,0,,,,,,stimuli/m2.jpg,stimuli/m5.jpg,2,stimuli/Outdoor activity & sport item.png,stimuli/Electronic device & accessory.png,stimuli/Kitchen & utensil.png,stimuli/Hand labour tool & accessory.png,4,1,2,stimuli/m5.jpg,Hand labour tool & accessory,stimuli/objects/wateringcan.jpg,28,2021-11-29_18h31.55.145,premceCat2_ses-02_part-01_label-phase1,2020.2.9,Win32,60,2,0,0.688,0,44,44,44,1,,,,,,
0,"[1,1,1,0,0,0,0,0,1,0,1,1,1,0,1,1,0,1,0,1,1,1,1,0,1,1,0,1,0,0,0,1,0]",,,,,,,,,,0,,,,,,stimuli/m2.jpg,stimuli/m5.jpg,2,stimuli/Electronic device & accessory.png,stimuli/Hand labour tool & accessory.png,stimuli/Kitchen & utensil.png,stimuli/Outdoor activity & sport item.png,2,1,2,stimuli/m5.jpg,Hand labour tool & accessory,stimuli/objects/bucket02.jpg,28,2021-11-29_18h31.55.145,premceCat2_ses-02_part-01_label-phase1,2020.2.9,Win32,60,3,0,0.515,0,45,45,45,1,,,,,,
0,"[1,1,1,0,0,0,0,0,1,0,1,1,1,0,1,1,0,1,0,1,1,1,1,0,1,1,0,1,0,0,0,1,0,0]",,,,,,,,,,0,,,,,,stimuli/m5.jpg,stimuli/m2.jpg,2,stimuli/Electronic device & accessory.png,stimuli/Kitchen & utensil.png,stimuli/Hand labour tool & accessory.png,stimuli/Outdoor activity & sport item.png,4,1,2,stimuli/m2.jpg,Outdoor activity & sport item,stimuli/objects/soccerball.jpg,28,2021-11-29_18h31.55.145,premceCat2_ses-02_part-01_label-phase1,2020.2.9,Win32,60,1,0,0.5936,0,46,46,46,1,,,,,,
0,"[1,1,1,0,0,0,0,0,1,0,1,1,1,0,1,1,0,1,0,1,1,1,1,0,1,1,0,1,0,0,0,1,0,0,0]",,,,,,,,,,0,,,,,,stimuli/m5.jpg,stimuli/m2.jpg,1,stimuli/Hand labour tool & accessory.png,stimuli/Electronic device & accessory.png,stimuli/Kitchen & utensil.png,stimuli/Outdoor activity & sport item.png,1,1,2,stimuli/m5.jpg,Hand labour tool & accessory,stimuli/objects/wheel01.jpg,28,2021-11-29_18h31.55.145,premceCat2_ses-02_part-01_label-phase1,2020.2.9,Win32,60,4,0,0.6408,0,47,47,47,1,,,,,,
,,,,,,,,,,,,,,,,,,,,,,,,,,,,,,28,2021-11-29_18h31.55.145,premceCat2_ses-02_part-01_label-phase1,2020.2.9,Win32,60,,,,,,,,,0,0,0,0,1,condition_files/tasklistAplus1.csv
0,"[1,1,1,0,0,0,0,0,1,0,1,1,1,0,1,1,0,1,0,1,1,1,1,0,1,1,0,1,0,0,0,1,0,0,0,0]",,,,,,,,,,0,,,,,,stimuli/m2.jpg,stimuli/m5.jpg,2,stimuli/Outdoor activity & sport item.png,stimuli/Hand labour tool & accessory.png,stimuli/Electronic device & accessory.png,stimuli/Kitchen & utensil.png,4,1,3,stimuli/m5.jpg,Kitchen & utensil,stimuli/objects/measuringcup01.jpg,28,2021-11-29_18h31.55.145,premceCat2_ses-02_part-01_label-phase1,2020.2.9,Win32,60,1,0,1.3038,0,0,0,0,1,,,,,,
0,"[1,1,1,0,0,0,0,0,1,0,1,1,1,0,1,1,0,1,0,1,1,1,1,0,1,1,0,1,0,0,0,1,0,0,0,0,0]",,,,,,,,,,0,,,,,,stimuli/m5.jpg,stimuli/m2.jpg,1,stimuli/Electronic device & accessory.png,stimuli/Kitchen & utensil.png,stimuli/Outdoor activity & sport item.png,stimuli/Hand labour tool & accessory.png,2,1,3,stimuli/m5.jpg,Kitchen & utensil,stimuli/objects/watercooler.jpg,28,2021-11-29_18h31.55.145,premceCat2_ses-02_part-01_label-phase1,2020.2.9,Win32,60,4,0,0.9537,0,1,1,1,1,,,,,,
0,"[1,1,1,0,0,0,0,0,1,0,1,1,1,0,1,1,0,1,0,1,1,1,1,0,1,1,0,1,0,0,0,1,0,0,0,0,0,0]",,,,,,,,,,0,,,,,,stimuli/m5.jpg,stimuli/m2.jpg,1,stimuli/Hand labour tool & accessory.png,stimuli/Kitchen & utensil.png,stimuli/Electronic device & accessory.png,stimuli/Outdoor activity & sport item.png,4,0,3,stimuli/m5.jpg,Outdoor activity & sport item,stimuli/objects/hockeygoalieglove.jpg,28,2021-11-29_18h31.55.145,premceCat2_ses-02_part-01_label-phase1,2020.2.9,Win32,60,2,0,0.4285,0,2,2,2,1,,,,,,
0,"[1,1,1,0,0,0,0,0,1,0,1,1,1,0,1,1,0,1,0,1,1,1,1,0,1,1,0,1,0,0,0,1,0,0,0,0,0,0]",,,,,,,,,,0,,,,,,stimuli/m5.jpg,stimuli/m2.jpg,1,stimuli/Electronic device & accessory.png,stimuli/Outdoor activity & sport item.png,stimuli/Hand labour tool & accessory.png,stimuli/Kitchen & utensil.png,4,1,3,stimuli/m5.jpg,Kitchen & utensil,stimuli/objects/cowbell.jpg,28,2021-11-29_18h31.55.145,premceCat2_ses-02_part-01_label-phase1,2020.2.9,Win32,60,3,0,0.502,0,3,3,3,1,,,,,,
0,"[1,1,1,0,0,0,0,0,1,0,1,1,1,0,1,1,0,1,0,1,1,1,1,0,1,1,0,1,0,0,0,1,0,0,0,0,0,0,0]",,,,,,,,,,0,,,,,,stimuli/m2.jpg,stimuli/m5.jpg,1,stimuli/Hand labour tool & accessory.png,stimuli/Electronic device & accessory.png,stimuli/Outdoor activity & sport item.png,stimuli/Kitchen & utensil.png,2,1,3,stimuli/m2.jpg,Electronic device & accessory,stimuli/objects/videocamera01a.jpg,28,2021-11-29_18h31.55.145,premceCat2_ses-02_part-01_label-phase1,2020.2.9,Win32,60,1,0,0.9332,0,4,4,4,1,,,,,,
0,"[1,1,1,0,0,0,0,0,1,0,1,1,1,0,1,1,0,1,0,1,1,1,1,0,1,1,0,1,0,0,0,1,0,0,0,0,0,0,0,0]",,,,,,,,,,0,,,,,,stimuli/m2.jpg,stimuli/m5.jpg,2,stimuli/Hand labour tool & accessory.png,stimuli/Kitchen & utensil.png,stimuli/Electronic device & accessory.png,stimuli/Outdoor activity & sport item.png,2,1,3,stimuli/m5.jpg,Kitchen & utensil,stimuli/objects/shotglass.jpg,28,2021-11-29_18h31.55.145,premceCat2_ses-02_part-01_label-phase1,2020.2.9,Win32,60,4,0,0.7461,0,5,5,5,1,,,,,,
0,"[1,1,1,0,0,0,0,0,1,0,1,1,1,0,1,1,0,1,0,1,1,1,1,0,1,1,0,1,0,0,0,1,0,0,0,0,0,0,0,0,0]",,,,,,,,,,0,,,,,,stimuli/m5.jpg,stimuli/m2.jpg,2,stimuli/Electronic device & accessory.png,stimuli/Kitchen & utensil.png,stimuli/Hand labour tool & accessory.png,stimuli/Outdoor activity & sport item.png,1,1,3,stimuli/m2.jpg,Electronic device & accessory,stimuli/objects/atm.jpg,28,2021-11-29_18h31.55.145,premceCat2_ses-02_part-01_label-phase1,2020.2.9,Win32,60,2,0,0.5884,0,6,6,6,1,,,,,,
1,"[1,1,1,0,0,0,0,0,1,0,1,1,1,0,1,1,0,1,0,1,1,1,1,0,1,1,0,1,0,0,0,1,0,0,0,0,0,0,0,0,0,0]",,,,,,,,,,1,,,,,,stimuli/m2.jpg,stimuli/m5.jpg,2,stimuli/Outdoor activity & sport item.png,stimuli/Hand labour tool & accessory.png,stimuli/Kitchen & utensil.png,stimuli/Electronic device & accessory.png,3,1,3,stimuli/m5.jpg,Kitchen & utensil,stimuli/objects/handmixer01d.jpg,28,2021-11-29_18h31.55.145,premceCat2_ses-02_part-01_label-phase1,2020.2.9,Win32,60,3,1,0.3968,0,7,7,7,1,,,,,,
0,"[1,1,1,0,0,0,0,0,1,0,1,1,1,0,1,1,0,1,0,1,1,1,1,0,1,1,0,1,0,0,0,1,0,0,0,0,0,0,0,0,0,0,1]",,,,,,,,,,1,,,,,,stimuli/m5.jpg,stimuli/m2.jpg,2,stimuli/Kitchen & utensil.png,stimuli/Outdoor activity & sport item.png,stimuli/Hand labour tool & accessory.png,stimuli/Electronic device & accessory.png,2,0,3,stimuli/m2.jpg,Outdoor activity & sport item,stimuli/objects/hockeygoaliepad.jpg,28,2021-11-29_18h31.55.145,premceCat2_ses-02_part-01_label-phase1,2020.2.9,Win32,60,3,0,1.0335,0,8,8,8,1,,,,,,
0,"[1,1,1,0,0,0,0,0,1,0,1,1,1,0,1,1,0,1,0,1,1,1,1,0,1,1,0,1,0,0,0,1,0,0,0,0,0,0,0,0,0,0,1]",,,,,,,,,,0,,,,,,stimuli/m5.jpg,stimuli/m2.jpg,1,stimuli/Outdoor activity & sport item.png,stimuli/Hand labour tool & accessory.png,stimuli/Kitchen & utensil.png,stimuli/Electronic device & accessory.png,3,1,3,stimuli/m5.jpg,Kitchen & utensil,stimuli/objects/coffeepot03a.jpg,28,2021-11-29_18h31.55.145,premceCat2_ses-02_part-01_label-phase1,2020.2.9,Win32,60,1,0,0.8495,0,9,9,9,1,,,,,,
0,"[1,1,1,0,0,0,0,0,1,0,1,1,1,0,1,1,0,1,0,1,1,1,1,0,1,1,0,1,0,0,0,1,0,0,0,0,0,0,0,0,0,0,1,0]",,,,,,,,,,0,,,,,,stimuli/m5.jpg,stimuli/m2.jpg,2,stimuli/Kitchen & utensil.png,stimuli/Hand labour tool & accessory.png,stimuli/Electronic device & accessory.png,stimuli/Outdoor activity & sport item.png,2,0,3,stimuli/m2.jpg,Hand labour tool & accessory,stimuli/objects/pliers02b.jpg,28,2021-11-29_18h31.55.145,premceCat2_ses-02_part-01_label-phase1,2020.2.9,Win32,60,4,0,1.046,0,10,10,10,1,,,,,,
0,"[1,1,1,0,0,0,0,0,1,0,1,1,1,0,1,1,0,1,0,1,1,1,1,0,1,1,0,1,0,0,0,1,0,0,0,0,0,0,0,0,0,0,1,0]",,,,,,,,,,0,,,,,,stimuli/m5.jpg,stimuli/m2.jpg,2,stimuli/Outdoor activity & sport item.png,stimuli/Hand labour tool & accessory.png,stimuli/Electronic device & accessory.png,stimuli/Kitchen & utensil.png,3,1,3,stimuli/m2.jpg,Electronic device & accessory,stimuli/objects/fan.jpg,28,2021-11-29_18h31.55.145,premceCat2_ses-02_part-01_label-phase1,2020.2.9,Win32,60,2,0,0.6877,0,11,11,11,1,,,,,,
0,"[1,1,1,0,0,0,0,0,1,0,1,1,1,0,1,1,0,1,0,1,1,1,1,0,1,1,0,1,0,0,0,1,0,0,0,0,0,0,0,0,0,0,1,0,0]",,,,,,,,,,0,,,,,,stimuli/m5.jpg,stimuli/m2.jpg,2,stimuli/Kitchen & utensil.png,stimuli/Hand labour tool & accessory.png,stimuli/Outdoor activity & sport item.png,stimuli/Electronic device & accessory.png,4,1,3,stimuli/m2.jpg,Electronic device & accessory,stimuli/objects/extensioncord.jpg,28,2021-11-29_18h31.55.145,premceCat2_ses-02_part-01_label-phase1,2020.2.9,Win32,60,3,0,0.6123,0,12,12,12,1,,,,,,
0,"[1,1,1,0,0,0,0,0,1,0,1,1,1,0,1,1,0,1,0,1,1,1,1,0,1,1,0,1,0,0,0,1,0,0,0,0,0,0,0,0,0,0,1,0,0,0]",,,,,,,,,,0,,,,,,stimuli/m2.jpg,stimuli/m5.jpg,2,stimuli/Electronic device & accessory.png,stimuli/Hand labour tool & accessory.png,stimuli/Kitchen & utensil.png,stimuli/Outdoor activity & sport item.png,1,0,3,stimuli/m5.jpg,Electronic device & accessory,stimuli/objects/computerkeyboard02.jpg,28,2021-11-29_18h31.55.145,premceCat2_ses-02_part-01_label-phase1,2020.2.9,Win32,60,2,0,0.4452,0,13,13,13,1,,,,,,
1,"[1,1,1,0,0,0,0,0,1,0,1,1,1,0,1,1,0,1,0,1,1,1,1,0,1,1,0,1,0,0,0,1,0,0,0,0,0,0,0,0,0,0,1,0,0,0]",,,,,,,,,,1,,,,,,stimuli/m2.jpg,stimuli/m5.jpg,1,stimuli/Outdoor activity & sport item.png,stimuli/Hand labour tool & accessory.png,stimuli/Kitchen & utensil.png,stimuli/Electronic device & accessory.png,4,1,3,stimuli/m2.jpg,Electronic device & accessory,stimuli/objects/headphones02b.jpg,28,2021-11-29_18h31.55.145,premceCat2_ses-02_part-01_label-phase1,2020.2.9,Win32,60,4,1,1.1178,0,14,14,14,1,,,,,,
1,"[1,1,1,0,0,0,0,0,1,0,1,1,1,0,1,1,0,1,0,1,1,1,1,0,1,1,0,1,0,0,0,1,0,0,0,0,0,0,0,0,0,0,1,0,0,0,1]",,,,,,,,,,1,,,,,,stimuli/m5.jpg,stimuli/m2.jpg,2,stimuli/Outdoor activity & sport item.png,stimuli/Kitchen & utensil.png,stimuli/Hand labour tool & accessory.png,stimuli/Electronic device & accessory.png,4,1,3,stimuli/m2.jpg,Electronic device & accessory,stimuli/objects/coffeemachine.jpg,28,2021-11-29_18h31.55.145,premceCat2_ses-02_part-01_label-phase1,2020.2.9,Win32,60,4,1,0.6545,0,15,15,15,1,,,,,,
0,"[1,1,1,0,0,0,0,0,1,0,1,1,1,0,1,1,0,1,0,1,1,1,1,0,1,1,0,1,0,0,0,1,0,0,0,0,0,0,0,0,0,0,1,0,0,0,1,1]",,,,,,,,,,1,,,,,,stimuli/m2.jpg,stimuli/m5.jpg,1,stimuli/Kitchen & utensil.png,stimuli/Hand labour tool & accessory.png,stimuli/Electronic device & accessory.png,stimuli/Outdoor activity & sport item.png,2,0,3,stimuli/m2.jpg,Hand labour tool & accessory,stimuli/objects/snowblower.jpg,28,2021-11-29_18h31.55.145,premceCat2_ses-02_part-01_label-phase1,2020.2.9,Win32,60,3,0,0.9621,0,16,16,16,1,,,,,,
1,"[1,1,1,0,0,0,0,0,1,0,1,1,1,0,1,1,0,1,0,1,1,1,1,0,1,1,0,1,0,0,0,1,0,0,0,0,0,0,0,0,0,0,1,0,0,0,1,1]",,,,,,,,,,1,,,,,,stimuli/m5.jpg,stimuli/m2.jpg,2,stimuli/Outdoor activity & sport item.png,stimuli/Electronic device & accessory.png,stimuli/Hand labour tool & accessory.png,stimuli/Kitchen & utensil.png,2,1,3,stimuli/m2.jpg,Electronic device & accessory,stimuli/objects/airconditioner.jpg,28,2021-11-29_18h31.55.145,premceCat2_ses-02_part-01_label-phase1,2020.2.9,Win32,60,2,1,0.6956,0,17,17,17,1,,,,,,
0,"[1,1,1,0,0,0,0,0,1,0,1,1,1,0,1,1,0,1,0,1,1,1,1,0,1,1,0,1,0,0,0,1,0,0,0,0,0,0,0,0,0,0,1,0,0,0,1,1,1]",,,,,,,,,,0,,,,,,stimuli/m5.jpg,stimuli/m2.jpg,1,stimuli/Electronic device & accessory.png,stimuli/Hand labour tool & accessory.png,stimuli/Outdoor activity & sport item.png,stimuli/Kitchen & utensil.png,4,1,3,stimuli/m5.jpg,Kitchen & utensil,stimuli/objects/waterbottle03.jpg,28,2021-11-29_18h31.55.145,premceCat2_ses-02_part-01_label-phase1,2020.2.9,Win32,60,3,0,1.0827,0,18,18,18,1,,,,,,
1,"[1,1,1,0,0,0,0,0,1,0,1,1,1,0,1,1,0,1,0,1,1,1,1,0,1,1,0,1,0,0,0,1,0,0,0,0,0,0,0,0,0,0,1,0,0,0,1,1,1,0]",,,,,,,,,,1,,,,,,stimuli/m2.jpg,stimuli/m5.jpg,1,stimuli/Kitchen & utensil.png,stimuli/Outdoor activity & sport item.png,stimuli/Hand labour tool & accessory.png,stimuli/Electronic device & accessory.png,4,1,3,stimuli/m2.jpg,Electronic device & accessory,stimuli/objects/lightbulb01.jpg,28,2021-11-29_18h31.55.145,premceCat2_ses-02_part-01_label-phase1,2020.2.9,Win32,60,4,1,1.3865,0,19,19,19,1,,,,,,
0,"[1,1,1,0,0,0,0,0,1,0,1,1,1,0,1,1,0,1,0,1,1,1,1,0,1,1,0,1,0,0,0,1,0,0,0,0,0,0,0,0,0,0,1,0,0,0,1,1,1,0,1]",,,,,,,,,,0,,,,,,stimuli/m5.jpg,stimuli/m2.jpg,2,stimuli/Electronic device & accessory.png,stimuli/Hand labour tool & accessory.png,stimuli/Kitchen & utensil.png,stimuli/Outdoor activity & sport item.png,1,1,3,stimuli/m2.jpg,Electronic device & accessory,stimuli/objects/phonejack.jpg,28,2021-11-29_18h31.55.145,premceCat2_ses-02_part-01_label-phase1,2020.2.9,Win32,60,2,0,1.4343,0,20,20,20,1,,,,,,
1,"[1,1,1,0,0,0,0,0,1,0,1,1,1,0,1,1,0,1,0,1,1,1,1,0,1,1,0,1,0,0,0,1,0,0,0,0,0,0,0,0,0,0,1,0,0,0,1,1,1,0,1,0]",,,,,,,,,,1,,,,,,stimuli/m2.jpg,stimuli/m5.jpg,2,stimuli/Hand labour tool & accessory.png,stimuli/Kitchen & utensil.png,stimuli/Outdoor activity & sport item.png,stimuli/Electronic device & accessory.png,2,1,3,stimuli/m5.jpg,Kitchen & utensil,stimuli/objects/bottlecap.jpg,28,2021-11-29_18h31.55.145,premceCat2_ses-02_part-01_label-phase1,2020.2.9,Win32,60,2,1,0.9329,0,21,21,21,1,,,,,,
0,"[1,1,1,0,0,0,0,0,1,0,1,1,1,0,1,1,0,1,0,1,1,1,1,0,1,1,0,1,0,0,0,1,0,0,0,0,0,0,0,0,0,0,1,0,0,0,1,1,1,0,1,0,1]",,,,,,,,,,0,,,,,,stimuli/m2.jpg,stimuli/m5.jpg,2,stimuli/Electronic device & accessory.png,stimuli/Hand labour tool & accessory.png,stimuli/Outdoor activity & sport item.png,stimuli/Kitchen & utensil.png,4,1,3,stimuli/m5.jpg,Kitchen & utensil,stimuli/objects/contactlens.jpg,28,2021-11-29_18h31.55.145,premceCat2_ses-02_part-01_label-phase1,2020.2.9,Win32,60,3,0,0.6836,0,22,22,22,1,,,,,,
1,"[1,1,1,0,0,0,0,0,1,0,1,1,1,0,1,1,0,1,0,1,1,1,1,0,1,1,0,1,0,0,0,1,0,0,0,0,0,0,0,0,0,0,1,0,0,0,1,1,1,0,1,0,1,0]",,,,,,,,,,1,,,,,,stimuli/m2.jpg,stimuli/m5.jpg,1,stimuli/Electronic device & accessory.png,stimuli/Outdoor activity & sport item.png,stimuli/Hand labour tool & accessory.png,stimuli/Kitchen & utensil.png,1,1,3,stimuli/m2.jpg,Electronic device & accessory,stimuli/objects/usbcable01a.jpg,28,2021-11-29_18h31.55.145,premceCat2_ses-02_part-01_label-phase1,2020.2.9,Win32,60,1,1,1.2156,0,23,23,23,1,,,,,,
1,"[1,1,1,0,0,0,0,0,1,0,1,1,1,0,1,1,0,1,0,1,1,1,1,0,1,1,0,1,0,0,0,1,0,0,0,0,0,0,0,0,0,0,1,0,0,0,1,1,1,0,1,0,1,0,1]",,,,,,,,,,1,,,,,,stimuli/m2.jpg,stimuli/m5.jpg,2,stimuli/Outdoor activity & sport item.png,stimuli/Electronic device & accessory.png,stimuli/Hand labour tool & accessory.png,stimuli/Kitchen & utensil.png,4,1,3,stimuli/m5.jpg,Kitchen & utensil,stimuli/objects/towel01.jpg,28,2021-11-29_18h31.55.145,premceCat2_ses-02_part-01_label-phase1,2020.2.9,Win32,60,4,1,0.3657,0,24,24,24,1,,,,,,
0,"[1,1,1,0,0,0,0,0,1,0,1,1,1,0,1,1,0,1,0,1,1,1,1,0,1,1,0,1,0,0,0,1,0,0,0,0,0,0,0,0,0,0,1,0,0,0,1,1,1,0,1,0,1,0,1,1]",,,,,,,,,,1,,,,,,stimuli/m2.jpg,stimuli/m5.jpg,1,stimuli/Outdoor activity & sport item.png,stimuli/Electronic device & accessory.png,stimuli/Kitchen & utensil.png,stimuli/Hand labour tool & accessory.png,3,0,3,stimuli/m2.jpg,Kitchen & utensil,stimuli/objects/travelmug.jpg,28,2021-11-29_18h31.55.145,premceCat2_ses-02_part-01_label-phase1,2020.2.9,Win32,60,2,0,0.8784,0,25,25,25,1,,,,,,
1,"[1,1,1,0,0,0,0,0,1,0,1,1,1,0,1,1,0,1,0,1,1,1,1,0,1,1,0,1,0,0,0,1,0,0,0,0,0,0,0,0,0,0,1,0,0,0,1,1,1,0,1,0,1,0,1,1]",,,,,,,,,,1,,,,,,stimuli/m2.jpg,stimuli/m5.jpg,1,stimuli/Outdoor activity & sport item.png,stimuli/Electronic device & accessory.png,stimuli/Hand labour tool & accessory.png,stimuli/Kitchen & utensil.png,2,1,3,stimuli/m2.jpg,Electronic device & accessory,stimuli/objects/dvdplayer.jpg,28,2021-11-29_18h31.55.145,premceCat2_ses-02_part-01_label-phase1,2020.2.9,Win32,60,2,1,1.2998,0,26,26,26,1,,,,,,
1,"[1,1,1,0,0,0,0,0,1,0,1,1,1,0,1,1,0,1,0,1,1,1,1,0,1,1,0,1,0,0,0,1,0,0,0,0,0,0,0,0,0,0,1,0,0,0,1,1,1,0,1,0,1,0,1,1,1]",,,,,,,,,,1,,,,,,stimuli/m2.jpg,stimuli/m5.jpg,1,stimuli/Hand labour tool & accessory.png,stimuli/Outdoor activity & sport item.png,stimuli/Kitchen & utensil.png,stimuli/Electronic device & accessory.png,4,1,3,stimuli/m2.jpg,Electronic device & accessory,stimuli/objects/fuse.jpg,28,2021-11-29_18h31.55.145,premceCat2_ses-02_part-01_label-phase1,2020.2.9,Win32,60,4,1,0.8834,0,27,27,27,1,,,,,,
0,"[1,1,1,0,0,0,0,0,1,0,1,1,1,0,1,1,0,1,0,1,1,1,1,0,1,1,0,1,0,0,0,1,0,0,0,0,0,0,0,0,0,0,1,0,0,0,1,1,1,0,1,0,1,0,1,1,1,1]",,,,,,,,,,1,,,,,,stimuli/m5.jpg,stimuli/m2.jpg,1,stimuli/Outdoor activity & sport item.png,stimuli/Electronic device & accessory.png,stimuli/Kitchen & utensil.png,stimuli/Hand labour tool & accessory.png,4,0,3,stimuli/m5.jpg,Hand labour tool & accessory,stimuli/objects/jumpercables.jpg,28,2021-11-29_18h31.55.145,premceCat2_ses-02_part-01_label-phase1,2020.2.9,Win32,60,2,0,0.4522,0,28,28,28,1,,,,,,
0,"[1,1,1,0,0,0,0,0,1,0,1,1,1,0,1,1,0,1,0,1,1,1,1,0,1,1,0,1,0,0,0,1,0,0,0,0,0,0,0,0,0,0,1,0,0,0,1,1,1,0,1,0,1,0,1,1,1,1]",,,,,,,,,,1,,,,,,stimuli/m5.jpg,stimuli/m2.jpg,1,stimuli/Hand labour tool & accessory.png,stimuli/Electronic device & accessory.png,stimuli/Kitchen & utensil.png,stimuli/Outdoor activity & sport item.png,4,0,3,stimuli/m5.jpg,Outdoor activity & sport item,stimuli/objects/handgripper.jpg,28,2021-11-29_18h31.55.145,premceCat2_ses-02_part-01_label-phase1,2020.2.9,Win32,60,3,0,0.7966,0,29,29,29,1,,,,,,
1,"[1,1,1,0,0,0,0,0,1,0,1,1,1,0,1,1,0,1,0,1,1,1,1,0,1,1,0,1,0,0,0,1,0,0,0,0,0,0,0,0,0,0,1,0,0,0,1,1,1,0,1,0,1,0,1,1,1,1]",,,,,,,,,,1,,,,,,stimuli/m2.jpg,stimuli/m5.jpg,2,stimuli/Electronic device & accessory.png,stimuli/Outdoor activity & sport item.png,stimuli/Kitchen & utensil.png,stimuli/Hand labour tool & accessory.png,3,1,3,stimuli/m5.jpg,Kitchen & utensil,stimuli/objects/servingspoon01.jpg,28,2021-11-29_18h31.55.145,premceCat2_ses-02_part-01_label-phase1,2020.2.9,Win32,60,3,1,0.6334,0,30,30,30,1,,,,,,
1,"[1,1,1,0,0,0,0,0,1,0,1,1,1,0,1,1,0,1,0,1,1,1,1,0,1,1,0,1,0,0,0,1,0,0,0,0,0,0,0,0,0,0,1,0,0,0,1,1,1,0,1,0,1,0,1,1,1,1,1]",,,,,,,,,,1,,,,,,stimuli/m2.jpg,stimuli/m5.jpg,1,stimuli/Electronic device & accessory.png,stimuli/Kitchen & utensil.png,stimuli/Outdoor activity & sport item.png,stimuli/Hand labour tool & accessory.png,1,1,3,stimuli/m2.jpg,Electronic device & accessory,stimuli/objects/ethernetcable02.jpg,28,2021-11-29_18h31.55.145,premceCat2_ses-02_part-01_label-phase1,2020.2.9,Win32,60,1,1,0.9686,0,31,31,31,1,,,,,,
0,"[1,1,1,0,0,0,0,0,1,0,1,1,1,0,1,1,0,1,0,1,1,1,1,0,1,1,0,1,0,0,0,1,0,0,0,0,0,0,0,0,0,0,1,0,0,0,1,1,1,0,1,0,1,0,1,1,1,1,1,1]",,,,,,,,,,1,,,,,,stimuli/m5.jpg,stimuli/m2.jpg,1,stimuli/Kitchen & utensil.png,stimuli/Outdoor activity & sport item.png,stimuli/Hand labour tool & accessory.png,stimuli/Electronic device & accessory.png,4,0,3,stimuli/m5.jpg,Electronic device & accessory,stimuli/objects/alarmclock01.jpg,28,2021-11-29_18h31.55.145,premceCat2_ses-02_part-01_label-phase1,2020.2.9,Win32,60,1,0,0.7775,0,32,32,32,1,,,,,,
0,"[1,1,1,0,0,0,0,0,1,0,1,1,1,0,1,1,0,1,0,1,1,1,1,0,1,1,0,1,0,0,0,1,0,0,0,0,0,0,0,0,0,0,1,0,0,0,1,1,1,0,1,0,1,0,1,1,1,1,1,1]",,,,,,,,,,0,,,,,,stimuli/m5.jpg,stimuli/m2.jpg,1,stimuli/Kitchen & utensil.png,stimuli/Electronic device & accessory.png,stimuli/Outdoor activity & sport item.png,stimuli/Hand labour tool & accessory.png,1,1,3,stimuli/m5.jpg,Kitchen & utensil,stimuli/objects/peeler01.jpg,28,2021-11-29_18h31.55.145,premceCat2_ses-02_part-01_label-phase1,2020.2.9,Win32,60,4,0,0.6888,0,33,33,33,1,,,,,,
1,"[1,1,1,0,0,0,0,0,1,0,1,1,1,0,1,1,0,1,0,1,1,1,1,0,1,1,0,1,0,0,0,1,0,0,0,0,0,0,0,0,0,0,1,0,0,0,1,1,1,0,1,0,1,0,1,1,1,1,1,1,0]",,,,,,,,,,1,,,,,,stimuli/m2.jpg,stimuli/m5.jpg,2,stimuli/Outdoor activity & sport item.png,stimuli/Kitchen & utensil.png,stimuli/Electronic device & accessory.png,stimuli/Hand labour tool & accessory.png,2,1,3,stimuli/m5.jpg,Kitchen & utensil,stimuli/objects/corkscrew03a.jpg,28,2021-11-29_18h31.55.145,premceCat2_ses-02_part-01_label-phase1,2020.2.9,Win32,60,2,1,0.4955,0,34,34,34,1,,,,,,
1,"[1,1,1,0,0,0,0,0,1,0,1,1,1,0,1,1,0,1,0,1,1,1,1,0,1,1,0,1,0,0,0,1,0,0,0,0,0,0,0,0,0,0,1,0,0,0,1,1,1,0,1,0,1,0,1,1,1,1,1,1,0,1]",,,,,,,,,,1,,,,,,stimuli/m5.jpg,stimuli/m2.jpg,2,stimuli/Electronic device & accessory.png,stimuli/Kitchen & utensil.png,stimuli/Outdoor activity & sport item.png,stimuli/Hand labour tool & accessory.png,1,1,3,stimuli/m2.jpg,Electronic device & accessory,stimuli/objects/vhstape.jpg,28,2021-11-29_18h31.55.145,premceCat2_ses-02_part-01_label-phase1,2020.2.9,Win32,60,1,1,0.8656,0,35,35,35,1,,,,,,
0,"[1,1,1,0,0,0,0,0,1,0,1,1,1,0,1,1,0,1,0,1,1,1,1,0,1,1,0,1,0,0,0,1,0,0,0,0,0,0,0,0,0,0,1,0,0,0,1,1,1,0,1,0,1,0,1,1,1,1,1,1,0,1,1]",,,,,,,,,,0,,,,,,stimuli/m5.jpg,stimuli/m2.jpg,1,stimuli/Outdoor activity & sport item.png,stimuli/Kitchen & utensil.png,stimuli/Hand labour tool & accessory.png,stimuli/Electronic device & accessory.png,2,1,3,stimuli/m5.jpg,Kitchen & utensil,stimuli/objects/hourglass.jpg,28,2021-11-29_18h31.55.145,premceCat2_ses-02_part-01_label-phase1,2020.2.9,Win32,60,3,0,1.0328,0,36,36,36,1,,,,,,
0,"[1,1,1,0,0,0,0,0,1,0,1,1,1,0,1,1,0,1,0,1,1,1,1,0,1,1,0,1,0,0,0,1,0,0,0,0,0,0,0,0,0,0,1,0,0,0,1,1,1,0,1,0,1,0,1,1,1,1,1,1,0,1,1,0]",,,,,,,,,,0,,,,,,stimuli/m2.jpg,stimuli/m5.jpg,2,stimuli/Outdoor activity & sport item.png,stimuli/Electronic device & accessory.png,stimuli/Kitchen & utensil.png,stimuli/Hand labour tool & accessory.png,3,1,3,stimuli/m5.jpg,Kitchen & utensil,stimuli/objects/rollingpin01a.jpg,28,2021-11-29_18h31.55.145,premceCat2_ses-02_part-01_label-phase1,2020.2.9,Win32,60,2,0,0.9624,0,37,37,37,1,,,,,,
1,"[1,1,1,0,0,0,0,0,1,0,1,1,1,0,1,1,0,1,0,1,1,1,1,0,1,1,0,1,0,0,0,1,0,0,0,0,0,0,0,0,0,0,1,0,0,0,1,1,1,0,1,0,1,0,1,1,1,1,1,1,0,1,1,0,0]",,,,,,,,,,1,,,,,,stimuli/m2.jpg,stimuli/m5.jpg,2,stimuli/Hand labour tool & accessory.png,stimuli/Electronic device & accessory.png,stimuli/Outdoor activity & sport item.png,stimuli/Kitchen & utensil.png,4,1,3,stimuli/m5.jpg,Kitchen & utensil,stimuli/objects/oven.jpg,28,2021-11-29_18h31.55.145,premceCat2_ses-02_part-01_label-phase1,2020.2.9,Win32,60,4,1,0.7272,0,38,38,38,1,,,,,,
0,"[1,1,1,0,0,0,0,0,1,0,1,1,1,0,1,1,0,1,0,1,1,1,1,0,1,1,0,1,0,0,0,1,0,0,0,0,0,0,0,0,0,0,1,0,0,0,1,1,1,0,1,0,1,0,1,1,1,1,1,1,0,1,1,0,0,1]",,,,,,,,,,0,,,,,,stimuli/m2.jpg,stimuli/m5.jpg,2,stimuli/Outdoor activity & sport item.png,stimuli/Kitchen & utensil.png,stimuli/Hand labour tool & accessory.png,stimuli/Electronic device & accessory.png,2,1,3,stimuli/m5.jpg,Kitchen & utensil,stimuli/objects/dishrack.jpg,28,2021-11-29_18h31.55.145,premceCat2_ses-02_part-01_label-phase1,2020.2.9,Win32,60,3,0,0.5667,0,39,39,39,1,,,,,,
0,"[1,1,1,0,0,0,0,0,1,0,1,1,1,0,1,1,0,1,0,1,1,1,1,0,1,1,0,1,0,0,0,1,0,0,0,0,0,0,0,0,0,0,1,0,0,0,1,1,1,0,1,0,1,0,1,1,1,1,1,1,0,1,1,0,0,1,0]",,,,,,,,,,0,,,,,,stimuli/m5.jpg,stimuli/m2.jpg,1,stimuli/Electronic device & accessory.png,stimuli/Hand labour tool & accessory.png,stimuli/Kitchen & utensil.png,stimuli/Outdoor activity & sport item.png,2,0,3,stimuli/m5.jpg,Hand labour tool & accessory,stimuli/objects/squeegee01b.jpg,28,2021-11-29_18h31.55.145,premceCat2_ses-02_part-01_label-phase1,2020.2.9,Win32,60,1,0,0.3511,0,40,40,40,1,,,,,,
0,"[1,1,1,0,0,0,0,0,1,0,1,1,1,0,1,1,0,1,0,1,1,1,1,0,1,1,0,1,0,0,0,1,0,0,0,0,0,0,0,0,0,0,1,0,0,0,1,1,1,0,1,0,1,0,1,1,1,1,1,1,0,1,1,0,0,1,0]",,,,,,,,,,0,,,,,,stimuli/m2.jpg,stimuli/m5.jpg,1,stimuli/Kitchen & utensil.png,stimuli/Outdoor activity & sport item.png,stimuli/Electronic device & accessory.png,stimuli/Hand labour tool & accessory.png,3,1,3,stimuli/m2.jpg,Electronic device & accessory,stimuli/objects/cellphone.jpg,28,2021-11-29_18h31.55.145,premceCat2_ses-02_part-01_label-phase1,2020.2.9,Win32,60,4,0,0.6661,0,41,41,41,1,,,,,,
0,"[1,1,1,0,0,0,0,0,1,0,1,1,1,0,1,1,0,1,0,1,1,1,1,0,1,1,0,1,0,0,0,1,0,0,0,0,0,0,0,0,0,0,1,0,0,0,1,1,1,0,1,0,1,0,1,1,1,1,1,1,0,1,1,0,0,1,0,0]",,,,,,,,,,0,,,,,,stimuli/m5.jpg,stimuli/m2.jpg,2,stimuli/Outdoor activity & sport item.png,stimuli/Hand labour tool & accessory.png,stimuli/Kitchen & utensil.png,stimuli/Electronic device & accessory.png,4,1,3,stimuli/m2.jpg,Electronic device & accessory,stimuli/objects/ipad02.jpg,28,2021-11-29_18h31.55.145,premceCat2_ses-02_part-01_label-phase1,2020.2.9,Win32,60,2,0,0.3493,0,42,42,42,1,,,,,,
0,"[1,1,1,0,0,0,0,0,1,0,1,1,1,0,1,1,0,1,0,1,1,1,1,0,1,1,0,1,0,0,0,1,0,0,0,0,0,0,0,0,0,0,1,0,0,0,1,1,1,0,1,0,1,0,1,1,1,1,1,1,0,1,1,0,0,1,0,0,0]",,,,,,,,,,0,,,,,,stimuli/m5.jpg,stimuli/m2.jpg,2,stimuli/Electronic device & accessory.png,stimuli/Outdoor activity & sport item.png,stimuli/Hand labour tool & accessory.png,stimuli/Kitchen & utensil.png,1,1,3,stimuli/m2.jpg,Electronic device & accessory,stimuli/objects/djmixer02.jpg,28,2021-11-29_18h31.55.145,premceCat2_ses-02_part-01_label-phase1,2020.2.9,Win32,60,4,0,0.4859,0,43,43,43,1,,,,,,
0,"[1,1,1,0,0,0,0,0,1,0,1,1,1,0,1,1,0,1,0,1,1,1,1,0,1,1,0,1,0,0,0,1,0,0,0,0,0,0,0,0,0,0,1,0,0,0,1,1,1,0,1,0,1,0,1,1,1,1,1,1,0,1,1,0,0,1,0,0,0,0]",,,,,,,,,,0,,,,,,stimuli/m2.jpg,stimuli/m5.jpg,2,stimuli/Electronic device & accessory.png,stimuli/Kitchen & utensil.png,stimuli/Hand labour tool & accessory.png,stimuli/Outdoor activity & sport item.png,2,1,3,stimuli/m5.jpg,Kitchen & utensil,stimuli/objects/jar02.jpg,28,2021-11-29_18h31.55.145,premceCat2_ses-02_part-01_label-phase1,2020.2.9,Win32,60,1,0,0.7704,0,44,44,44,1,,,,,,
0,"[1,1,1,0,0,0,0,0,1,0,1,1,1,0,1,1,0,1,0,1,1,1,1,0,1,1,0,1,0,0,0,1,0,0,0,0,0,0,0,0,0,0,1,0,0,0,1,1,1,0,1,0,1,0,1,1,1,1,1,1,0,1,1,0,0,1,0,0,0,0,0]",,,,,,,,,,0,,,,,,stimuli/m5.jpg,stimuli/m2.jpg,2,stimuli/Hand labour tool & accessory.png,stimuli/Outdoor activity & sport item.png,stimuli/Kitchen & utensil.png,stimuli/Electronic device & accessory.png,3,0,3,stimuli/m2.jpg,Kitchen & utensil,stimuli/objects/tupperware03a.jpg,28,2021-11-29_18h31.55.145,premceCat2_ses-02_part-01_label-phase1,2020.2.9,Win32,60,4,0,0.8866,0,45,45,45,1,,,,,,
0,"[1,1,1,0,0,0,0,0,1,0,1,1,1,0,1,1,0,1,0,1,1,1,1,0,1,1,0,1,0,0,0,1,0,0,0,0,0,0,0,0,0,0,1,0,0,0,1,1,1,0,1,0,1,0,1,1,1,1,1,1,0,1,1,0,0,1,0,0,0,0,0]",,,,,,,,,,0,,,,,,stimuli/m5.jpg,stimuli/m2.jpg,2,stimuli/Kitchen & utensil.png,stimuli/Electronic device & accessory.png,stimuli/Outdoor activity & sport item.png,stimuli/Hand labour tool & accessory.png,3,0,3,stimuli/m2.jpg,Outdoor activity & sport item,stimuli/objects/hockeygoaliemask.jpg,28,2021-11-29_18h31.55.145,premceCat2_ses-02_part-01_label-phase1,2020.2.9,Win32,60,2,0,0.4278,0,46,46,46,1,,,,,,
0,"[1,1,1,0,0,0,0,0,1,0,1,1,1,0,1,1,0,1,0,1,1,1,1,0,1,1,0,1,0,0,0,1,0,0,0,0,0,0,0,0,0,0,1,0,0,0,1,1,1,0,1,0,1,0,1,1,1,1,1,1,0,1,1,0,0,1,0,0,0,0,0]",,,,,,,,,,0,,,,,,stimuli/m2.jpg,stimuli/m5.jpg,1,stimuli/Hand labour tool & accessory.png,stimuli/Outdoor activity & sport item.png,stimuli/Electronic device & accessory.png,stimuli/Kitchen & utensil.png,3,1,3,stimuli/m2.jpg,Electronic device & accessory,stimuli/objects/electricoutlet.jpg,28,2021-11-29_18h31.55.145,premceCat2_ses-02_part-01_label-phase1,2020.2.9,Win32,60,2,0,1.0633,0,47,47,47,1,,,,,,
,,,,,,,,,,,,,,,,,,,,,,,,,,,,,,28,2021-11-29_18h31.55.145,premceCat2_ses-02_part-01_label-phase1,2020.2.9,Win32,60,,,,,,,,,0,1,1,1,1,condition_files/tasklistB1.csv
0,"[1,1,1,0,0,0,0,0,1,0,1,1,1,0,1,1,0,1,0,1,1,1,1,0,1,1,0,1,0,0,0,1,0,0,0,0,0,0,0,0,0,0,1,0,0,0,1,1,1,0,1,0,1,0,1,1,1,1,1,1,0,1,1,0,0,1,0,0,0,0,0,0]",,,,,,,,,,0,,,,,,stimuli/m5.jpg,stimuli/m2.jpg,1,stimuli/Electronic device & accessory.png,stimuli/Outdoor activity & sport item.png,stimuli/Kitchen & utensil.png,stimuli/Hand labour tool & accessory.png,2,0,4,stimuli/m5.jpg,Outdoor activity & sport item,stimuli/objects/baseballbat.jpg,28,2021-11-29_18h31.55.145,premceCat2_ses-02_part-01_label-phase1,2020.2.9,Win32,60,4,0,0.4015,0,0,0,0,1,,,,,,
0,"[1,1,1,0,0,0,0,0,1,0,1,1,1,0,1,1,0,1,0,1,1,1,1,0,1,1,0,1,0,0,0,1,0,0,0,0,0,0,0,0,0,0,1,0,0,0,1,1,1,0,1,0,1,0,1,1,1,1,1,1,0,1,1,0,0,1,0,0,0,0,0,0]",,,,,,,,,,0,,,,,,stimuli/m5.jpg,stimuli/m2.jpg,2,stimuli/Outdoor activity & sport item.png,stimuli/Electronic device & accessory.png,stimuli/Kitchen & utensil.png,stimuli/Hand labour tool & accessory.png,3,1,4,stimuli/m2.jpg,Kitchen & utensil,stimuli/objects/cork02.jpg,28,2021-11-29_18h31.55.145,premceCat2_ses-02_part-01_label-phase1,2020.2.9,Win32,60,1,0,0.6316,0,1,1,1,1,,,,,,
0,"[1,1,1,0,0,0,0,0,1,0,1,1,1,0,1,1,0,1,0,1,1,1,1,0,1,1,0,1,0,0,0,1,0,0,0,0,0,0,0,0,0,0,1,0,0,0,1,1,1,0,1,0,1,0,1,1,1,1,1,1,0,1,1,0,0,1,0,0,0,0,0,0,0]",,,,,,,,,,0,,,,,,stimuli/m2.jpg,stimuli/m5.jpg,1,stimuli/Hand labour tool & accessory.png,stimuli/Electronic device & accessory.png,stimuli/Outdoor activity & sport item.png,stimuli/Kitchen & utensil.png,4,1,4,stimuli/m2.jpg,Kitchen & utensil,stimuli/objects/bowl02a.jpg,28,2021-11-29_18h31.55.145,premceCat2_ses-02_part-01_label-phase1,2020.2.9,Win32,60,3,0,0.3624,0,2,2,2,1,,,,,,
0,"[1,1,1,0,0,0,0,0,1,0,1,1,1,0,1,1,0,1,0,1,1,1,1,0,1,1,0,1,0,0,0,1,0,0,0,0,0,0,0,0,0,0,1,0,0,0,1,1,1,0,1,0,1,0,1,1,1,1,1,1,0,1,1,0,0,1,0,0,0,0,0,0,0,0]",,,,,,,,,,0,,,,,,stimuli/m5.jpg,stimuli/m2.jpg,2,stimuli/Hand labour tool & accessory.png,stimuli/Kitchen & utensil.png,stimuli/Electronic device & accessory.png,stimuli/Outdoor activity & sport item.png,2,1,4,stimuli/m2.jpg,Kitchen & utensil,stimuli/objects/spoon01.jpg,28,2021-11-29_18h31.55.145,premceCat2_ses-02_part-01_label-phase1,2020.2.9,Win32,60,1,0,0.4496,0,3,3,3,1,,,,,,
0,"[1,1,1,0,0,0,0,0,1,0,1,1,1,0,1,1,0,1,0,1,1,1,1,0,1,1,0,1,0,0,0,1,0,0,0,0,0,0,0,0,0,0,1,0,0,0,1,1,1,0,1,0,1,0,1,1,1,1,1,1,0,1,1,0,0,1,0,0,0,0,0,0,0,0,0]",,,,,,,,,,0,,,,,,stimuli/m2.jpg,stimuli/m5.jpg,1,stimuli/Kitchen & utensil.png,stimuli/Hand labour tool & accessory.png,stimuli/Electronic device & accessory.png,stimuli/Outdoor activity & sport item.png,1,1,4,stimuli/m2.jpg,Kitchen & utensil,stimuli/objects/cookiecutter.jpg,28,2021-11-29_18h31.55.145,premceCat2_ses-02_part-01_label-phase1,2020.2.9,Win32,60,3,0,0.846,0,4,4,4,1,,,,,,
0,"[1,1,1,0,0,0,0,0,1,0,1,1,1,0,1,1,0,1,0,1,1,1,1,0,1,1,0,1,0,0,0,1,0,0,0,0,0,0,0,0,0,0,1,0,0,0,1,1,1,0,1,0,1,0,1,1,1,1,1,1,0,1,1,0,0,1,0,0,0,0,0,0,0,0,0,0]",,,,,,,,,,0,,,,,,stimuli/m5.jpg,stimuli/m2.jpg,1,stimuli/Kitchen & utensil.png,stimuli/Outdoor activity & sport item.png,stimuli/Hand labour tool & accessory.png,stimuli/Electronic device & accessory.png,3,1,4,stimuli/m5.jpg,Hand labour tool & accessory,stimuli/objects/knifesharpener.jpg,28,2021-11-29_18h31.55.145,premceCat2_ses-02_part-01_label-phase1,2020.2.9,Win32,60,1,0,0.7568,0,5,5,5,1,,,,,,
0,"[1,1,1,0,0,0,0,0,1,0,1,1,1,0,1,1,0,1,0,1,1,1,1,0,1,1,0,1,0,0,0,1,0,0,0,0,0,0,0,0,0,0,1,0,0,0,1,1,1,0,1,0,1,0,1,1,1,1,1,1,0,1,1,0,0,1,0,0,0,0,0,0,0,0,0,0,0]",,,,,,,,,,0,,,,,,stimuli/m2.jpg,stimuli/m5.jpg,2,stimuli/Outdoor activity & sport item.png,stimuli/Hand labour tool & accessory.png,stimuli/Electronic device & accessory.png,stimuli/Kitchen & utensil.png,2,1,4,stimuli/m5.jpg,Hand labour tool & accessory,stimuli/objects/pipewrench.jpg,28,2021-11-29_18h31.55.145,premceCat2_ses-02_part-01_label-phase1,2020.2.9,Win32,60,3,0,0.5181,0,6,6,6,1,,,,,,
0,"[1,1,1,0,0,0,0,0,1,0,1,1,1,0,1,1,0,1,0,1,1,1,1,0,1,1,0,1,0,0,0,1,0,0,0,0,0,0,0,0,0,0,1,0,0,0,1,1,1,0,1,0,1,0,1,1,1,1,1,1,0,1,1,0,0,1,0,0,0,0,0,0,0,0,0,0,0,0]",,,,,,,,,,0,,,,,,stimuli/m2.jpg,stimuli/m5.jpg,2,stimuli/Electronic device & accessory.png,stimuli/Outdoor activity & sport item.png,stimuli/Kitchen & utensil.png,stimuli/Hand labour tool & accessory.png,1,0,4,stimuli/m5.jpg,Electronic device & accessory,stimuli/objects/payphone.jpg,28,2021-11-29_18h31.55.145,premceCat2_ses-02_part-01_label-phase1,2020.2.9,Win32,60,4,0,0.5129,0,7,7,7,1,,,,,,
0,"[1,1,1,0,0,0,0,0,1,0,1,1,1,0,1,1,0,1,0,1,1,1,1,0,1,1,0,1,0,0,0,1,0,0,0,0,0,0,0,0,0,0,1,0,0,0,1,1,1,0,1,0,1,0,1,1,1,1,1,1,0,1,1,0,0,1,0,0,0,0,0,0,0,0,0,0,0,0]",,,,,,,,,,0,,,,,,stimuli/m2.jpg,stimuli/m5.jpg,1,stimuli/Hand labour tool & accessory.png,stimuli/Electronic device & accessory.png,stimuli/Kitchen & utensil.png,stimuli/Outdoor activity & sport item.png,3,1,4,stimuli/m2.jpg,Kitchen & utensil,stimuli/objects/butterknife.jpg,28,2021-11-29_18h31.55.145,premceCat2_ses-02_part-01_label-phase1,2020.2.9,Win32,60,2,0,0.7518,0,8,8,8,1,,,,,,
0,"[1,1,1,0,0,0,0,0,1,0,1,1,1,0,1,1,0,1,0,1,1,1,1,0,1,1,0,1,0,0,0,1,0,0,0,0,0,0,0,0,0,0,1,0,0,0,1,1,1,0,1,0,1,0,1,1,1,1,1,1,0,1,1,0,0,1,0,0,0,0,0,0,0,0,0,0,0,0,0]",,,,,,,,,,0,,,,,,stimuli/m2.jpg,stimuli/m5.jpg,1,stimuli/Outdoor activity & sport item.png,stimuli/Hand labour tool & accessory.png,stimuli/Electronic device & accessory.png,stimuli/Kitchen & utensil.png,3,0,4,stimuli/m2.jpg,Electronic device & accessory,stimuli/objects/desktopcomputer.jpg,28,2021-11-29_18h31.55.145,premceCat2_ses-02_part-01_label-phase1,2020.2.9,Win32,60,1,0,0.3293,0,9,9,9,1,,,,,,
0,"[1,1,1,0,0,0,0,0,1,0,1,1,1,0,1,1,0,1,0,1,1,1,1,0,1,1,0,1,0,0,0,1,0,0,0,0,0,0,0,0,0,0,1,0,0,0,1,1,1,0,1,0,1,0,1,1,1,1,1,1,0,1,1,0,0,1,0,0,0,0,0,0,0,0,0,0,0,0,0]",,,,,,,,,,0,,,,,,stimuli/m2.jpg,stimuli/m5.jpg,1,stimuli/Electronic device & accessory.png,stimuli/Kitchen & utensil.png,stimuli/Hand labour tool & accessory.png,stimuli/Outdoor activity & sport item.png,2,1,4,stimuli/m2.jpg,Kitchen & utensil,stimuli/objects/pitcher02b.jpg,28,2021-11-29_18h31.55.145,premceCat2_ses-02_part-01_label-phase1,2020.2.9,Win32,60,3,0,0.3999,0,10,10,10,1,,,,,,
0,"[1,1,1,0,0,0,0,0,1,0,1,1,1,0,1,1,0,1,0,1,1,1,1,0,1,1,0,1,0,0,0,1,0,0,0,0,0,0,0,0,0,0,1,0,0,0,1,1,1,0,1,0,1,0,1,1,1,1,1,1,0,1,1,0,0,1,0,0,0,0,0,0,0,0,0,0,0,0,0,0]",,,,,,,,,,0,,,,,,stimuli/m5.jpg,stimuli/m2.jpg,1,stimuli/Outdoor activity & sport item.png,stimuli/Electronic device & accessory.png,stimuli/Kitchen & utensil.png,stimuli/Hand labour tool & accessory.png,4,1,4,stimuli/m5.jpg,Hand labour tool & accessory,stimuli/objects/leafrake.jpg,28,2021-11-29_18h31.55.145,premceCat2_ses-02_part-01_label-phase1,2020.2.9,Win32,60,2,0,1.1159,0,11,11,11,1,,,,,,
0,"[1,1,1,0,0,0,0,0,1,0,1,1,1,0,1,1,0,1,0,1,1,1,1,0,1,1,0,1,0,0,0,1,0,0,0,0,0,0,0,0,0,0,1,0,0,0,1,1,1,0,1,0,1,0,1,1,1,1,1,1,0,1,1,0,0,1,0,0,0,0,0,0,0,0,0,0,0,0,0,0,0]",,,,,,,,,,0,,,,,,stimuli/m2.jpg,stimuli/m5.jpg,2,stimuli/Kitchen & utensil.png,stimuli/Electronic device & accessory.png,stimuli/Outdoor activity & sport item.png,stimuli/Hand labour tool & accessory.png,4,1,4,stimuli/m5.jpg,Hand labour tool & accessory,stimuli/objects/painttray.jpg,28,2021-11-29_18h31.55.145,premceCat2_ses-02_part-01_label-phase1,2020.2.9,Win32,60,2,0,1.1624,0,12,12,12,1,,,,,,
0,"[1,1,1,0,0,0,0,0,1,0,1,1,1,0,1,1,0,1,0,1,1,1,1,0,1,1,0,1,0,0,0,1,0,0,0,0,0,0,0,0,0,0,1,0,0,0,1,1,1,0,1,0,1,0,1,1,1,1,1,1,0,1,1,0,0,1,0,0,0,0,0,0,0,0,0,0,0,0,0,0,0,0]",,,,,,,,,,0,,,,,,stimuli/m2.jpg,stimuli/m5.jpg,2,stimuli/Outdoor activity & sport item.png,stimuli/Electronic device & accessory.png,stimuli/Hand labour tool & accessory.png,stimuli/Kitchen & utensil.png,3,1,4,stimuli/m5.jpg,Hand labour tool & accessory,stimuli/objects/hammer01.jpg,28,2021-11-29_18h31.55.145,premceCat2_ses-02_part-01_label-phase1,2020.2.9,Win32,60,2,0,0.3951,0,13,13,13,1,,,,,,
1,"[1,1,1,0,0,0,0,0,1,0,1,1,1,0,1,1,0,1,0,1,1,1,1,0,1,1,0,1,0,0,0,1,0,0,0,0,0,0,0,0,0,0,1,0,0,0,1,1,1,0,1,0,1,0,1,1,1,1,1,1,0,1,1,0,0,1,0,0,0,0,0,0,0,0,0,0,0,0,0,0,0,0,0]",,,,,,,,,,0,,,,,,stimuli/m2.jpg,stimuli/m5.jpg,1,stimuli/Electronic device & accessory.png,stimuli/Hand labour tool & accessory.png,stimuli/Kitchen & utensil.png,stimuli/Outdoor activity & sport item.png,2,0,4,stimuli/m2.jpg,Hand labour tool & accessory,stimuli/objects/gastank.jpg,28,2021-11-29_18h31.55.145,premceCat2_ses-02_part-01_label-phase1,2020.2.9,Win32,60,2,1,0.8653,0,14,14,14,1,,,,,,
0,"[1,1,1,0,0,0,0,0,1,0,1,1,1,0,1,1,0,1,0,1,1,1,1,0,1,1,0,1,0,0,0,1,0,0,0,0,0,0,0,0,0,0,1,0,0,0,1,1,1,0,1,0,1,0,1,1,1,1,1,1,0,1,1,0,0,1,0,0,0,0,0,0,0,0,0,0,0,0,0,0,0,0,0]",,,,,,,,,,0,,,,,,stimuli/m2.jpg,stimuli/m5.jpg,2,stimuli/Kitchen & utensil.png,stimuli/Outdoor activity & sport item.png,stimuli/Hand labour tool & accessory.png,stimuli/Electronic device & accessory.png,2,0,4,stimuli/m5.jpg,Outdoor activity & sport item,stimuli/objects/kiddiepool.jpg,28,2021-11-29_18h31.55.145,premceCat2_ses-02_part-01_label-phase1,2020.2.9,Win32,60,4,0,1.3218,0,15,15,15,1,,,,,,
0,"[1,1,1,0,0,0,0,0,1,0,1,1,1,0,1,1,0,1,0,1,1,1,1,0,1,1,0,1,0,0,0,1,0,0,0,0,0,0,0,0,0,0,1,0,0,0,1,1,1,0,1,0,1,0,1,1,1,1,1,1,0,1,1,0,0,1,0,0,0,0,0,0,0,0,0,0,0,0,0,0,0,0,0]",,,,,,,,,,0,,,,,,stimuli/m2.jpg,stimuli/m5.jpg,2,stimuli/Hand labour tool & accessory.png,stimuli/Electronic device & accessory.png,stimuli/Outdoor activity & sport item.png,stimuli/Kitchen & utensil.png,1,1,4,stimuli/m5.jpg,Hand labour tool & accessory,stimuli/objects/axe01.jpg,28,2021-11-29_18h31.55.145,premceCat2_ses-02_part-01_label-phase1,2020.2.9,Win32,60,3,0,0.4965,0,16,16,16,1,,,,,,
0,"[1,1,1,0,0,0,0,0,1,0,1,1,1,0,1,1,0,1,0,1,1,1,1,0,1,1,0,1,0,0,0,1,0,0,0,0,0,0,0,0,0,0,1,0,0,0,1,1,1,0,1,0,1,0,1,1,1,1,1,1,0,1,1,0,0,1,0,0,0,0,0,0,0,0,0,0,0,0,0,0,0,0,0,0]",,,,,,,,,,0,,,,,,stimuli/m5.jpg,stimuli/m2.jpg,1,stimuli/Hand labour tool & accessory.png,stimuli/Kitchen & utensil.png,stimuli/Outdoor activity & sport item.png,stimuli/Electronic device & accessory.png,2,0,4,stimuli/m5.jpg,Kitchen & utensil,stimuli/objects/cookingpot.jpg,28,2021-11-29_18h31.55.145,premceCat2_ses-02_part-01_label-phase1,2020.2.9,Win32,60,1,0,0.4435,0,17,17,17,1,,,,,,
1,"[1,1,1,0,0,0,0,0,1,0,1,1,1,0,1,1,0,1,0,1,1,1,1,0,1,1,0,1,0,0,0,1,0,0,0,0,0,0,0,0,0,0,1,0,0,0,1,1,1,0,1,0,1,0,1,1,1,1,1,1,0,1,1,0,0,1,0,0,0,0,0,0,0,0,0,0,0,0,0,0,0,0,0,0]",,,,,,,,,,1,,,,,,stimuli/m5.jpg,stimuli/m2.jpg,2,stimuli/Electronic device & accessory.png,stimuli/Hand labour tool & accessory.png,stimuli/Kitchen & utensil.png,stimuli/Outdoor activity & sport item.png,3,1,4,stimuli/m2.jpg,Kitchen & utensil,stimuli/objects/spicerack.jpg,28,2021-11-29_18h31.55.145,premceCat2_ses-02_part-01_label-phase1,2020.2.9,Win32,60,3,1,0.9665,0,18,18,18,1,,,,,,
0,"[1,1,1,0,0,0,0,0,1,0,1,1,1,0,1,1,0,1,0,1,1,1,1,0,1,1,0,1,0,0,0,1,0,0,0,0,0,0,0,0,0,0,1,0,0,0,1,1,1,0,1,0,1,0,1,1,1,1,1,1,0,1,1,0,0,1,0,0,0,0,0,0,0,0,0,0,0,0,0,0,0,0,0,0,1]",,,,,,,,,,0,,,,,,stimuli/m5.jpg,stimuli/m2.jpg,1,stimuli/Kitchen & utensil.png,stimuli/Outdoor activity & sport item.png,stimuli/Electronic device & accessory.png,stimuli/Hand labour tool & accessory.png,4,1,4,stimuli/m5.jpg,Hand labour tool & accessory,stimuli/objects/ladder.jpg,28,2021-11-29_18h31.55.145,premceCat2_ses-02_part-01_label-phase1,2020.2.9,Win32,60,2,0,0.4959,0,19,19,19,1,,,,,,
0,"[1,1,1,0,0,0,0,0,1,0,1,1,1,0,1,1,0,1,0,1,1,1,1,0,1,1,0,1,0,0,0,1,0,0,0,0,0,0,0,0,0,0,1,0,0,0,1,1,1,0,1,0,1,0,1,1,1,1,1,1,0,1,1,0,0,1,0,0,0,0,0,0,0,0,0,0,0,0,0,0,0,0,0,0,1,0]",,,,,,,,,,0,,,,,,stimuli/m5.jpg,stimuli/m2.jpg,1,stimuli/Kitchen & utensil.png,stimuli/Electronic device & accessory.png,stimuli/Hand labour tool & accessory.png,stimuli/Outdoor activity & sport item.png,3,1,4,stimuli/m5.jpg,Hand labour tool & accessory,stimuli/objects/hoe.jpg,28,2021-11-29_18h31.55.145,premceCat2_ses-02_part-01_label-phase1,2020.2.9,Win32,60,4,0,0.7262,0,20,20,20,1,,,,,,
0,"[1,1,1,0,0,0,0,0,1,0,1,1,1,0,1,1,0,1,0,1,1,1,1,0,1,1,0,1,0,0,0,1,0,0,0,0,0,0,0,0,0,0,1,0,0,0,1,1,1,0,1,0,1,0,1,1,1,1,1,1,0,1,1,0,0,1,0,0,0,0,0,0,0,0,0,0,0,0,0,0,0,0,0,0,1,0,0]",,,,,,,,,,0,,,,,,stimuli/m2.jpg,stimuli/m5.jpg,2,stimuli/Hand labour tool & accessory.png,stimuli/Electronic device & accessory.png,stimuli/Kitchen & utensil.png,stimuli/Outdoor activity & sport item.png,1,1,4,stimuli/m5.jpg,Hand labour tool & accessory,stimuli/objects/staplegun.jpg,28,2021-11-29_18h31.55.145,premceCat2_ses-02_part-01_label-phase1,2020.2.9,Win32,60,3,0,0.538,0,21,21,21,1,,,,,,
0,"[1,1,1,0,0,0,0,0,1,0,1,1,1,0,1,1,0,1,0,1,1,1,1,0,1,1,0,1,0,0,0,1,0,0,0,0,0,0,0,0,0,0,1,0,0,0,1,1,1,0,1,0,1,0,1,1,1,1,1,1,0,1,1,0,0,1,0,0,0,0,0,0,0,0,0,0,0,0,0,0,0,0,0,0,1,0,0,0]",,,,,,,,,,0,,,,,,stimuli/m5.jpg,stimuli/m2.jpg,1,stimuli/Electronic device & accessory.png,stimuli/Outdoor activity & sport item.png,stimuli/Hand labour tool & accessory.png,stimuli/Kitchen & utensil.png,3,1,4,stimuli/m5.jpg,Hand labour tool & accessory,stimuli/objects/stubbywrench01a.jpg,28,2021-11-29_18h31.55.145,premceCat2_ses-02_part-01_label-phase1,2020.2.9,Win32,60,1,0,0.5333,0,22,22,22,1,,,,,,
0,"[1,1,1,0,0,0,0,0,1,0,1,1,1,0,1,1,0,1,0,1,1,1,1,0,1,1,0,1,0,0,0,1,0,0,0,0,0,0,0,0,0,0,1,0,0,0,1,1,1,0,1,0,1,0,1,1,1,1,1,1,0,1,1,0,0,1,0,0,0,0,0,0,0,0,0,0,0,0,0,0,0,0,0,0,1,0,0,0,0]",,,,,,,,,,0,,,,,,stimuli/m2.jpg,stimuli/m5.jpg,1,stimuli/Outdoor activity & sport item.png,stimuli/Kitchen & utensil.png,stimuli/Hand labour tool & accessory.png,stimuli/Electronic device & accessory.png,2,1,4,stimuli/m2.jpg,Kitchen & utensil,stimuli/objects/gravyboat.jpg,28,2021-11-29_18h31.55.145,premceCat2_ses-02_part-01_label-phase1,2020.2.9,Win32,60,3,0,0.4284,0,23,23,23,1,,,,,,
0,"[1,1,1,0,0,0,0,0,1,0,1,1,1,0,1,1,0,1,0,1,1,1,1,0,1,1,0,1,0,0,0,1,0,0,0,0,0,0,0,0,0,0,1,0,0,0,1,1,1,0,1,0,1,0,1,1,1,1,1,1,0,1,1,0,0,1,0,0,0,0,0,0,0,0,0,0,0,0,0,0,0,0,0,0,1,0,0,0,0,0]",,,,,,,,,,0,,,,,,stimuli/m2.jpg,stimuli/m5.jpg,2,stimuli/Hand labour tool & accessory.png,stimuli/Outdoor activity & sport item.png,stimuli/Kitchen & utensil.png,stimuli/Electronic device & accessory.png,1,1,4,stimuli/m5.jpg,Hand labour tool & accessory,stimuli/objects/tape02a.jpg,28,2021-11-29_18h31.55.145,premceCat2_ses-02_part-01_label-phase1,2020.2.9,Win32,60,2,0,0.3498,0,24,24,24,1,,,,,,
0,"[1,1,1,0,0,0,0,0,1,0,1,1,1,0,1,1,0,1,0,1,1,1,1,0,1,1,0,1,0,0,0,1,0,0,0,0,0,0,0,0,0,0,1,0,0,0,1,1,1,0,1,0,1,0,1,1,1,1,1,1,0,1,1,0,0,1,0,0,0,0,0,0,0,0,0,0,0,0,0,0,0,0,0,0,1,0,0,0,0,0,0]",,,,,,,,,,0,,,,,,stimuli/m5.jpg,stimuli/m2.jpg,1,stimuli/Hand labour tool & accessory.png,stimuli/Electronic device & accessory.png,stimuli/Kitchen & utensil.png,stimuli/Outdoor activity & sport item.png,3,0,4,stimuli/m5.jpg,Kitchen & utensil,stimuli/objects/funnel.jpg,28,2021-11-29_18h31.55.145,premceCat2_ses-02_part-01_label-phase1,2020.2.9,Win32,60,4,0,0.4293,0,25,25,25,1,,,,,,
0,"[1,1,1,0,0,0,0,0,1,0,1,1,1,0,1,1,0,1,0,1,1,1,1,0,1,1,0,1,0,0,0,1,0,0,0,0,0,0,0,0,0,0,1,0,0,0,1,1,1,0,1,0,1,0,1,1,1,1,1,1,0,1,1,0,0,1,0,0,0,0,0,0,0,0,0,0,0,0,0,0,0,0,0,0,1,0,0,0,0,0,0]",,,,,,,,,,0,,,,,,stimuli/m5.jpg,stimuli/m2.jpg,2,stimuli/Kitchen & utensil.png,stimuli/Hand labour tool & accessory.png,stimuli/Electronic device & accessory.png,stimuli/Outdoor activity & sport item.png,4,0,4,stimuli/m2.jpg,Outdoor activity & sport item,stimuli/objects/bikepump01.jpg,28,2021-11-29_18h31.55.145,premceCat2_ses-02_part-01_label-phase1,2020.2.9,Win32,60,2,0,0.3818,0,26,26,26,1,,,,,,
0,"[1,1,1,0,0,0,0,0,1,0,1,1,1,0,1,1,0,1,0,1,1,1,1,0,1,1,0,1,0,0,0,1,0,0,0,0,0,0,0,0,0,0,1,0,0,0,1,1,1,0,1,0,1,0,1,1,1,1,1,1,0,1,1,0,0,1,0,0,0,0,0,0,0,0,0,0,0,0,0,0,0,0,0,0,1,0,0,0,0,0,0]",,,,,,,,,,0,,,,,,stimuli/m2.jpg,stimuli/m5.jpg,1,stimuli/Outdoor activity & sport item.png,stimuli/Hand labour tool & accessory.png,stimuli/Kitchen & utensil.png,stimuli/Electronic device & accessory.png,3,1,4,stimuli/m2.jpg,Kitchen & utensil,stimuli/objects/pastaspoon.jpg,28,2021-11-29_18h31.55.145,premceCat2_ses-02_part-01_label-phase1,2020.2.9,Win32,60,1,0,0.5185,0,27,27,27,1,,,,,,
0,"[1,1,1,0,0,0,0,0,1,0,1,1,1,0,1,1,0,1,0,1,1,1,1,0,1,1,0,1,0,0,0,1,0,0,0,0,0,0,0,0,0,0,1,0,0,0,1,1,1,0,1,0,1,0,1,1,1,1,1,1,0,1,1,0,0,1,0,0,0,0,0,0,0,0,0,0,0,0,0,0,0,0,0,0,1,0,0,0,0,0,0,0]",,,,,,,,,,0,,,,,,stimuli/m5.jpg,stimuli/m2.jpg,1,stimuli/Electronic device & accessory.png,stimuli/Hand labour tool & accessory.png,stimuli/Outdoor activity & sport item.png,stimuli/Kitchen & utensil.png,2,1,4,stimuli/m5.jpg,Hand labour tool & accessory,stimuli/objects/wheelbarrow01.jpg,28,2021-11-29_18h31.55.145,premceCat2_ses-02_part-01_label-phase1,2020.2.9,Win32,60,4,0,0.4835,0,28,28,28,1,,,,,,
0,"[1,1,1,0,0,0,0,0,1,0,1,1,1,0,1,1,0,1,0,1,1,1,1,0,1,1,0,1,0,0,0,1,0,0,0,0,0,0,0,0,0,0,1,0,0,0,1,1,1,0,1,0,1,0,1,1,1,1,1,1,0,1,1,0,0,1,0,0,0,0,0,0,0,0,0,0,0,0,0,0,0,0,0,0,1,0,0,0,0,0,0,0,0]",,,,,,,,,,0,,,,,,stimuli/m2.jpg,stimuli/m5.jpg,1,stimuli/Kitchen & utensil.png,stimuli/Electronic device & accessory.png,stimuli/Hand labour tool & accessory.png,stimuli/Outdoor activity & sport item.png,4,0,4,stimuli/m2.jpg,Outdoor activity & sport item,stimuli/objects/boatmotor.jpg,28,2021-11-29_18h31.55.145,premceCat2_ses-02_part-01_label-phase1,2020.2.9,Win32,60,1,0,0.529,0,29,29,29,1,,,,,,
0,"[1,1,1,0,0,0,0,0,1,0,1,1,1,0,1,1,0,1,0,1,1,1,1,0,1,1,0,1,0,0,0,1,0,0,0,0,0,0,0,0,0,0,1,0,0,0,1,1,1,0,1,0,1,0,1,1,1,1,1,1,0,1,1,0,0,1,0,0,0,0,0,0,0,0,0,0,0,0,0,0,0,0,0,0,1,0,0,0,0,0,0,0,0]",,,,,,,,,,0,,,,,,stimuli/m5.jpg,stimuli/m2.jpg,2,stimuli/Electronic device & accessory.png,stimuli/Outdoor activity & sport item.png,stimuli/Hand labour tool & accessory.png,stimuli/Kitchen & utensil.png,4,1,4,stimuli/m2.jpg,Kitchen & utensil,stimuli/objects/breadknife.jpg,28,2021-11-29_18h31.55.145,premceCat2_ses-02_part-01_label-phase1,2020.2.9,Win32,60,3,0,0.52,0,30,30,30,1,,,,,,
0,"[1,1,1,0,0,0,0,0,1,0,1,1,1,0,1,1,0,1,0,1,1,1,1,0,1,1,0,1,0,0,0,1,0,0,0,0,0,0,0,0,0,0,1,0,0,0,1,1,1,0,1,0,1,0,1,1,1,1,1,1,0,1,1,0,0,1,0,0,0,0,0,0,0,0,0,0,0,0,0,0,0,0,0,0,1,0,0,0,0,0,0,0,0,0]",,,,,,,,,,0,,,,,,stimuli/m5.jpg,stimuli/m2.jpg,2,stimuli/Hand labour tool & accessory.png,stimuli/Kitchen & utensil.png,stimuli/Outdoor activity & sport item.png,stimuli/Electronic device & accessory.png,2,1,4,stimuli/m2.jpg,Kitchen & utensil,stimuli/objects/martiniglass01b.jpg,28,2021-11-29_18h31.55.145,premceCat2_ses-02_part-01_label-phase1,2020.2.9,Win32,60,4,0,0.6296,0,31,31,31,1,,,,,,
0,"[1,1,1,0,0,0,0,0,1,0,1,1,1,0,1,1,0,1,0,1,1,1,1,0,1,1,0,1,0,0,0,1,0,0,0,0,0,0,0,0,0,0,1,0,0,0,1,1,1,0,1,0,1,0,1,1,1,1,1,1,0,1,1,0,0,1,0,0,0,0,0,0,0,0,0,0,0,0,0,0,0,0,0,0,1,0,0,0,0,0,0,0,0,0,0]",,,,,,,,,,0,,,,,,stimuli/m5.jpg,stimuli/m2.jpg,1,stimuli/Outdoor activity & sport item.png,stimuli/Electronic device & accessory.png,stimuli/Hand labour tool & accessory.png,stimuli/Kitchen & utensil.png,3,1,4,stimuli/m5.jpg,Hand labour tool & accessory,stimuli/objects/setsquare.jpg,28,2021-11-29_18h31.55.145,premceCat2_ses-02_part-01_label-phase1,2020.2.9,Win32,60,2,0,0.4785,0,32,32,32,1,,,,,,
0,"[1,1,1,0,0,0,0,0,1,0,1,1,1,0,1,1,0,1,0,1,1,1,1,0,1,1,0,1,0,0,0,1,0,0,0,0,0,0,0,0,0,0,1,0,0,0,1,1,1,0,1,0,1,0,1,1,1,1,1,1,0,1,1,0,0,1,0,0,0,0,0,0,0,0,0,0,0,0,0,0,0,0,0,0,1,0,0,0,0,0,0,0,0,0,0,0]",,,,,,,,,,0,,,,,,stimuli/m5.jpg,stimuli/m2.jpg,1,stimuli/Kitchen & utensil.png,stimuli/Hand labour tool & accessory.png,stimuli/Electronic device & accessory.png,stimuli/Outdoor activity & sport item.png,2,1,4,stimuli/m5.jpg,Hand labour tool & accessory,stimuli/objects/pressurewasher.jpg,28,2021-11-29_18h31.55.145,premceCat2_ses-02_part-01_label-phase1,2020.2.9,Win32,60,1,0,0.8664,0,33,33,33,1,,,,,,
0,"[1,1,1,0,0,0,0,0,1,0,1,1,1,0,1,1,0,1,0,1,1,1,1,0,1,1,0,1,0,0,0,1,0,0,0,0,0,0,0,0,0,0,1,0,0,0,1,1,1,0,1,0,1,0,1,1,1,1,1,1,0,1,1,0,0,1,0,0,0,0,0,0,0,0,0,0,0,0,0,0,0,0,0,0,1,0,0,0,0,0,0,0,0,0,0,0,0]",,,,,,,,,,0,,,,,,stimuli/m2.jpg,stimuli/m5.jpg,1,stimuli/Kitchen & utensil.png,stimuli/Outdoor activity & sport item.png,stimuli/Electronic device & accessory.png,stimuli/Hand labour tool & accessory.png,1,1,4,stimuli/m2.jpg,Kitchen & utensil,stimuli/objects/saladspinner.jpg,28,2021-11-29_18h31.55.145,premceCat2_ses-02_part-01_label-phase1,2020.2.9,Win32,60,4,0,0.7658,0,34,34,34,1,,,,,,
0,"[1,1,1,0,0,0,0,0,1,0,1,1,1,0,1,1,0,1,0,1,1,1,1,0,1,1,0,1,0,0,0,1,0,0,0,0,0,0,0,0,0,0,1,0,0,0,1,1,1,0,1,0,1,0,1,1,1,1,1,1,0,1,1,0,0,1,0,0,0,0,0,0,0,0,0,0,0,0,0,0,0,0,0,0,1,0,0,0,0,0,0,0,0,0,0,0,0,0]",,,,,,,,,,0,,,,,,stimuli/m5.jpg,stimuli/m2.jpg,2,stimuli/Hand labour tool & accessory.png,stimuli/Outdoor activity & sport item.png,stimuli/Kitchen & utensil.png,stimuli/Electronic device & accessory.png,3,1,4,stimuli/m2.jpg,Kitchen & utensil,stimuli/objects/thermos.jpg,28,2021-11-29_18h31.55.145,premceCat2_ses-02_part-01_label-phase1,2020.2.9,Win32,60,1,0,0.6835,0,35,35,35,1,,,,,,
0,"[1,1,1,0,0,0,0,0,1,0,1,1,1,0,1,1,0,1,0,1,1,1,1,0,1,1,0,1,0,0,0,1,0,0,0,0,0,0,0,0,0,0,1,0,0,0,1,1,1,0,1,0,1,0,1,1,1,1,1,1,0,1,1,0,0,1,0,0,0,0,0,0,0,0,0,0,0,0,0,0,0,0,0,0,1,0,0,0,0,0,0,0,0,0,0,0,0,0,0]",,,,,,,,,,0,,,,,,stimuli/m2.jpg,stimuli/m5.jpg,1,stimuli/Hand labour tool & accessory.png,stimuli/Outdoor activity & sport item.png,stimuli/Kitchen & utensil.png,stimuli/Electronic device & accessory.png,3,1,4,stimuli/m2.jpg,Kitchen & utensil,stimuli/objects/gasburner.jpg,28,2021-11-29_18h31.55.145,premceCat2_ses-02_part-01_label-phase1,2020.2.9,Win32,60,4,0,0.4997,0,36,36,36,1,,,,,,
0,"[1,1,1,0,0,0,0,0,1,0,1,1,1,0,1,1,0,1,0,1,1,1,1,0,1,1,0,1,0,0,0,1,0,0,0,0,0,0,0,0,0,0,1,0,0,0,1,1,1,0,1,0,1,0,1,1,1,1,1,1,0,1,1,0,0,1,0,0,0,0,0,0,0,0,0,0,0,0,0,0,0,0,0,0,1,0,0,0,0,0,0,0,0,0,0,0,0,0,0,0]",,,,,,,,,,0,,,,,,stimuli/m2.jpg,stimuli/m5.jpg,1,stimuli/Hand labour tool & accessory.png,stimuli/Outdoor activity & sport item.png,stimuli/Electronic device & accessory.png,stimuli/Kitchen & utensil.png,4,1,4,stimuli/m2.jpg,Kitchen & utensil,stimuli/objects/espressomachine.jpg,28,2021-11-29_18h31.55.145,premceCat2_ses-02_part-01_label-phase1,2020.2.9,Win32,60,3,0,0.7169,0,37,37,37,1,,,,,,
0,"[1,1,1,0,0,0,0,0,1,0,1,1,1,0,1,1,0,1,0,1,1,1,1,0,1,1,0,1,0,0,0,1,0,0,0,0,0,0,0,0,0,0,1,0,0,0,1,1,1,0,1,0,1,0,1,1,1,1,1,1,0,1,1,0,0,1,0,0,0,0,0,0,0,0,0,0,0,0,0,0,0,0,0,0,1,0,0,0,0,0,0,0,0,0,0,0,0,0,0,0,0]",,,,,,,,,,0,,,,,,stimuli/m5.jpg,stimuli/m2.jpg,1,stimuli/Hand labour tool & accessory.png,stimuli/Outdoor activity & sport item.png,stimuli/Electronic device & accessory.png,stimuli/Kitchen & utensil.png,1,1,4,stimuli/m5.jpg,Hand labour tool & accessory,stimuli/objects/metalbrush.jpg,28,2021-11-29_18h31.55.145,premceCat2_ses-02_part-01_label-phase1,2020.2.9,Win32,60,2,0,0.8276,0,38,38,38,1,,,,,,
0,"[1,1,1,0,0,0,0,0,1,0,1,1,1,0,1,1,0,1,0,1,1,1,1,0,1,1,0,1,0,0,0,1,0,0,0,0,0,0,0,0,0,0,1,0,0,0,1,1,1,0,1,0,1,0,1,1,1,1,1,1,0,1,1,0,0,1,0,0,0,0,0,0,0,0,0,0,0,0,0,0,0,0,0,0,1,0,0,0,0,0,0,0,0,0,0,0,0,0,0,0,0,0]",,,,,,,,,,0,,,,,,stimuli/m5.jpg,stimuli/m2.jpg,1,stimuli/Hand labour tool & accessory.png,stimuli/Outdoor activity & sport item.png,stimuli/Kitchen & utensil.png,stimuli/Electronic device & accessory.png,1,1,4,stimuli/m5.jpg,Hand labour tool & accessory,stimuli/objects/drillbit03a.jpg,28,2021-11-29_18h31.55.145,premceCat2_ses-02_part-01_label-phase1,2020.2.9,Win32,60,4,0,0.2625,0,39,39,39,1,,,,,,
0,"[1,1,1,0,0,0,0,0,1,0,1,1,1,0,1,1,0,1,0,1,1,1,1,0,1,1,0,1,0,0,0,1,0,0,0,0,0,0,0,0,0,0,1,0,0,0,1,1,1,0,1,0,1,0,1,1,1,1,1,1,0,1,1,0,0,1,0,0,0,0,0,0,0,0,0,0,0,0,0,0,0,0,0,0,1,0,0,0,0,0,0,0,0,0,0,0,0,0,0,0,0,0,0]",,,,,,,,,,0,,,,,,stimuli/m5.jpg,stimuli/m2.jpg,2,stimuli/Kitchen & utensil.png,stimuli/Hand labour tool & accessory.png,stimuli/Outdoor activity & sport item.png,stimuli/Electronic device & accessory.png,1,1,4,stimuli/m2.jpg,Kitchen & utensil,stimuli/objects/tray.jpg,28,2021-11-29_18h31.55.145,premceCat2_ses-02_part-01_label-phase1,2020.2.9,Win32,60,3,0,0.4999,0,40,40,40,1,,,,,,
0,"[1,1,1,0,0,0,0,0,1,0,1,1,1,0,1,1,0,1,0,1,1,1,1,0,1,1,0,1,0,0,0,1,0,0,0,0,0,0,0,0,0,0,1,0,0,0,1,1,1,0,1,0,1,0,1,1,1,1,1,1,0,1,1,0,0,1,0,0,0,0,0,0,0,0,0,0,0,0,0,0,0,0,0,0,1,0,0,0,0,0,0,0,0,0,0,0,0,0,0,0,0,0,0,0]",,,,,,,,,,0,,,,,,stimuli/m2.jpg,stimuli/m5.jpg,2,stimuli/Outdoor activity & sport item.png,stimuli/Kitchen & utensil.png,stimuli/Hand labour tool & accessory.png,stimuli/Electronic device & accessory.png,4,0,4,stimuli/m5.jpg,Electronic device & accessory,stimuli/objects/dvdcase01.jpg,28,2021-11-29_18h31.55.145,premceCat2_ses-02_part-01_label-phase1,2020.2.9,Win32,60,1,0,0.3904,0,41,41,41,1,,,,,,
0,"[1,1,1,0,0,0,0,0,1,0,1,1,1,0,1,1,0,1,0,1,1,1,1,0,1,1,0,1,0,0,0,1,0,0,0,0,0,0,0,0,0,0,1,0,0,0,1,1,1,0,1,0,1,0,1,1,1,1,1,1,0,1,1,0,0,1,0,0,0,0,0,0,0,0,0,0,0,0,0,0,0,0,0,0,1,0,0,0,0,0,0,0,0,0,0,0,0,0,0,0,0,0,0,0]",,,,,,,,,,0,,,,,,stimuli/m5.jpg,stimuli/m2.jpg,2,stimuli/Outdoor activity & sport item.png,stimuli/Hand labour tool & accessory.png,stimuli/Kitchen & utensil.png,stimuli/Electronic device & accessory.png,3,1,4,stimuli/m2.jpg,Kitchen & utensil,stimuli/objects/muffintray01.jpg,28,2021-11-29_18h31.55.145,premceCat2_ses-02_part-01_label-phase1,2020.2.9,Win32,60,4,0,0.6688,0,42,42,42,1,,,,,,
0,"[1,1,1,0,0,0,0,0,1,0,1,1,1,0,1,1,0,1,0,1,1,1,1,0,1,1,0,1,0,0,0,1,0,0,0,0,0,0,0,0,0,0,1,0,0,0,1,1,1,0,1,0,1,0,1,1,1,1,1,1,0,1,1,0,0,1,0,0,0,0,0,0,0,0,0,0,0,0,0,0,0,0,0,0,1,0,0,0,0,0,0,0,0,0,0,0,0,0,0,0,0,0,0,0,0]",,,,,,,,,,0,,,,,,stimuli/m2.jpg,stimuli/m5.jpg,1,stimuli/Outdoor activity & sport item.png,stimuli/Electronic device & accessory.png,stimuli/Hand labour tool & accessory.png,stimuli/Kitchen & utensil.png,3,0,4,stimuli/m2.jpg,Hand labour tool & accessory,stimuli/objects/paintroller01.jpg,28,2021-11-29_18h31.55.145,premceCat2_ses-02_part-01_label-phase1,2020.2.9,Win32,60,2,0,1.1692,0,43,43,43,1,,,,,,
0,"[1,1,1,0,0,0,0,0,1,0,1,1,1,0,1,1,0,1,0,1,1,1,1,0,1,1,0,1,0,0,0,1,0,0,0,0,0,0,0,0,0,0,1,0,0,0,1,1,1,0,1,0,1,0,1,1,1,1,1,1,0,1,1,0,0,1,0,0,0,0,0,0,0,0,0,0,0,0,0,0,0,0,0,0,1,0,0,0,0,0,0,0,0,0,0,0,0,0,0,0,0,0,0,0,0]",,,,,,,,,,0,,,,,,stimuli/m2.jpg,stimuli/m5.jpg,2,stimuli/Outdoor activity & sport item.png,stimuli/Hand labour tool & accessory.png,stimuli/Kitchen & utensil.png,stimuli/Electronic device & accessory.png,2,1,4,stimuli/m5.jpg,Hand labour tool & accessory,stimuli/objects/jigsaw.jpg,28,2021-11-29_18h31.55.145,premceCat2_ses-02_part-01_label-phase1,2020.2.9,Win32,60,3,0,0.3831,0,44,44,44,1,,,,,,
0,"[1,1,1,0,0,0,0,0,1,0,1,1,1,0,1,1,0,1,0,1,1,1,1,0,1,1,0,1,0,0,0,1,0,0,0,0,0,0,0,0,0,0,1,0,0,0,1,1,1,0,1,0,1,0,1,1,1,1,1,1,0,1,1,0,0,1,0,0,0,0,0,0,0,0,0,0,0,0,0,0,0,0,0,0,1,0,0,0,0,0,0,0,0,0,0,0,0,0,0,0,0,0,0,0,0,0]",,,,,,,,,,0,,,,,,stimuli/m2.jpg,stimuli/m5.jpg,2,stimuli/Electronic device & accessory.png,stimuli/Kitchen & utensil.png,stimuli/Outdoor activity & sport item.png,stimuli/Hand labour tool & accessory.png,4,1,4,stimuli/m5.jpg,Hand labour tool & accessory,stimuli/objects/sewingmachine01a.jpg,28,2021-11-29_18h31.55.145,premceCat2_ses-02_part-01_label-phase1,2020.2.9,Win32,60,1,0,0.4847,0,45,45,45,1,,,,,,
0,"[1,1,1,0,0,0,0,0,1,0,1,1,1,0,1,1,0,1,0,1,1,1,1,0,1,1,0,1,0,0,0,1,0,0,0,0,0,0,0,0,0,0,1,0,0,0,1,1,1,0,1,0,1,0,1,1,1,1,1,1,0,1,1,0,0,1,0,0,0,0,0,0,0,0,0,0,0,0,0,0,0,0,0,0,1,0,0,0,0,0,0,0,0,0,0,0,0,0,0,0,0,0,0,0,0,0,0]",,,,,,,,,,0,,,,,,stimuli/m5.jpg,stimuli/m2.jpg,2,stimuli/Outdoor activity & sport item.png,stimuli/Kitchen & utensil.png,stimuli/Electronic device & accessory.png,stimuli/Hand labour tool & accessory.png,2,1,4,stimuli/m2.jpg,Kitchen & utensil,stimuli/objects/potatomasher03b.jpg,28,2021-11-29_18h31.55.145,premceCat2_ses-02_part-01_label-phase1,2020.2.9,Win32,60,4,0,0.4622,0,46,46,46,1,,,,,,
0,"[1,1,1,0,0,0,0,0,1,0,1,1,1,0,1,1,0,1,0,1,1,1,1,0,1,1,0,1,0,0,0,1,0,0,0,0,0,0,0,0,0,0,1,0,0,0,1,1,1,0,1,0,1,0,1,1,1,1,1,1,0,1,1,0,0,1,0,0,0,0,0,0,0,0,0,0,0,0,0,0,0,0,0,0,1,0,0,0,0,0,0,0,0,0,0,0,0,0,0,0,0,0,0,0,0,0,0,0]",,,,,,,,,,0,,,,,,stimuli/m5.jpg,stimuli/m2.jpg,2,stimuli/Kitchen & utensil.png,stimuli/Outdoor activity & sport item.png,stimuli/Hand labour tool & accessory.png,stimuli/Electronic device & accessory.png,4,0,4,stimuli/m2.jpg,Electronic device & accessory,stimuli/objects/floppydisk02a.jpg,28,2021-11-29_18h31.55.145,premceCat2_ses-02_part-01_label-phase1,2020.2.9,Win32,60,1,0,1.1888,0,47,47,47,1,,,,,,
,,,,,,,,,,,,,,,,,,,,,,,,,,,,,,28,2021-11-29_18h31.55.145,premceCat2_ses-02_part-01_label-phase1,2020.2.9,Win32,60,,,,,,,,,0,2,2,2,1,condition_files/tasklistC1.csv
1,"[1,1,1,0,0,0,0,0,1,0,1,1,1,0,1,1,0,1,0,1,1,1,1,0,1,1,0,1,0,0,0,1,0,0,0,0,0,0,0,0,0,0,1,0,0,0,1,1,1,0,1,0,1,0,1,1,1,1,1,1,0,1,1,0,0,1,0,0,0,0,0,0,0,0,0,0,0,0,0,0,0,0,0,0,1,0,0,0,0,0,0,0,0,0,0,0,0,0,0,0,0,0,0,0,0,0,0,0]",,,,,,,,,,1,,,,,,stimuli/m2.jpg,stimuli/m5.jpg,1,stimuli/Kitchen & utensil.png,stimuli/Hand labour tool & accessory.png,stimuli/Electronic device & accessory.png,stimuli/Outdoor activity & sport item.png,4,1,5,stimuli/m2.jpg,Outdoor activity & sport item,stimuli/objects/shinpad.jpg,28,2021-11-29_18h31.55.145,premceCat2_ses-02_part-01_label-phase1,2020.2.9,Win32,60,4,1,0.3998,0,0,0,0,1,,,,,,
0,"[1,1,1,0,0,0,0,0,1,0,1,1,1,0,1,1,0,1,0,1,1,1,1,0,1,1,0,1,0,0,0,1,0,0,0,0,0,0,0,0,0,0,1,0,0,0,1,1,1,0,1,0,1,0,1,1,1,1,1,1,0,1,1,0,0,1,0,0,0,0,0,0,0,0,0,0,0,0,0,0,0,0,0,0,1,0,0,0,0,0,0,0,0,0,0,0,0,0,0,0,0,0,0,0,0,0,0,0,1]",,,,,,,,,,1,,,,,,stimuli/m5.jpg,stimuli/m2.jpg,2,stimuli/Kitchen & utensil.png,stimuli/Hand labour tool & accessory.png,stimuli/Outdoor activity & sport item.png,stimuli/Electronic device & accessory.png,4,0,5,stimuli/m2.jpg,Electronic device & accessory,stimuli/objects/fanblades.jpg,28,2021-11-29_18h31.55.145,premceCat2_ses-02_part-01_label-phase1,2020.2.9,Win32,60,2,0,0.3024,0,1,1,1,1,,,,,,
0,"[1,1,1,0,0,0,0,0,1,0,1,1,1,0,1,1,0,1,0,1,1,1,1,0,1,1,0,1,0,0,0,1,0,0,0,0,0,0,0,0,0,0,1,0,0,0,1,1,1,0,1,0,1,0,1,1,1,1,1,1,0,1,1,0,0,1,0,0,0,0,0,0,0,0,0,0,0,0,0,0,0,0,0,0,1,0,0,0,0,0,0,0,0,0,0,0,0,0,0,0,0,0,0,0,0,0,0,0,1]",,,,,,,,,,0,,,,,,stimuli/m5.jpg,stimuli/m2.jpg,2,stimuli/Electronic device & accessory.png,stimuli/Kitchen & utensil.png,stimuli/Hand labour tool & accessory.png,stimuli/Outdoor activity & sport item.png,4,1,5,stimuli/m2.jpg,Outdoor activity & sport item,stimuli/objects/poolnet.jpg,28,2021-11-29_18h31.55.145,premceCat2_ses-02_part-01_label-phase1,2020.2.9,Win32,60,3,0,0.3287,0,2,2,2,1,,,,,,
0,"[1,1,1,0,0,0,0,0,1,0,1,1,1,0,1,1,0,1,0,1,1,1,1,0,1,1,0,1,0,0,0,1,0,0,0,0,0,0,0,0,0,0,1,0,0,0,1,1,1,0,1,0,1,0,1,1,1,1,1,1,0,1,1,0,0,1,0,0,0,0,0,0,0,0,0,0,0,0,0,0,0,0,0,0,1,0,0,0,0,0,0,0,0,0,0,0,0,0,0,0,0,0,0,0,0,0,0,0,1,0]",,,,,,,,,,0,,,,,,stimuli/m5.jpg,stimuli/m2.jpg,2,stimuli/Hand labour tool & accessory.png,stimuli/Outdoor activity & sport item.png,stimuli/Kitchen & utensil.png,stimuli/Electronic device & accessory.png,2,1,5,stimuli/m2.jpg,Outdoor activity & sport item,stimuli/objects/podium.jpg,28,2021-11-29_18h31.55.145,premceCat2_ses-02_part-01_label-phase1,2020.2.9,Win32,60,1,0,0.3888,0,3,3,3,1,,,,,,
0,"[1,1,1,0,0,0,0,0,1,0,1,1,1,0,1,1,0,1,0,1,1,1,1,0,1,1,0,1,0,0,0,1,0,0,0,0,0,0,0,0,0,0,1,0,0,0,1,1,1,0,1,0,1,0,1,1,1,1,1,1,0,1,1,0,0,1,0,0,0,0,0,0,0,0,0,0,0,0,0,0,0,0,0,0,1,0,0,0,0,0,0,0,0,0,0,0,0,0,0,0,0,0,0,0,0,0,0,0,1,0,0]",,,,,,,,,,0,,,,,,stimuli/m2.jpg,stimuli/m5.jpg,2,stimuli/Outdoor activity & sport item.png,stimuli/Kitchen & utensil.png,stimuli/Electronic device & accessory.png,stimuli/Hand labour tool & accessory.png,3,1,5,stimuli/m5.jpg,Electronic device & accessory,stimuli/objects/chandelier.jpg,28,2021-11-29_18h31.55.145,premceCat2_ses-02_part-01_label-phase1,2020.2.9,Win32,60,1,0,1.116,0,4,4,4,1,,,,,,
0,"[1,1,1,0,0,0,0,0,1,0,1,1,1,0,1,1,0,1,0,1,1,1,1,0,1,1,0,1,0,0,0,1,0,0,0,0,0,0,0,0,0,0,1,0,0,0,1,1,1,0,1,0,1,0,1,1,1,1,1,1,0,1,1,0,0,1,0,0,0,0,0,0,0,0,0,0,0,0,0,0,0,0,0,0,1,0,0,0,0,0,0,0,0,0,0,0,0,0,0,0,0,0,0,0,0,0,0,0,1,0,0,0]",,,,,,,,,,0,,,,,,stimuli/m5.jpg,stimuli/m2.jpg,2,stimuli/Hand labour tool & accessory.png,stimuli/Kitchen & utensil.png,stimuli/Outdoor activity & sport item.png,stimuli/Electronic device & accessory.png,1,0,5,stimuli/m2.jpg,Hand labour tool & accessory,stimuli/objects/weedwacker.jpg,28,2021-11-29_18h31.55.145,premceCat2_ses-02_part-01_label-phase1,2020.2.9,Win32,60,4,0,0.6698,0,5,5,5,1,,,,,,
0,"[1,1,1,0,0,0,0,0,1,0,1,1,1,0,1,1,0,1,0,1,1,1,1,0,1,1,0,1,0,0,0,1,0,0,0,0,0,0,0,0,0,0,1,0,0,0,1,1,1,0,1,0,1,0,1,1,1,1,1,1,0,1,1,0,0,1,0,0,0,0,0,0,0,0,0,0,0,0,0,0,0,0,0,0,1,0,0,0,0,0,0,0,0,0,0,0,0,0,0,0,0,0,0,0,0,0,0,0,1,0,0,0]",,,,,,,,,,0,,,,,,stimuli/m5.jpg,stimuli/m2.jpg,2,stimuli/Electronic device & accessory.png,stimuli/Outdoor activity & sport item.png,stimuli/Hand labour tool & accessory.png,stimuli/Kitchen & utensil.png,3,0,5,stimuli/m2.jpg,Hand labour tool & accessory,stimuli/objects/drill01b.jpg,28,2021-11-29_18h31.55.145,premceCat2_ses-02_part-01_label-phase1,2020.2.9,Win32,60,2,0,0.8628,0,6,6,6,1,,,,,,
0,"[1,1,1,0,0,0,0,0,1,0,1,1,1,0,1,1,0,1,0,1,1,1,1,0,1,1,0,1,0,0,0,1,0,0,0,0,0,0,0,0,0,0,1,0,0,0,1,1,1,0,1,0,1,0,1,1,1,1,1,1,0,1,1,0,0,1,0,0,0,0,0,0,0,0,0,0,0,0,0,0,0,0,0,0,1,0,0,0,0,0,0,0,0,0,0,0,0,0,0,0,0,0,0,0,0,0,0,0,1,0,0,0]",,,,,,,,,,0,,,,,,stimuli/m5.jpg,stimuli/m2.jpg,1,stimuli/Outdoor activity & sport item.png,stimuli/Kitchen & utensil.png,stimuli/Hand labour tool & accessory.png,stimuli/Electronic device & accessory.png,4,1,5,stimuli/m5.jpg,Electronic device & accessory,stimuli/objects/scanner.jpg,28,2021-11-29_18h31.55.145,premceCat2_ses-02_part-01_label-phase1,2020.2.9,Win32,60,3,0,0.283,0,7,7,7,1,,,,,,
0,"[1,1,1,0,0,0,0,0,1,0,1,1,1,0,1,1,0,1,0,1,1,1,1,0,1,1,0,1,0,0,0,1,0,0,0,0,0,0,0,0,0,0,1,0,0,0,1,1,1,0,1,0,1,0,1,1,1,1,1,1,0,1,1,0,0,1,0,0,0,0,0,0,0,0,0,0,0,0,0,0,0,0,0,0,1,0,0,0,0,0,0,0,0,0,0,0,0,0,0,0,0,0,0,0,0,0,0,0,1,0,0,0,0]",,,,,,,,,,0,,,,,,stimuli/m2.jpg,stimuli/m5.jpg,1,stimuli/Kitchen & utensil.png,stimuli/Electronic device & accessory.png,stimuli/Hand labour tool & accessory.png,stimuli/Outdoor activity & sport item.png,4,1,5,stimuli/m2.jpg,Outdoor activity & sport item,stimuli/objects/iceskate.jpg,28,2021-11-29_18h31.55.145,premceCat2_ses-02_part-01_label-phase1,2020.2.9,Win32,60,2,0,1.0117,0,8,8,8,1,,,,,,
0,"[1,1,1,0,0,0,0,0,1,0,1,1,1,0,1,1,0,1,0,1,1,1,1,0,1,1,0,1,0,0,0,1,0,0,0,0,0,0,0,0,0,0,1,0,0,0,1,1,1,0,1,0,1,0,1,1,1,1,1,1,0,1,1,0,0,1,0,0,0,0,0,0,0,0,0,0,0,0,0,0,0,0,0,0,1,0,0,0,0,0,0,0,0,0,0,0,0,0,0,0,0,0,0,0,0,0,0,0,1,0,0,0,0,0]",,,,,,,,,,0,,,,,,stimuli/m5.jpg,stimuli/m2.jpg,2,stimuli/Electronic device & accessory.png,stimuli/Kitchen & utensil.png,stimuli/Outdoor activity & sport item.png,stimuli/Hand labour tool & accessory.png,3,1,5,stimuli/m2.jpg,Outdoor activity & sport item,stimuli/objects/magneticcompass.jpg,28,2021-11-29_18h31.55.145,premceCat2_ses-02_part-01_label-phase1,2020.2.9,Win32,60,4,0,0.622,0,9,9,9,1,,,,,,
1,"[1,1,1,0,0,0,0,0,1,0,1,1,1,0,1,1,0,1,0,1,1,1,1,0,1,1,0,1,0,0,0,1,0,0,0,0,0,0,0,0,0,0,1,0,0,0,1,1,1,0,1,0,1,0,1,1,1,1,1,1,0,1,1,0,0,1,0,0,0,0,0,0,0,0,0,0,0,0,0,0,0,0,0,0,1,0,0,0,0,0,0,0,0,0,0,0,0,0,0,0,0,0,0,0,0,0,0,0,1,0,0,0,0,0,0]",,,,,,,,,,1,,,,,,stimuli/m5.jpg,stimuli/m2.jpg,1,stimuli/Outdoor activity & sport item.png,stimuli/Electronic device & accessory.png,stimuli/Hand labour tool & accessory.png,stimuli/Kitchen & utensil.png,2,1,5,stimuli/m5.jpg,Electronic device & accessory,stimuli/objects/nintendods.jpg,28,2021-11-29_18h31.55.145,premceCat2_ses-02_part-01_label-phase1,2020.2.9,Win32,60,2,1,0.6096,0,10,10,10,1,,,,,,
0,"[1,1,1,0,0,0,0,0,1,0,1,1,1,0,1,1,0,1,0,1,1,1,1,0,1,1,0,1,0,0,0,1,0,0,0,0,0,0,0,0,0,0,1,0,0,0,1,1,1,0,1,0,1,0,1,1,1,1,1,1,0,1,1,0,0,1,0,0,0,0,0,0,0,0,0,0,0,0,0,0,0,0,0,0,1,0,0,0,0,0,0,0,0,0,0,0,0,0,0,0,0,0,0,0,0,0,0,0,1,0,0,0,0,0,0,1]",,,,,,,,,,1,,,,,,stimuli/m5.jpg,stimuli/m2.jpg,2,stimuli/Electronic device & accessory.png,stimuli/Hand labour tool & accessory.png,stimuli/Kitchen & utensil.png,stimuli/Outdoor activity & sport item.png,3,0,5,stimuli/m2.jpg,Kitchen & utensil,stimuli/objects/canister.jpg,28,2021-11-29_18h31.55.145,premceCat2_ses-02_part-01_label-phase1,2020.2.9,Win32,60,1,0,0.5167,0,11,11,11,1,,,,,,
1,"[1,1,1,0,0,0,0,0,1,0,1,1,1,0,1,1,0,1,0,1,1,1,1,0,1,1,0,1,0,0,0,1,0,0,0,0,0,0,0,0,0,0,1,0,0,0,1,1,1,0,1,0,1,0,1,1,1,1,1,1,0,1,1,0,0,1,0,0,0,0,0,0,0,0,0,0,0,0,0,0,0,0,0,0,1,0,0,0,0,0,0,0,0,0,0,0,0,0,0,0,0,0,0,0,0,0,0,0,1,0,0,0,0,0,0,1]",,,,,,,,,,1,,,,,,stimuli/m2.jpg,stimuli/m5.jpg,2,stimuli/Kitchen & utensil.png,stimuli/Hand labour tool & accessory.png,stimuli/Electronic device & accessory.png,stimuli/Outdoor activity & sport item.png,3,1,5,stimuli/m5.jpg,Electronic device & accessory,stimuli/objects/filmnegative.jpg,28,2021-11-29_18h31.55.145,premceCat2_ses-02_part-01_label-phase1,2020.2.9,Win32,60,3,1,0.6115,0,12,12,12,1,,,,,,
0,"[1,1,1,0,0,0,0,0,1,0,1,1,1,0,1,1,0,1,0,1,1,1,1,0,1,1,0,1,0,0,0,1,0,0,0,0,0,0,0,0,0,0,1,0,0,0,1,1,1,0,1,0,1,0,1,1,1,1,1,1,0,1,1,0,0,1,0,0,0,0,0,0,0,0,0,0,0,0,0,0,0,0,0,0,1,0,0,0,0,0,0,0,0,0,0,0,0,0,0,0,0,0,0,0,0,0,0,0,1,0,0,0,0,0,0,1,1]",,,,,,,,,,0,,,,,,stimuli/m5.jpg,stimuli/m2.jpg,2,stimuli/Kitchen & utensil.png,stimuli/Electronic device & accessory.png,stimuli/Hand labour tool & accessory.png,stimuli/Outdoor activity & sport item.png,4,1,5,stimuli/m2.jpg,Outdoor activity & sport item,stimuli/objects/hockeypuck.jpg,28,2021-11-29_18h31.55.145,premceCat2_ses-02_part-01_label-phase1,2020.2.9,Win32,60,3,0,0.8505,0,13,13,13,1,,,,,,
1,"[1,1,1,0,0,0,0,0,1,0,1,1,1,0,1,1,0,1,0,1,1,1,1,0,1,1,0,1,0,0,0,1,0,0,0,0,0,0,0,0,0,0,1,0,0,0,1,1,1,0,1,0,1,0,1,1,1,1,1,1,0,1,1,0,0,1,0,0,0,0,0,0,0,0,0,0,0,0,0,0,0,0,0,0,1,0,0,0,0,0,0,0,0,0,0,0,0,0,0,0,0,0,0,0,0,0,0,0,1,0,0,0,0,0,0,1,1,0]",,,,,,,,,,1,,,,,,stimuli/m2.jpg,stimuli/m5.jpg,2,stimuli/Electronic device & accessory.png,stimuli/Outdoor activity & sport item.png,stimuli/Hand labour tool & accessory.png,stimuli/Kitchen & utensil.png,1,1,5,stimuli/m5.jpg,Electronic device & accessory,stimuli/objects/securitycamera.jpg,28,2021-11-29_18h31.55.145,premceCat2_ses-02_part-01_label-phase1,2020.2.9,Win32,60,1,1,0.3953,0,14,14,14,1,,,,,,
1,"[1,1,1,0,0,0,0,0,1,0,1,1,1,0,1,1,0,1,0,1,1,1,1,0,1,1,0,1,0,0,0,1,0,0,0,0,0,0,0,0,0,0,1,0,0,0,1,1,1,0,1,0,1,0,1,1,1,1,1,1,0,1,1,0,0,1,0,0,0,0,0,0,0,0,0,0,0,0,0,0,0,0,0,0,1,0,0,0,0,0,0,0,0,0,0,0,0,0,0,0,0,0,0,0,0,0,0,0,1,0,0,0,0,0,0,1,1,0,1]",,,,,,,,,,1,,,,,,stimuli/m5.jpg,stimuli/m2.jpg,2,stimuli/Hand labour tool & accessory.png,stimuli/Electronic device & accessory.png,stimuli/Kitchen & utensil.png,stimuli/Outdoor activity & sport item.png,4,1,5,stimuli/m2.jpg,Outdoor activity & sport item,stimuli/objects/baseball01a.jpg,28,2021-11-29_18h31.55.145,premceCat2_ses-02_part-01_label-phase1,2020.2.9,Win32,60,4,1,0.3557,0,15,15,15,1,,,,,,
0,"[1,1,1,0,0,0,0,0,1,0,1,1,1,0,1,1,0,1,0,1,1,1,1,0,1,1,0,1,0,0,0,1,0,0,0,0,0,0,0,0,0,0,1,0,0,0,1,1,1,0,1,0,1,0,1,1,1,1,1,1,0,1,1,0,0,1,0,0,0,0,0,0,0,0,0,0,0,0,0,0,0,0,0,0,1,0,0,0,0,0,0,0,0,0,0,0,0,0,0,0,0,0,0,0,0,0,0,0,1,0,0,0,0,0,0,1,1,0,1,1]",,,,,,,,,,0,,,,,,stimuli/m2.jpg,stimuli/m5.jpg,2,stimuli/Hand labour tool & accessory.png,stimuli/Kitchen & utensil.png,stimuli/Electronic device & accessory.png,stimuli/Outdoor activity & sport item.png,3,1,5,stimuli/m5.jpg,Electronic device & accessory,stimuli/objects/ipod.jpg,28,2021-11-29_18h31.55.145,premceCat2_ses-02_part-01_label-phase1,2020.2.9,Win32,60,2,0,0.4697,0,16,16,16,1,,,,,,
0,"[1,1,1,0,0,0,0,0,1,0,1,1,1,0,1,1,0,1,0,1,1,1,1,0,1,1,0,1,0,0,0,1,0,0,0,0,0,0,0,0,0,0,1,0,0,0,1,1,1,0,1,0,1,0,1,1,1,1,1,1,0,1,1,0,0,1,0,0,0,0,0,0,0,0,0,0,0,0,0,0,0,0,0,0,1,0,0,0,0,0,0,0,0,0,0,0,0,0,0,0,0,0,0,0,0,0,0,0,1,0,0,0,0,0,0,1,1,0,1,1,0]",,,,,,,,,,0,,,,,,stimuli/m2.jpg,stimuli/m5.jpg,1,stimuli/Outdoor activity & sport item.png,stimuli/Electronic device & accessory.png,stimuli/Hand labour tool & accessory.png,stimuli/Kitchen & utensil.png,1,1,5,stimuli/m2.jpg,Outdoor activity & sport item,stimuli/objects/charcoalbarbecue.jpg,28,2021-11-29_18h31.55.145,premceCat2_ses-02_part-01_label-phase1,2020.2.9,Win32,60,2,0,0.8144,0,17,17,17,1,,,,,,
1,"[1,1,1,0,0,0,0,0,1,0,1,1,1,0,1,1,0,1,0,1,1,1,1,0,1,1,0,1,0,0,0,1,0,0,0,0,0,0,0,0,0,0,1,0,0,0,1,1,1,0,1,0,1,0,1,1,1,1,1,1,0,1,1,0,0,1,0,0,0,0,0,0,0,0,0,0,0,0,0,0,0,0,0,0,1,0,0,0,0,0,0,0,0,0,0,0,0,0,0,0,0,0,0,0,0,0,0,0,1,0,0,0,0,0,0,1,1,0,1,1,0,0]",,,,,,,,,,1,,,,,,stimuli/m5.jpg,stimuli/m2.jpg,2,stimuli/Hand labour tool & accessory.png,stimuli/Electronic device & accessory.png,stimuli/Outdoor activity & sport item.png,stimuli/Kitchen & utensil.png,3,1,5,stimuli/m2.jpg,Outdoor activity & sport item,stimuli/objects/treadmill.jpg,28,2021-11-29_18h31.55.145,premceCat2_ses-02_part-01_label-phase1,2020.2.9,Win32,60,3,1,0.4287,0,18,18,18,1,,,,,,
0,"[1,1,1,0,0,0,0,0,1,0,1,1,1,0,1,1,0,1,0,1,1,1,1,0,1,1,0,1,0,0,0,1,0,0,0,0,0,0,0,0,0,0,1,0,0,0,1,1,1,0,1,0,1,0,1,1,1,1,1,1,0,1,1,0,0,1,0,0,0,0,0,0,0,0,0,0,0,0,0,0,0,0,0,0,1,0,0,0,0,0,0,0,0,0,0,0,0,0,0,0,0,0,0,0,0,0,0,0,1,0,0,0,0,0,0,1,1,0,1,1,0,0,1]",,,,,,,,,,0,,,,,,stimuli/m2.jpg,stimuli/m5.jpg,1,stimuli/Hand labour tool & accessory.png,stimuli/Outdoor activity & sport item.png,stimuli/Electronic device & accessory.png,stimuli/Kitchen & utensil.png,2,1,5,stimuli/m2.jpg,Outdoor activity & sport item,stimuli/objects/anchor.jpg,28,2021-11-29_18h31.55.145,premceCat2_ses-02_part-01_label-phase1,2020.2.9,Win32,60,1,0,0.4969,0,19,19,19,1,,,,,,
0,"[1,1,1,0,0,0,0,0,1,0,1,1,1,0,1,1,0,1,0,1,1,1,1,0,1,1,0,1,0,0,0,1,0,0,0,0,0,0,0,0,0,0,1,0,0,0,1,1,1,0,1,0,1,0,1,1,1,1,1,1,0,1,1,0,0,1,0,0,0,0,0,0,0,0,0,0,0,0,0,0,0,0,0,0,1,0,0,0,0,0,0,0,0,0,0,0,0,0,0,0,0,0,0,0,0,0,0,0,1,0,0,0,0,0,0,1,1,0,1,1,0,0,1,0]",,,,,,,,,,0,,,,,,stimuli/m5.jpg,stimuli/m2.jpg,2,stimuli/Hand labour tool & accessory.png,stimuli/Outdoor activity & sport item.png,stimuli/Electronic device & accessory.png,stimuli/Kitchen & utensil.png,2,1,5,stimuli/m2.jpg,Outdoor activity & sport item,stimuli/objects/baseballglove.jpg,28,2021-11-29_18h31.55.145,premceCat2_ses-02_part-01_label-phase1,2020.2.9,Win32,60,4,0,0.9177,0,20,20,20,1,,,,,,
0,"[1,1,1,0,0,0,0,0,1,0,1,1,1,0,1,1,0,1,0,1,1,1,1,0,1,1,0,1,0,0,0,1,0,0,0,0,0,0,0,0,0,0,1,0,0,0,1,1,1,0,1,0,1,0,1,1,1,1,1,1,0,1,1,0,0,1,0,0,0,0,0,0,0,0,0,0,0,0,0,0,0,0,0,0,1,0,0,0,0,0,0,0,0,0,0,0,0,0,0,0,0,0,0,0,0,0,0,0,1,0,0,0,0,0,0,1,1,0,1,1,0,0,1,0,0]",,,,,,,,,,0,,,,,,stimuli/m2.jpg,stimuli/m5.jpg,2,stimuli/Electronic device & accessory.png,stimuli/Kitchen & utensil.png,stimuli/Outdoor activity & sport item.png,stimuli/Hand labour tool & accessory.png,4,0,5,stimuli/m5.jpg,Hand labour tool & accessory,stimuli/objects/gardenshears01a.jpg,28,2021-11-29_18h31.55.145,premceCat2_ses-02_part-01_label-phase1,2020.2.9,Win32,60,3,0,0.7556,0,21,21,21,1,,,,,,
1,"[1,1,1,0,0,0,0,0,1,0,1,1,1,0,1,1,0,1,0,1,1,1,1,0,1,1,0,1,0,0,0,1,0,0,0,0,0,0,0,0,0,0,1,0,0,0,1,1,1,0,1,0,1,0,1,1,1,1,1,1,0,1,1,0,0,1,0,0,0,0,0,0,0,0,0,0,0,0,0,0,0,0,0,0,1,0,0,0,0,0,0,0,0,0,0,0,0,0,0,0,0,0,0,0,0,0,0,0,1,0,0,0,0,0,0,1,1,0,1,1,0,0,1,0,0]",,,,,,,,,,1,,,,,,stimuli/m2.jpg,stimuli/m5.jpg,1,stimuli/Outdoor activity & sport item.png,stimuli/Hand labour tool & accessory.png,stimuli/Electronic device & accessory.png,stimuli/Kitchen & utensil.png,1,1,5,stimuli/m2.jpg,Outdoor activity & sport item,stimuli/objects/skihelmet01.jpg,28,2021-11-29_18h31.55.145,premceCat2_ses-02_part-01_label-phase1,2020.2.9,Win32,60,1,1,0.6917,0,22,22,22,1,,,,,,
0,"[1,1,1,0,0,0,0,0,1,0,1,1,1,0,1,1,0,1,0,1,1,1,1,0,1,1,0,1,0,0,0,1,0,0,0,0,0,0,0,0,0,0,1,0,0,0,1,1,1,0,1,0,1,0,1,1,1,1,1,1,0,1,1,0,0,1,0,0,0,0,0,0,0,0,0,0,0,0,0,0,0,0,0,0,1,0,0,0,0,0,0,0,0,0,0,0,0,0,0,0,0,0,0,0,0,0,0,0,1,0,0,0,0,0,0,1,1,0,1,1,0,0,1,0,0,1]",,,,,,,,,,1,,,,,,stimuli/m5.jpg,stimuli/m2.jpg,1,stimuli/Electronic device & accessory.png,stimuli/Kitchen & utensil.png,stimuli/Outdoor activity & sport item.png,stimuli/Hand labour tool & accessory.png,4,0,5,stimuli/m5.jpg,Hand labour tool & accessory,stimuli/objects/caulking.jpg,28,2021-11-29_18h31.55.145,premceCat2_ses-02_part-01_label-phase1,2020.2.9,Win32,60,3,0,0.4998,0,23,23,23,1,,,,,,
0,"[1,1,1,0,0,0,0,0,1,0,1,1,1,0,1,1,0,1,0,1,1,1,1,0,1,1,0,1,0,0,0,1,0,0,0,0,0,0,0,0,0,0,1,0,0,0,1,1,1,0,1,0,1,0,1,1,1,1,1,1,0,1,1,0,0,1,0,0,0,0,0,0,0,0,0,0,0,0,0,0,0,0,0,0,1,0,0,0,0,0,0,0,0,0,0,0,0,0,0,0,0,0,0,0,0,0,0,0,1,0,0,0,0,0,0,1,1,0,1,1,0,0,1,0,0,1]",,,,,,,,,,1,,,,,,stimuli/m5.jpg,stimuli/m2.jpg,1,stimuli/Outdoor activity & sport item.png,stimuli/Electronic device & accessory.png,stimuli/Kitchen & utensil.png,stimuli/Hand labour tool & accessory.png,1,0,5,stimuli/m5.jpg,Outdoor activity & sport item,stimuli/objects/bikehelmet.jpg,28,2021-11-29_18h31.55.145,premceCat2_ses-02_part-01_label-phase1,2020.2.9,Win32,60,4,0,0.5465,0,24,24,24,1,,,,,,
0,"[1,1,1,0,0,0,0,0,1,0,1,1,1,0,1,1,0,1,0,1,1,1,1,0,1,1,0,1,0,0,0,1,0,0,0,0,0,0,0,0,0,0,1,0,0,0,1,1,1,0,1,0,1,0,1,1,1,1,1,1,0,1,1,0,0,1,0,0,0,0,0,0,0,0,0,0,0,0,0,0,0,0,0,0,1,0,0,0,0,0,0,0,0,0,0,0,0,0,0,0,0,0,0,0,0,0,0,0,1,0,0,0,0,0,0,1,1,0,1,1,0,0,1,0,0,1]",,,,,,,,,,0,,,,,,stimuli/m5.jpg,stimuli/m2.jpg,1,stimuli/Outdoor activity & sport item.png,stimuli/Hand labour tool & accessory.png,stimuli/Kitchen & utensil.png,stimuli/Electronic device & accessory.png,4,1,5,stimuli/m5.jpg,Electronic device & accessory,stimuli/objects/slidetray.jpg,28,2021-11-29_18h31.55.145,premceCat2_ses-02_part-01_label-phase1,2020.2.9,Win32,60,2,0,0.6466,0,25,25,25,1,,,,,,
0,"[1,1,1,0,0,0,0,0,1,0,1,1,1,0,1,1,0,1,0,1,1,1,1,0,1,1,0,1,0,0,0,1,0,0,0,0,0,0,0,0,0,0,1,0,0,0,1,1,1,0,1,0,1,0,1,1,1,1,1,1,0,1,1,0,0,1,0,0,0,0,0,0,0,0,0,0,0,0,0,0,0,0,0,0,1,0,0,0,0,0,0,0,0,0,0,0,0,0,0,0,0,0,0,0,0,0,0,0,1,0,0,0,0,0,0,1,1,0,1,1,0,0,1,0,0,1,0]",,,,,,,,,,0,,,,,,stimuli/m5.jpg,stimuli/m2.jpg,2,stimuli/Kitchen & utensil.png,stimuli/Outdoor activity & sport item.png,stimuli/Electronic device & accessory.png,stimuli/Hand labour tool & accessory.png,1,0,5,stimuli/m2.jpg,Kitchen & utensil,stimuli/objects/pot01.jpg,28,2021-11-29_18h31.55.145,premceCat2_ses-02_part-01_label-phase1,2020.2.9,Win32,60,3,0,0.1994,0,26,26,26,1,,,,,,
0,"[1,1,1,0,0,0,0,0,1,0,1,1,1,0,1,1,0,1,0,1,1,1,1,0,1,1,0,1,0,0,0,1,0,0,0,0,0,0,0,0,0,0,1,0,0,0,1,1,1,0,1,0,1,0,1,1,1,1,1,1,0,1,1,0,0,1,0,0,0,0,0,0,0,0,0,0,0,0,0,0,0,0,0,0,1,0,0,0,0,0,0,0,0,0,0,0,0,0,0,0,0,0,0,0,0,0,0,0,1,0,0,0,0,0,0,1,1,0,1,1,0,0,1,0,0,1,0]",,,,,,,,,,0,,,,,,stimuli/m2.jpg,stimuli/m5.jpg,2,stimuli/Outdoor activity & sport item.png,stimuli/Kitchen & utensil.png,stimuli/Hand labour tool & accessory.png,stimuli/Electronic device & accessory.png,4,1,5,stimuli/m5.jpg,Electronic device & accessory,stimuli/objects/gps.jpg,28,2021-11-29_18h31.55.145,premceCat2_ses-02_part-01_label-phase1,2020.2.9,Win32,60,1,0,0.4045,0,27,27,27,1,,,,,,
