instructions_loop.thisRepN,instructions_loop.thisTrialN,instructions_loop.thisN,instructions_loop.thisIndex,instructions_loop.ran,text1,text2,text3,participant,date,expName,psychopyVersion,OS,frameRate,key_resp_2.keys,key_resp_2.rt,key_resp_3.keys,key_resp_3.rt,recog_resp.keys,recog_resp.rt,conf_resp.keys,conf_resp.rt,resp_assoc.keys,resp_assoc.rt,assoc_loop.thisRepN,assoc_loop.thisTrialN,assoc_loop.thisN,assoc_loop.thisIndex,assoc_loop.ran,recog_loop.thisRepN,recog_loop.thisTrialN,recog_loop.thisN,recog_loop.thisIndex,recog_loop.ran,images,corr_ans,type,order,key_resp_break.keys,key_resp_break.rt,list_loop.thisRepN,list_loop.thisTrialN,list_loop.thisN,list_loop.thisIndex,list_loop.ran,recog_list
0,0,0,0,1,Welcome to the last phase of this experiment!,.,Please press the space bar to continue,28,2021-11-29_18h58.49.514,premceCat2_ses-02_part-02_label-phase2,2020.2.10,Win32,60,,,,,,,,,,,,,,,,,,,,,,,,,,,,,,,,
0,1,1,1,1,.,"In this phase, you will see some objects. 

For each object, you should indicate whether you have seen it before during the experiment.

Press LEFT ARROW for YES
Press RIGHT ARROW for NO

",Please press the space bar to continue ,28,2021-11-29_18h58.49.514,premceCat2_ses-02_part-02_label-phase2,2020.2.10,Win32,60,,,,,,,,,,,,,,,,,,,,,,,,,,,,,,,,
0,2,2,2,1,.,"After that, you will be asked how confident you are of your choice.

Please rate the confidence in your choice with the numbers from 1 to 4 of your keyboard. 

The numbers correspond to:

1 = Very unsure
2 = Unsure
3 = Sure
4 = Very Sure",Please press the space bar to continue,28,2021-11-29_18h58.49.514,premceCat2_ses-02_part-02_label-phase2,2020.2.10,Win32,60,,,,,,,,,,,,,,,,,,,,,,,,,,,,,,,,
,,,,,,,,28,2021-11-29_18h58.49.514,premceCat2_ses-02_part-02_label-phase2,2020.2.10,Win32,60,space,14.004,space,11.2096,left,1.6945,4,1.7199,left,3.5198,0,0,0,0,1,,,,,,,,,,,,,,,,,
,,,,,,,,28,2021-11-29_18h58.49.514,premceCat2_ses-02_part-02_label-phase2,2020.2.10,Win32,60,,,,,,,,,,,,,,,,0,0,0,8,1,stimuli/objects/basketballhoop01.jpg,right,new,9,,,,,,,,
,,,,,,,,28,2021-11-29_18h58.49.514,premceCat2_ses-02_part-02_label-phase2,2020.2.10,Win32,60,,,,,left,2.2059,2,1.1368,right,1.6375,0,0,0,0,1,,,,,,,,,,,,,,,,,
,,,,,,,,28,2021-11-29_18h58.49.514,premceCat2_ses-02_part-02_label-phase2,2020.2.10,Win32,60,,,,,,,,,,,,,,,,0,1,1,50,1,stimuli/objects/chisel02b.jpg,right,new,51,,,,,,,,
,,,,,,,,28,2021-11-29_18h58.49.514,premceCat2_ses-02_part-02_label-phase2,2020.2.10,Win32,60,,,,,left,1.3816,4,1.2342,right,1.4921,0,0,0,0,1,,,,,,,,,,,,,,,,,
,,,,,,,,28,2021-11-29_18h58.49.514,premceCat2_ses-02_part-02_label-phase2,2020.2.10,Win32,60,,,,,,,,,,,,,,,,0,2,2,15,1,stimuli/objects/spicerack.jpg,left,old,16,,,,,,,,
,,,,,,,,28,2021-11-29_18h58.49.514,premceCat2_ses-02_part-02_label-phase2,2020.2.10,Win32,60,,,,,right,1.468,3,2.2838,,,,,,,,0,3,3,51,1,stimuli/objects/webcam.jpg,right,new,52,,,,,,,,
,,,,,,,,28,2021-11-29_18h58.49.514,premceCat2_ses-02_part-02_label-phase2,2020.2.10,Win32,60,,,,,left,1.3906,4,0.8959,right,0.6829,0,0,0,0,1,,,,,,,,,,,,,,,,,
,,,,,,,,28,2021-11-29_18h58.49.514,premceCat2_ses-02_part-02_label-phase2,2020.2.10,Win32,60,,,,,,,,,,,,,,,,0,4,4,22,1,stimuli/objects/umbrella04.jpg,right,new,23,,,,,,,,
,,,,,,,,28,2021-11-29_18h58.49.514,premceCat2_ses-02_part-02_label-phase2,2020.2.10,Win32,60,,,,,left,1.3959,4,1.1154,left,1.1414,0,0,0,0,1,,,,,,,,,,,,,,,,,
,,,,,,,,28,2021-11-29_18h58.49.514,premceCat2_ses-02_part-02_label-phase2,2020.2.10,Win32,60,,,,,,,,,,,,,,,,0,5,5,34,1,stimuli/objects/surfboard.jpg,left,old,35,,,,,,,,
,,,,,,,,28,2021-11-29_18h58.49.514,premceCat2_ses-02_part-02_label-phase2,2020.2.10,Win32,60,,,,,left,2.869,4,1.6939,right,1.1476,0,0,0,0,1,,,,,,,,,,,,,,,,,
,,,,,,,,28,2021-11-29_18h58.49.514,premceCat2_ses-02_part-02_label-phase2,2020.2.10,Win32,60,,,,,,,,,,,,,,,,0,6,6,28,1,stimuli/objects/backpack01a.jpg,left,old,29,,,,,,,,
,,,,,,,,28,2021-11-29_18h58.49.514,premceCat2_ses-02_part-02_label-phase2,2020.2.10,Win32,60,,,,,left,2.0257,2,0.6876,left,0.9719,0,0,0,0,1,,,,,,,,,,,,,,,,,
,,,,,,,,28,2021-11-29_18h58.49.514,premceCat2_ses-02_part-02_label-phase2,2020.2.10,Win32,60,,,,,,,,,,,,,,,,0,7,7,125,1,stimuli/objects/shoulderpad.jpg,right,new,126,,,,,,,,
,,,,,,,,28,2021-11-29_18h58.49.514,premceCat2_ses-02_part-02_label-phase2,2020.2.10,Win32,60,,,,,right,1.8379,2,3.5097,,,,,,,,0,8,8,86,1,stimuli/objects/toasteroven.jpg,right,new,87,,,,,,,,
,,,,,,,,28,2021-11-29_18h58.49.514,premceCat2_ses-02_part-02_label-phase2,2020.2.10,Win32,60,,,,,left,2.9553,1,0.5262,right,0.8366,0,0,0,0,1,,,,,,,,,,,,,,,,,
,,,,,,,,28,2021-11-29_18h58.49.514,premceCat2_ses-02_part-02_label-phase2,2020.2.10,Win32,60,,,,,,,,,,,,,,,,0,9,9,141,1,stimuli/objects/generator.jpg,right,new,142,,,,,,,,
,,,,,,,,28,2021-11-29_18h58.49.514,premceCat2_ses-02_part-02_label-phase2,2020.2.10,Win32,60,,,,,right,2.3563,1,0.7353,,,,,,,,0,10,10,111,1,stimuli/objects/speaker04.jpg,right,new,112,,,,,,,,
,,,,,,,,28,2021-11-29_18h58.49.514,premceCat2_ses-02_part-02_label-phase2,2020.2.10,Win32,60,,,,,left,2.299,1,0.4431,right,0.703,0,0,0,0,1,,,,,,,,,,,,,,,,,
,,,,,,,,28,2021-11-29_18h58.49.514,premceCat2_ses-02_part-02_label-phase2,2020.2.10,Win32,60,,,,,,,,,,,,,,,,0,11,11,21,1,stimuli/objects/paintbrush01.jpg,right,new,22,,,,,,,,
,,,,,,,,28,2021-11-29_18h58.49.514,premceCat2_ses-02_part-02_label-phase2,2020.2.10,Win32,60,,,,,left,1.7735,2,1.3349,left,1.0734,0,0,0,0,1,,,,,,,,,,,,,,,,,
,,,,,,,,28,2021-11-29_18h58.49.514,premceCat2_ses-02_part-02_label-phase2,2020.2.10,Win32,60,,,,,,,,,,,,,,,,0,12,12,119,1,stimuli/objects/tongs01b.jpg,right,new,120,,,,,,,,
,,,,,,,,28,2021-11-29_18h58.49.514,premceCat2_ses-02_part-02_label-phase2,2020.2.10,Win32,60,,,,,left,1.5738,4,0.7842,left,0.5746,0,0,0,0,1,,,,,,,,,,,,,,,,,
,,,,,,,,28,2021-11-29_18h58.49.514,premceCat2_ses-02_part-02_label-phase2,2020.2.10,Win32,60,,,,,,,,,,,,,,,,0,13,13,84,1,stimuli/objects/swimgoggles.jpg,left,old,85,,,,,,,,
,,,,,,,,28,2021-11-29_18h58.49.514,premceCat2_ses-02_part-02_label-phase2,2020.2.10,Win32,60,,,,,right,2.3235,2,0.545,,,,,,,,0,14,14,43,1,stimuli/objects/punchingball.jpg,right,new,44,,,,,,,,
,,,,,,,,28,2021-11-29_18h58.49.514,premceCat2_ses-02_part-02_label-phase2,2020.2.10,Win32,60,,,,,left,2.5421,3,1.5702,right,1.1284,0,0,0,0,1,,,,,,,,,,,,,,,,,
,,,,,,,,28,2021-11-29_18h58.49.514,premceCat2_ses-02_part-02_label-phase2,2020.2.10,Win32,60,,,,,,,,,,,,,,,,0,15,15,138,1,stimuli/objects/taperecorder.jpg,right,new,139,,,,,,,,
,,,,,,,,28,2021-11-29_18h58.49.514,premceCat2_ses-02_part-02_label-phase2,2020.2.10,Win32,60,,,,,left,0.9776,2,0.7953,left,0.61,0,0,0,0,1,,,,,,,,,,,,,,,,,
,,,,,,,,28,2021-11-29_18h58.49.514,premceCat2_ses-02_part-02_label-phase2,2020.2.10,Win32,60,,,,,,,,,,,,,,,,0,16,16,94,1,stimuli/objects/electricmixer.jpg,right,new,95,,,,,,,,
,,,,,,,,28,2021-11-29_18h58.49.514,premceCat2_ses-02_part-02_label-phase2,2020.2.10,Win32,60,,,,,left,0.9177,4,0.513,left,0.638,0,0,0,0,1,,,,,,,,,,,,,,,,,
,,,,,,,,28,2021-11-29_18h58.49.514,premceCat2_ses-02_part-02_label-phase2,2020.2.10,Win32,60,,,,,,,,,,,,,,,,0,17,17,62,1,stimuli/objects/tray.jpg,left,old,63,,,,,,,,
,,,,,,,,28,2021-11-29_18h58.49.514,premceCat2_ses-02_part-02_label-phase2,2020.2.10,Win32,60,,,,,right,2.5674,2,0.3257,,,,,,,,0,18,18,54,1,stimuli/objects/pda.jpg,right,new,55,,,,,,,,
,,,,,,,,28,2021-11-29_18h58.49.514,premceCat2_ses-02_part-02_label-phase2,2020.2.10,Win32,60,,,,,right,1.2501,3,0.4692,,,,,,,,0,19,19,89,1,stimuli/objects/ducttape.jpg,right,new,90,,,,,,,,
,,,,,,,,28,2021-11-29_18h58.49.514,premceCat2_ses-02_part-02_label-phase2,2020.2.10,Win32,60,,,,,left,1.0591,4,1.7834,left,0.8527,0,0,0,0,1,,,,,,,,,,,,,,,,,
,,,,,,,,28,2021-11-29_18h58.49.514,premceCat2_ses-02_part-02_label-phase2,2020.2.10,Win32,60,,,,,,,,,,,,,,,,0,20,20,69,1,stimuli/objects/atm.jpg,left,old,70,,,,,,,,
,,,,,,,,28,2021-11-29_18h58.49.514,premceCat2_ses-02_part-02_label-phase2,2020.2.10,Win32,60,,,,,right,1.2417,2,0.4308,,,,,,,,0,21,21,20,1,stimuli/objects/laptop01a.jpg,right,new,21,,,,,,,,
,,,,,,,,28,2021-11-29_18h58.49.514,premceCat2_ses-02_part-02_label-phase2,2020.2.10,Win32,60,,,,,right,1.0258,3,0.6381,,,,,,,,0,22,22,108,1,stimuli/objects/metalscissors.jpg,right,new,109,,,,,,,,
,,,,,,,,28,2021-11-29_18h58.49.514,premceCat2_ses-02_part-02_label-phase2,2020.2.10,Win32,60,,,,,left,3.2098,2,0.3213,left,1.828,0,0,0,0,1,,,,,,,,,,,,,,,,,
,,,,,,,,28,2021-11-29_18h58.49.514,premceCat2_ses-02_part-02_label-phase2,2020.2.10,Win32,60,,,,,,,,,,,,,,,,0,23,23,19,1,stimuli/objects/peppermill02b.jpg,right,new,20,,,,,,,,
,,,,,,,,28,2021-11-29_18h58.49.514,premceCat2_ses-02_part-02_label-phase2,2020.2.10,Win32,60,,,,,left,1.7275,3,0.5362,right,0.4324,0,0,0,0,1,,,,,,,,,,,,,,,,,
,,,,,,,,28,2021-11-29_18h58.49.514,premceCat2_ses-02_part-02_label-phase2,2020.2.10,Win32,60,,,,,,,,,,,,,,,,0,24,24,135,1,stimuli/objects/drillbit03a.jpg,left,old,136,,,,,,,,
,,,,,,,,28,2021-11-29_18h58.49.514,premceCat2_ses-02_part-02_label-phase2,2020.2.10,Win32,60,,,,,left,2.2913,3,0.9366,left,1.1299,0,0,0,0,1,,,,,,,,,,,,,,,,,
,,,,,,,,28,2021-11-29_18h58.49.514,premceCat2_ses-02_part-02_label-phase2,2020.2.10,Win32,60,,,,,,,,,,,,,,,,0,25,25,55,1,stimuli/objects/toolbox02.jpg,right,new,56,,,,,,,,
,,,,,,,,28,2021-11-29_18h58.49.514,premceCat2_ses-02_part-02_label-phase2,2020.2.10,Win32,60,,,,,left,2.7921,2,2.031,right,0.6414,0,0,0,0,1,,,,,,,,,,,,,,,,,
,,,,,,,,28,2021-11-29_18h58.49.514,premceCat2_ses-02_part-02_label-phase2,2020.2.10,Win32,60,,,,,,,,,,,,,,,,0,26,26,33,1,stimuli/objects/microwave.jpg,right,new,34,,,,,,,,
,,,,,,,,28,2021-11-29_18h58.49.514,premceCat2_ses-02_part-02_label-phase2,2020.2.10,Win32,60,,,,,right,1.2243,3,0.9614,,,,,,,,0,27,27,115,1,stimuli/objects/flooringstapler.jpg,left,old,116,,,,,,,,
,,,,,,,,28,2021-11-29_18h58.49.514,premceCat2_ses-02_part-02_label-phase2,2020.2.10,Win32,60,,,,,left,1.55,3,2.0488,left,1.3982,0,0,0,0,1,,,,,,,,,,,,,,,,,
,,,,,,,,28,2021-11-29_18h58.49.514,premceCat2_ses-02_part-02_label-phase2,2020.2.10,Win32,60,,,,,,,,,,,,,,,,0,28,28,79,1,stimuli/objects/gps.jpg,left,old,80,,,,,,,,
,,,,,,,,28,2021-11-29_18h58.49.514,premceCat2_ses-02_part-02_label-phase2,2020.2.10,Win32,60,,,,,left,2.4685,4,0.3748,right,0.5693,0,0,0,0,1,,,,,,,,,,,,,,,,,
,,,,,,,,28,2021-11-29_18h58.49.514,premceCat2_ses-02_part-02_label-phase2,2020.2.10,Win32,60,,,,,,,,,,,,,,,,0,29,29,77,1,stimuli/objects/lightbulb01.jpg,left,old,78,,,,,,,,
,,,,,,,,28,2021-11-29_18h58.49.514,premceCat2_ses-02_part-02_label-phase2,2020.2.10,Win32,60,,,,,left,1.6077,3,0.5115,left,0.5439,0,0,0,0,1,,,,,,,,,,,,,,,,,
,,,,,,,,28,2021-11-29_18h58.49.514,premceCat2_ses-02_part-02_label-phase2,2020.2.10,Win32,60,,,,,,,,,,,,,,,,0,30,30,126,1,stimuli/objects/tableknife02.jpg,right,new,127,,,,,,,,
,,,,,,,,28,2021-11-29_18h58.49.514,premceCat2_ses-02_part-02_label-phase2,2020.2.10,Win32,60,,,,,right,7.0881,2,0.2882,,,,,,,,0,31,31,104,1,stimuli/objects/securitycamera.jpg,left,old,105,,,,,,,,
,,,,,,,,28,2021-11-29_18h58.49.514,premceCat2_ses-02_part-02_label-phase2,2020.2.10,Win32,60,,,,,left,1.5765,3,0.3761,left,0.7359,0,0,0,0,1,,,,,,,,,,,,,,,,,
,,,,,,,,28,2021-11-29_18h58.49.514,premceCat2_ses-02_part-02_label-phase2,2020.2.10,Win32,60,,,,,,,,,,,,,,,,0,32,32,12,1,stimuli/objects/garlicpress02a.jpg,right,new,13,,,,,,,,
,,,,,,,,28,2021-11-29_18h58.49.514,premceCat2_ses-02_part-02_label-phase2,2020.2.10,Win32,60,,,,,left,0.8749,4,0.2897,left,0.5475,0,0,0,0,1,,,,,,,,,,,,,,,,,
,,,,,,,,28,2021-11-29_18h58.49.514,premceCat2_ses-02_part-02_label-phase2,2020.2.10,Win32,60,,,,,,,,,,,,,,,,0,33,33,64,1,stimuli/objects/snowshovel.jpg,left,old,65,,,,,,,,
,,,,,,,,28,2021-11-29_18h58.49.514,premceCat2_ses-02_part-02_label-phase2,2020.2.10,Win32,60,,,,,right,2.6319,3,1.7016,,,,,,,,0,34,34,105,1,stimuli/objects/cellphone.jpg,left,old,106,,,,,,,,
,,,,,,,,28,2021-11-29_18h58.49.514,premceCat2_ses-02_part-02_label-phase2,2020.2.10,Win32,60,,,,,left,1.7457,4,0.3464,right,0.3426,0,0,0,0,1,,,,,,,,,,,,,,,,,
,,,,,,,,28,2021-11-29_18h58.49.514,premceCat2_ses-02_part-02_label-phase2,2020.2.10,Win32,60,,,,,,,,,,,,,,,,0,35,35,114,1,stimuli/objects/pitcher02b.jpg,left,old,115,,,,,,,,
,,,,,,,,28,2021-11-29_18h58.49.514,premceCat2_ses-02_part-02_label-phase2,2020.2.10,Win32,60,,,,,right,3.0359,3,0.3039,,,,,,,,0,36,36,31,1,stimuli/objects/metalbrush.jpg,left,old,32,,,,,,,,
,,,,,,,,28,2021-11-29_18h58.49.514,premceCat2_ses-02_part-02_label-phase2,2020.2.10,Win32,60,,,,,right,2.7737,3,0.2873,,,,,,,,0,37,37,32,1,stimuli/objects/mitresaw.jpg,right,new,33,,,,,,,,
,,,,,,,,28,2021-11-29_18h58.49.514,premceCat2_ses-02_part-02_label-phase2,2020.2.10,Win32,60,,,,,right,1.9717,4,0.2874,,,,,,,,0,38,38,110,1,stimuli/objects/lock03a.jpg,right,new,111,,,,,,,,
,,,,,,,,28,2021-11-29_18h58.49.514,premceCat2_ses-02_part-02_label-phase2,2020.2.10,Win32,60,,,,,left,1.726,4,1.0992,left,0.665,0,0,0,0,1,,,,,,,,,,,,,,,,,
,,,,,,,,28,2021-11-29_18h58.49.514,premceCat2_ses-02_part-02_label-phase2,2020.2.10,Win32,60,,,,,,,,,,,,,,,,0,39,39,27,1,stimuli/objects/catchermask.jpg,left,old,28,,,,,,,,
,,,,,,,,28,2021-11-29_18h58.49.514,premceCat2_ses-02_part-02_label-phase2,2020.2.10,Win32,60,,,,,right,1.11,2,0.4709,,,,,,,,0,40,40,9,1,stimuli/objects/measuringtape01.jpg,right,new,10,,,,,,,,
,,,,,,,,28,2021-11-29_18h58.49.514,premceCat2_ses-02_part-02_label-phase2,2020.2.10,Win32,60,,,,,left,1.0044,4,0.7694,left,0.7855,0,0,0,0,1,,,,,,,,,,,,,,,,,
,,,,,,,,28,2021-11-29_18h58.49.514,premceCat2_ses-02_part-02_label-phase2,2020.2.10,Win32,60,,,,,,,,,,,,,,,,0,41,41,56,1,stimuli/objects/jar02.jpg,left,old,57,,,,,,,,
,,,,,,,,28,2021-11-29_18h58.49.514,premceCat2_ses-02_part-02_label-phase2,2020.2.10,Win32,60,,,,,left,1.4136,3,0.6283,right,0.4227,0,0,0,0,1,,,,,,,,,,,,,,,,,
,,,,,,,,28,2021-11-29_18h58.49.514,premceCat2_ses-02_part-02_label-phase2,2020.2.10,Win32,60,,,,,,,,,,,,,,,,0,42,42,46,1,stimuli/objects/walkman.jpg,right,new,47,,,,,,,,
,,,,,,,,28,2021-11-29_18h58.49.514,premceCat2_ses-02_part-02_label-phase2,2020.2.10,Win32,60,,,,,right,2.633,2,0.9167,,,,,,,,0,43,43,68,1,stimuli/objects/leafblower01.jpg,right,new,69,,,,,,,,
,,,,,,,,28,2021-11-29_18h58.49.514,premceCat2_ses-02_part-02_label-phase2,2020.2.10,Win32,60,,,,,left,0.7025,4,0.4071,left,0.3091,0,0,0,0,1,,,,,,,,,,,,,,,,,
,,,,,,,,28,2021-11-29_18h58.49.514,premceCat2_ses-02_part-02_label-phase2,2020.2.10,Win32,60,,,,,,,,,,,,,,,,0,44,44,140,1,stimuli/objects/volleyball.jpg,left,old,141,,,,,,,,
,,,,,,,,28,2021-11-29_18h58.49.514,premceCat2_ses-02_part-02_label-phase2,2020.2.10,Win32,60,,,,,left,1.0948,4,0.3,right,0.3278,0,0,0,0,1,,,,,,,,,,,,,,,,,
,,,,,,,,28,2021-11-29_18h58.49.514,premceCat2_ses-02_part-02_label-phase2,2020.2.10,Win32,60,,,,,,,,,,,,,,,,0,45,45,100,1,stimuli/objects/remotecontrol04.jpg,right,new,101,,,,,,,,
,,,,,,,,28,2021-11-29_18h58.49.514,premceCat2_ses-02_part-02_label-phase2,2020.2.10,Win32,60,,,,,left,1.2924,4,0.363,left,0.4843,0,0,0,0,1,,,,,,,,,,,,,,,,,
,,,,,,,,28,2021-11-29_18h58.49.514,premceCat2_ses-02_part-02_label-phase2,2020.2.10,Win32,60,,,,,,,,,,,,,,,,0,46,46,98,1,stimuli/objects/toyhockeystick01.jpg,left,old,99,,,,,,,,
,,,,,,,,28,2021-11-29_18h58.49.514,premceCat2_ses-02_part-02_label-phase2,2020.2.10,Win32,60,,,,,left,0.6614,4,0.2843,left,0.2551,0,0,0,0,1,,,,,,,,,,,,,,,,,
,,,,,,,,28,2021-11-29_18h58.49.514,premceCat2_ses-02_part-02_label-phase2,2020.2.10,Win32,60,,,,,,,,,,,,,,,,0,47,47,124,1,stimuli/objects/baseball01a.jpg,left,old,125,,,,,,,,
,,,,,,,,28,2021-11-29_18h58.49.514,premceCat2_ses-02_part-02_label-phase2,2020.2.10,Win32,60,,,,,left,0.7429,4,0.3124,right,0.8306,0,0,0,0,1,,,,,,,,,,,,,,,,,
,,,,,,,,28,2021-11-29_18h58.49.514,premceCat2_ses-02_part-02_label-phase2,2020.2.10,Win32,60,,,,,,,,,,,,,,,,0,48,48,1,1,stimuli/objects/headphones02b.jpg,left,old,2,,,,,,,,
,,,,,,,,28,2021-11-29_18h58.49.514,premceCat2_ses-02_part-02_label-phase2,2020.2.10,Win32,60,,,,,right,1.3208,2,0.2912,,,,,,,,0,49,49,90,1,stimuli/objects/carlighter02.jpg,right,new,91,,,,,,,,
,,,,,,,,28,2021-11-29_18h58.49.514,premceCat2_ses-02_part-02_label-phase2,2020.2.10,Win32,60,,,,,left,0.7886,4,0.3053,left,0.3189,0,0,0,0,1,,,,,,,,,,,,,,,,,
,,,,,,,,28,2021-11-29_18h58.49.514,premceCat2_ses-02_part-02_label-phase2,2020.2.10,Win32,60,,,,,,,,,,,,,,,,0,50,50,74,1,stimuli/objects/treadmill.jpg,left,old,75,,,,,,,,
,,,,,,,,28,2021-11-29_18h58.49.514,premceCat2_ses-02_part-02_label-phase2,2020.2.10,Win32,60,,,,,right,3.4569,2,0.8448,,,,,,,,0,51,51,117,1,stimuli/objects/videotape01b.jpg,right,new,118,,,,,,,,
,,,,,,,,28,2021-11-29_18h58.49.514,premceCat2_ses-02_part-02_label-phase2,2020.2.10,Win32,60,,,,,left,0.7791,4,0.3914,left,0.3066,0,0,0,0,1,,,,,,,,,,,,,,,,,
,,,,,,,,28,2021-11-29_18h58.49.514,premceCat2_ses-02_part-02_label-phase2,2020.2.10,Win32,60,,,,,,,,,,,,,,,,0,52,52,129,1,stimuli/objects/corkscrew03a.jpg,left,old,130,,,,,,,,
,,,,,,,,28,2021-11-29_18h58.49.514,premceCat2_ses-02_part-02_label-phase2,2020.2.10,Win32,60,,,,,right,4.2841,1,0.3161,,,,,,,,0,53,53,83,1,stimuli/objects/kitchenscale01a.jpg,right,new,84,,,,,,,,
,,,,,,,,28,2021-11-29_18h58.49.514,premceCat2_ses-02_part-02_label-phase2,2020.2.10,Win32,60,,,,,left,4.5549,3,2.2716,right,1.02,0,0,0,0,1,,,,,,,,,,,,,,,,,
,,,,,,,,28,2021-11-29_18h58.49.514,premceCat2_ses-02_part-02_label-phase2,2020.2.10,Win32,60,,,,,,,,,,,,,,,,0,54,54,128,1,stimuli/objects/tripod01.jpg,right,new,129,,,,,,,,
,,,,,,,,28,2021-11-29_18h58.49.514,premceCat2_ses-02_part-02_label-phase2,2020.2.10,Win32,60,,,,,right,1.7063,4,1.1183,,,,,,,,0,55,55,72,1,stimuli/objects/cclamp.jpg,right,new,73,,,,,,,,
,,,,,,,,28,2021-11-29_18h58.49.514,premceCat2_ses-02_part-02_label-phase2,2020.2.10,Win32,60,,,,,right,1.3084,3,0.3055,,,,,,,,0,56,56,112,1,stimuli/objects/gymnasticring.jpg,right,new,113,,,,,,,,
,,,,,,,,28,2021-11-29_18h58.49.514,premceCat2_ses-02_part-02_label-phase2,2020.2.10,Win32,60,,,,,right,3.1545,3,0.9859,,,,,,,,0,57,57,96,1,stimuli/objects/golfbag.jpg,right,new,97,,,,,,,,
,,,,,,,,28,2021-11-29_18h58.49.514,premceCat2_ses-02_part-02_label-phase2,2020.2.10,Win32,60,,,,,left,0.8384,4,0.455,right,0.5908,0,0,0,0,1,,,,,,,,,,,,,,,,,
,,,,,,,,28,2021-11-29_18h58.49.514,premceCat2_ses-02_part-02_label-phase2,2020.2.10,Win32,60,,,,,,,,,,,,,,,,0,58,58,35,1,stimuli/objects/chandelier.jpg,left,old,36,,,,,,,,
,,,,,,,,28,2021-11-29_18h58.49.514,premceCat2_ses-02_part-02_label-phase2,2020.2.10,Win32,60,,,,,left,0.8559,4,0.367,right,0.3851,0,0,0,0,1,,,,,,,,,,,,,,,,,
,,,,,,,,28,2021-11-29_18h58.49.514,premceCat2_ses-02_part-02_label-phase2,2020.2.10,Win32,60,,,,,,,,,,,,,,,,0,59,59,16,1,stimuli/objects/wheelbarrow01.jpg,left,old,17,,,,,,,,
,,,,,,,,28,2021-11-29_18h58.49.514,premceCat2_ses-02_part-02_label-phase2,2020.2.10,Win32,60,,,,,right,2.1272,1,0.3143,,,,,,,,0,60,60,116,1,stimuli/objects/radio01.jpg,right,new,117,,,,,,,,
,,,,,,,,28,2021-11-29_18h58.49.514,premceCat2_ses-02_part-02_label-phase2,2020.2.10,Win32,60,,,,,left,0.9803,4,0.4274,right,1.1317,0,0,0,0,1,,,,,,,,,,,,,,,,,
,,,,,,,,28,2021-11-29_18h58.49.514,premceCat2_ses-02_part-02_label-phase2,2020.2.10,Win32,60,,,,,,,,,,,,,,,,0,61,61,118,1,stimuli/objects/rope03.jpg,left,old,119,,,,,,,,
,,,,,,,,28,2021-11-29_18h58.49.514,premceCat2_ses-02_part-02_label-phase2,2020.2.10,Win32,60,,,,,left,1.1996,4,2.2329,right,0.2094,0,0,0,0,1,,,,,,,,,,,,,,,,,
,,,,,,,,28,2021-11-29_18h58.49.514,premceCat2_ses-02_part-02_label-phase2,2020.2.10,Win32,60,,,,,,,,,,,,,,,,0,62,62,10,1,stimuli/objects/vhstape.jpg,left,old,11,,,,,,,,
,,,,,,,,28,2021-11-29_18h58.49.514,premceCat2_ses-02_part-02_label-phase2,2020.2.10,Win32,60,,,,,left,0.8946,4,0.2566,left,0.6135,0,0,0,0,1,,,,,,,,,,,,,,,,,
,,,,,,,,28,2021-11-29_18h58.49.514,premceCat2_ses-02_part-02_label-phase2,2020.2.10,Win32,60,,,,,,,,,,,,,,,,0,63,63,47,1,stimuli/objects/bucket02.jpg,left,old,48,,,,,,,,
,,,,,,,,28,2021-11-29_18h58.49.514,premceCat2_ses-02_part-02_label-phase2,2020.2.10,Win32,60,,,,,left,1.1763,4,0.257,right,0.4189,0,0,0,0,1,,,,,,,,,,,,,,,,,
,,,,,,,,28,2021-11-29_18h58.49.514,premceCat2_ses-02_part-02_label-phase2,2020.2.10,Win32,60,,,,,,,,,,,,,,,,0,64,64,0,1,stimuli/objects/phonejack.jpg,left,old,1,,,,,,,,
,,,,,,,,28,2021-11-29_18h58.49.514,premceCat2_ses-02_part-02_label-phase2,2020.2.10,Win32,60,,,,,right,1.1995,1,0.7141,,,,,,,,0,65,65,4,1,stimuli/objects/microphone01.jpg,right,new,5,,,,,,,,
,,,,,,,,28,2021-11-29_18h58.49.514,premceCat2_ses-02_part-02_label-phase2,2020.2.10,Win32,60,,,,,left,1.1611,4,0.2457,left,0.3874,0,0,0,0,1,,,,,,,,,,,,,,,,,
,,,,,,,,28,2021-11-29_18h58.49.514,premceCat2_ses-02_part-02_label-phase2,2020.2.10,Win32,60,,,,,,,,,,,,,,,,0,66,66,6,1,stimuli/objects/contactlens.jpg,left,old,7,,,,,,,,
,,,,,,,,28,2021-11-29_18h58.49.514,premceCat2_ses-02_part-02_label-phase2,2020.2.10,Win32,60,,,,,left,1.135,4,0.3363,right,0.48,0,0,0,0,1,,,,,,,,,,,,,,,,,
,,,,,,,,28,2021-11-29_18h58.49.514,premceCat2_ses-02_part-02_label-phase2,2020.2.10,Win32,60,,,,,,,,,,,,,,,,0,67,67,130,1,stimuli/objects/hockeypuck.jpg,left,old,131,,,,,,,,
,,,,,,,,28,2021-11-29_18h58.49.514,premceCat2_ses-02_part-02_label-phase2,2020.2.10,Win32,60,,,,,left,1.4258,4,0.3794,left,0.5035,0,0,0,0,1,,,,,,,,,,,,,,,,,
,,,,,,,,28,2021-11-29_18h58.49.514,premceCat2_ses-02_part-02_label-phase2,2020.2.10,Win32,60,,,,,,,,,,,,,,,,0,68,68,63,1,stimuli/objects/butterdish.jpg,right,new,64,,,,,,,,
,,,,,,,,28,2021-11-29_18h58.49.514,premceCat2_ses-02_part-02_label-phase2,2020.2.10,Win32,60,,,,,right,1.3581,3,0.5109,,,,,,,,0,69,69,42,1,stimuli/objects/snowshoe.jpg,right,new,43,,,,,,,,
,,,,,,,,28,2021-11-29_18h58.49.514,premceCat2_ses-02_part-02_label-phase2,2020.2.10,Win32,60,,,,,right,2.7542,2,0.9324,,,,,,,,0,70,70,81,1,stimuli/objects/avcable.jpg,right,new,82,,,,,,,,
,,,,,,,,28,2021-11-29_18h58.49.514,premceCat2_ses-02_part-02_label-phase2,2020.2.10,Win32,60,,,,,left,1.4067,1,0.8874,right,0.6775,0,0,0,0,1,,,,,,,,,,,,,,,,,
,,,,,,,,28,2021-11-29_18h58.49.514,premceCat2_ses-02_part-02_label-phase2,2020.2.10,Win32,60,,,,,,,,,,,,,,,,0,71,71,95,1,stimuli/objects/telephone01b.jpg,left,old,96,,,,,,,,
,,,,,,,,28,2021-11-29_18h58.49.514,premceCat2_ses-02_part-02_label-phase2,2020.2.10,Win32,60,,,,,left,1.0762,4,0.274,left,0.4014,0,0,0,0,1,,,,,,,,,,,,,,,,,
,,,,,,,,28,2021-11-29_18h58.49.514,premceCat2_ses-02_part-02_label-phase2,2020.2.10,Win32,60,,,,,,,,,,,,,,,,0,72,72,78,1,stimuli/objects/servingspoon01.jpg,left,old,79,,,,,,,,
,,,,,,,,28,2021-11-29_18h58.49.514,premceCat2_ses-02_part-02_label-phase2,2020.2.10,Win32,60,,,,,left,0.9214,4,0.2722,right,0.2399,0,0,0,0,1,,,,,,,,,,,,,,,,,
,,,,,,,,28,2021-11-29_18h58.49.514,premceCat2_ses-02_part-02_label-phase2,2020.2.10,Win32,60,,,,,,,,,,,,,,,,0,73,73,44,1,stimuli/objects/toyhardhat.jpg,left,old,45,,,,,,,,
,,,,,,,,28,2021-11-29_18h58.49.514,premceCat2_ses-02_part-02_label-phase2,2020.2.10,Win32,60,,,,,right,0.9888,3,0.6046,,,,,,,,0,74,74,139,1,stimuli/objects/frisbee.jpg,right,new,140,,,,,,,,
,,,,,,,,28,2021-11-29_18h58.49.514,premceCat2_ses-02_part-02_label-phase2,2020.2.10,Win32,60,,,,,left,1.8197,4,0.2901,right,0.2023,0,0,0,0,1,,,,,,,,,,,,,,,,,
,,,,,,,,28,2021-11-29_18h58.49.514,premceCat2_ses-02_part-02_label-phase2,2020.2.10,Win32,60,,,,,,,,,,,,,,,,0,75,75,37,1,stimuli/objects/aircompressor.jpg,left,old,38,,,,,,,,
,,,,,,,,28,2021-11-29_18h58.49.514,premceCat2_ses-02_part-02_label-phase2,2020.2.10,Win32,60,,,,,left,1.3145,3,0.4513,right,0.8676,0,0,0,0,1,,,,,,,,,,,,,,,,,
,,,,,,,,28,2021-11-29_18h58.49.514,premceCat2_ses-02_part-02_label-phase2,2020.2.10,Win32,60,,,,,,,,,,,,,,,,0,76,76,136,1,stimuli/objects/battery02b.jpg,right,new,137,,,,,,,,
,,,,,,,,28,2021-11-29_18h58.49.514,premceCat2_ses-02_part-02_label-phase2,2020.2.10,Win32,60,,,,,right,1.242,2,0.9986,,,,,,,,0,77,77,18,1,stimuli/objects/cashregister01.jpg,right,new,19,,,,,,,,
,,,,,,,,28,2021-11-29_18h58.49.514,premceCat2_ses-02_part-02_label-phase2,2020.2.10,Win32,60,,,,,right,1.2844,2,0.6012,,,,,,,,0,78,78,57,1,stimuli/objects/audiocablesplitter.jpg,right,new,58,,,,,,,,
,,,,,,,,28,2021-11-29_18h58.49.514,premceCat2_ses-02_part-02_label-phase2,2020.2.10,Win32,60,,,,,right,2.3044,4,0.2716,,,,,,,,0,79,79,92,1,stimuli/objects/carjack.jpg,right,new,93,,,,,,,,
,,,,,,,,28,2021-11-29_18h58.49.514,premceCat2_ses-02_part-02_label-phase2,2020.2.10,Win32,60,,,,,right,2.5738,1,0.1421,,,,,,,,0,80,80,38,1,stimuli/objects/soundmixer.jpg,right,new,39,,,,,,,,
,,,,,,,,28,2021-11-29_18h58.49.514,premceCat2_ses-02_part-02_label-phase2,2020.2.10,Win32,60,,,,,left,0.6595,4,0.259,left,0.3511,0,0,0,0,1,,,,,,,,,,,,,,,,,
,,,,,,,,28,2021-11-29_18h58.49.514,premceCat2_ses-02_part-02_label-phase2,2020.2.10,Win32,60,,,,,,,,,,,,,,,,0,81,81,65,1,stimuli/objects/tape02a.jpg,left,old,66,,,,,,,,
,,,,,,,,28,2021-11-29_18h58.49.514,premceCat2_ses-02_part-02_label-phase2,2020.2.10,Win32,60,,,,,right,2.8748,1,0.8339,,,,,,,,0,82,82,123,1,stimuli/objects/breadknife.jpg,left,old,124,,,,,,,,
,,,,,,,,28,2021-11-29_18h58.49.514,premceCat2_ses-02_part-02_label-phase2,2020.2.10,Win32,60,,,,,left,0.7497,4,0.2682,right,0.8957,0,0,0,0,1,,,,,,,,,,,,,,,,,
,,,,,,,,28,2021-11-29_18h58.49.514,premceCat2_ses-02_part-02_label-phase2,2020.2.10,Win32,60,,,,,,,,,,,,,,,,0,83,83,134,1,stimuli/objects/screwdriver04b.jpg,right,new,135,,,,,,,,
,,,,,,,,28,2021-11-29_18h58.49.514,premceCat2_ses-02_part-02_label-phase2,2020.2.10,Win32,60,,,,,right,1.3239,2,0.3512,,,,,,,,0,84,84,25,1,stimuli/objects/bowlingball.jpg,right,new,26,,,,,,,,
,,,,,,,,28,2021-11-29_18h58.49.514,premceCat2_ses-02_part-02_label-phase2,2020.2.10,Win32,60,,,,,right,1.7857,1,0.2707,,,,,,,,0,85,85,75,1,stimuli/objects/stepladder.jpg,right,new,76,,,,,,,,
,,,,,,,,28,2021-11-29_18h58.49.514,premceCat2_ses-02_part-02_label-phase2,2020.2.10,Win32,60,,,,,left,1.1005,3,1.0546,right,1.2587,0,0,0,0,1,,,,,,,,,,,,,,,,,
,,,,,,,,28,2021-11-29_18h58.49.514,premceCat2_ses-02_part-02_label-phase2,2020.2.10,Win32,60,,,,,,,,,,,,,,,,0,86,86,53,1,stimuli/objects/binoculars01b.jpg,right,new,54,,,,,,,,
,,,,,,,,28,2021-11-29_18h58.49.514,premceCat2_ses-02_part-02_label-phase2,2020.2.10,Win32,60,,,,,left,1.0763,4,0.2554,left,0.2779,0,0,0,0,1,,,,,,,,,,,,,,,,,
,,,,,,,,28,2021-11-29_18h58.49.514,premceCat2_ses-02_part-02_label-phase2,2020.2.10,Win32,60,,,,,,,,,,,,,,,,0,87,87,87,1,stimuli/objects/coffeemachine.jpg,left,old,88,,,,,,,,
,,,,,,,,28,2021-11-29_18h58.49.514,premceCat2_ses-02_part-02_label-phase2,2020.2.10,Win32,60,,,,,left,0.9557,4,0.2112,left,0.1984,0,0,0,0,1,,,,,,,,,,,,,,,,,
,,,,,,,,28,2021-11-29_18h58.49.514,premceCat2_ses-02_part-02_label-phase2,2020.2.10,Win32,60,,,,,,,,,,,,,,,,0,88,88,127,1,stimuli/objects/cooler01.jpg,left,old,128,,,,,,,,
,,,,,,,,28,2021-11-29_18h58.49.514,premceCat2_ses-02_part-02_label-phase2,2020.2.10,Win32,60,,,,,left,0.9268,4,0.2016,right,0.2101,0,0,0,0,1,,,,,,,,,,,,,,,,,
,,,,,,,,28,2021-11-29_18h58.49.514,premceCat2_ses-02_part-02_label-phase2,2020.2.10,Win32,60,,,,,,,,,,,,,,,,0,89,89,11,1,stimuli/objects/videocamera01a.jpg,left,old,12,,,,,,,,
,,,,,,,,28,2021-11-29_18h58.49.514,premceCat2_ses-02_part-02_label-phase2,2020.2.10,Win32,60,,,,,right,1.0992,2,0.2699,,,,,,,,0,90,90,60,1,stimuli/objects/glass02a.jpg,right,new,61,,,,,,,,
,,,,,,,,28,2021-11-29_18h58.49.514,premceCat2_ses-02_part-02_label-phase2,2020.2.10,Win32,60,,,,,left,0.8728,4,0.3573,right,0.4807,0,0,0,0,1,,,,,,,,,,,,,,,,,
,,,,,,,,28,2021-11-29_18h58.49.514,premceCat2_ses-02_part-02_label-phase2,2020.2.10,Win32,60,,,,,,,,,,,,,,,,0,91,91,142,1,stimuli/objects/waterbottle03.jpg,left,old,143,,,,,,,,
,,,,,,,,28,2021-11-29_18h58.49.514,premceCat2_ses-02_part-02_label-phase2,2020.2.10,Win32,60,,,,,right,3.6419,1,0.9364,,,,,,,,0,92,92,106,1,stimuli/objects/minifridge.jpg,right,new,107,,,,,,,,
,,,,,,,,28,2021-11-29_18h58.49.514,premceCat2_ses-02_part-02_label-phase2,2020.2.10,Win32,60,,,,,right,1.0539,2,0.2745,,,,,,,,0,93,93,17,1,stimuli/objects/exercisebench.jpg,right,new,18,,,,,,,,
,,,,,,,,28,2021-11-29_18h58.49.514,premceCat2_ses-02_part-02_label-phase2,2020.2.10,Win32,60,,,,,right,1.5401,2,0.7596,,,,,,,,0,94,94,26,1,stimuli/objects/boogieboard.jpg,right,new,27,,,,,,,,
,,,,,,,,28,2021-11-29_18h58.49.514,premceCat2_ses-02_part-02_label-phase2,2020.2.10,Win32,60,,,,,left,0.6212,4,0.076,left,0.5796,0,0,0,0,1,,,,,,,,,,,,,,,,,
,,,,,,,,28,2021-11-29_18h58.49.514,premceCat2_ses-02_part-02_label-phase2,2020.2.10,Win32,60,,,,,,,,,,,,,,,,0,95,95,49,1,stimuli/objects/badmintonracket.jpg,left,old,50,,,,,,,,
,,,,,,,,28,2021-11-29_18h58.49.514,premceCat2_ses-02_part-02_label-phase2,2020.2.10,Win32,60,,,,,left,1.6241,4,0.4103,right,1.0556,0,0,0,0,1,,,,,,,,,,,,,,,,,
,,,,,,,,28,2021-11-29_18h58.49.514,premceCat2_ses-02_part-02_label-phase2,2020.2.10,Win32,60,,,,,,,,,,,,,,,,0,96,96,52,1,stimuli/objects/bottlecap.jpg,left,old,53,,,,,,,,
,,,,,,,,28,2021-11-29_18h58.49.514,premceCat2_ses-02_part-02_label-phase2,2020.2.10,Win32,60,,,,,left,2.1694,4,0.3527,right,0.2607,0,0,0,0,1,,,,,,,,,,,,,,,,,
,,,,,,,,28,2021-11-29_18h58.49.514,premceCat2_ses-02_part-02_label-phase2,2020.2.10,Win32,60,,,,,,,,,,,,,,,,0,97,97,48,1,stimuli/objects/gasburner.jpg,left,old,49,,,,,,,,
,,,,,,,,28,2021-11-29_18h58.49.514,premceCat2_ses-02_part-02_label-phase2,2020.2.10,Win32,60,,,,,right,1.3836,1,0.2117,,,,,,,,0,98,98,39,1,stimuli/objects/sippycup.jpg,right,new,40,,,,,,,,
,,,,,,,,28,2021-11-29_18h58.49.514,premceCat2_ses-02_part-02_label-phase2,2020.2.10,Win32,60,,,,,right,1.321,1,0.4431,,,,,,,,0,99,99,133,1,stimuli/objects/icebucket.jpg,right,new,134,,,,,,,,
,,,,,,,,28,2021-11-29_18h58.49.514,premceCat2_ses-02_part-02_label-phase2,2020.2.10,Win32,60,,,,,right,1.5147,3,0.4876,,,,,,,,0,100,100,109,1,stimuli/objects/winerack.jpg,right,new,110,,,,,,,,
,,,,,,,,28,2021-11-29_18h58.49.514,premceCat2_ses-02_part-02_label-phase2,2020.2.10,Win32,60,,,,,right,1.0892,2,1.1377,,,,,,,,0,101,101,93,1,stimuli/objects/icepack.jpg,right,new,94,,,,,,,,
,,,,,,,,28,2021-11-29_18h58.49.514,premceCat2_ses-02_part-02_label-phase2,2020.2.10,Win32,60,,,,,left,1.2397,4,0.2791,left,0.3941,0,0,0,0,1,,,,,,,,,,,,,,,,,
,,,,,,,,28,2021-11-29_18h58.49.514,premceCat2_ses-02_part-02_label-phase2,2020.2.10,Win32,60,,,,,,,,,,,,,,,,0,102,102,40,1,stimuli/objects/staplegun.jpg,left,old,41,,,,,,,,
,,,,,,,,28,2021-11-29_18h58.49.514,premceCat2_ses-02_part-02_label-phase2,2020.2.10,Win32,60,,,,,left,0.8275,4,0.2571,right,0.3532,0,0,0,0,1,,,,,,,,,,,,,,,,,
,,,,,,,,28,2021-11-29_18h58.49.514,premceCat2_ses-02_part-02_label-phase2,2020.2.10,Win32,60,,,,,,,,,,,,,,,,0,103,103,137,1,stimuli/objects/podium.jpg,left,old,138,,,,,,,,
,,,,,,,,28,2021-11-29_18h58.49.514,premceCat2_ses-02_part-02_label-phase2,2020.2.10,Win32,60,,,,,right,1.2885,3,0.644,,,,,,,,0,104,104,14,1,stimuli/objects/mallet01b.jpg,left,old,15,,,,,,,,
,,,,,,,,28,2021-11-29_18h58.49.514,premceCat2_ses-02_part-02_label-phase2,2020.2.10,Win32,60,,,,,right,1.1833,2,0.4224,,,,,,,,0,105,105,73,1,stimuli/objects/clock01a.jpg,right,new,74,,,,,,,,
,,,,,,,,28,2021-11-29_18h58.49.514,premceCat2_ses-02_part-02_label-phase2,2020.2.10,Win32,60,,,,,right,3.0456,3,0.5536,,,,,,,,0,106,106,121,1,stimuli/objects/ceilingspeaker.jpg,right,new,122,,,,,,,,
,,,,,,,,28,2021-11-29_18h58.49.514,premceCat2_ses-02_part-02_label-phase2,2020.2.10,Win32,60,,,,,left,1.9929,1,0.8702,right,0.8432,0,0,0,0,1,,,,,,,,,,,,,,,,,
,,,,,,,,28,2021-11-29_18h58.49.514,premceCat2_ses-02_part-02_label-phase2,2020.2.10,Win32,60,,,,,,,,,,,,,,,,0,107,107,113,1,stimuli/objects/powercable.jpg,right,new,114,,,,,,,,
,,,,,,,,28,2021-11-29_18h58.49.514,premceCat2_ses-02_part-02_label-phase2,2020.2.10,Win32,60,,,,,right,1.4499,1,1.0256,,,,,,,,0,108,108,59,1,stimuli/objects/studiolight.jpg,right,new,60,,,,,,,,
,,,,,,,,28,2021-11-29_18h58.49.514,premceCat2_ses-02_part-02_label-phase2,2020.2.10,Win32,60,,,,,left,1.4119,2,0.3753,right,0.5373,0,0,0,0,1,,,,,,,,,,,,,,,,,
,,,,,,,,28,2021-11-29_18h58.49.514,premceCat2_ses-02_part-02_label-phase2,2020.2.10,Win32,60,,,,,,,,,,,,,,,,0,109,109,45,1,stimuli/objects/butterknife.jpg,left,old,46,,,,,,,,
,,,,,,,,28,2021-11-29_18h58.49.514,premceCat2_ses-02_part-02_label-phase2,2020.2.10,Win32,60,,,,,left,0.9113,4,0.2735,right,0.3792,0,0,0,0,1,,,,,,,,,,,,,,,,,
,,,,,,,,28,2021-11-29_18h58.49.514,premceCat2_ses-02_part-02_label-phase2,2020.2.10,Win32,60,,,,,,,,,,,,,,,,0,110,110,29,1,stimuli/objects/ipad02.jpg,left,old,30,,,,,,,,
,,,,,,,,28,2021-11-29_18h58.49.514,premceCat2_ses-02_part-02_label-phase2,2020.2.10,Win32,60,,,,,left,0.8415,4,0.555,right,0.2573,0,0,0,0,1,,,,,,,,,,,,,,,,,
,,,,,,,,28,2021-11-29_18h58.49.514,premceCat2_ses-02_part-02_label-phase2,2020.2.10,Win32,60,,,,,,,,,,,,,,,,0,111,111,3,1,stimuli/objects/towel01.jpg,left,old,4,,,,,,,,
,,,,,,,,28,2021-11-29_18h58.49.514,premceCat2_ses-02_part-02_label-phase2,2020.2.10,Win32,60,,,,,right,1.1221,3,1.4373,,,,,,,,0,112,112,24,1,stimuli/objects/skateboard.jpg,right,new,25,,,,,,,,
,,,,,,,,28,2021-11-29_18h58.49.514,premceCat2_ses-02_part-02_label-phase2,2020.2.10,Win32,60,,,,,left,0.8772,4,0.3203,left,0.4489,0,0,0,0,1,,,,,,,,,,,,,,,,,
,,,,,,,,28,2021-11-29_18h58.49.514,premceCat2_ses-02_part-02_label-phase2,2020.2.10,Win32,60,,,,,,,,,,,,,,,,0,113,113,61,1,stimuli/objects/painttray.jpg,left,old,62,,,,,,,,
,,,,,,,,28,2021-11-29_18h58.49.514,premceCat2_ses-02_part-02_label-phase2,2020.2.10,Win32,60,,,,,right,2.1096,3,1.6551,,,,,,,,0,114,114,120,1,stimuli/objects/muffintray01.jpg,left,old,121,,,,,,,,
,,,,,,,,28,2021-11-29_18h58.49.514,premceCat2_ses-02_part-02_label-phase2,2020.2.10,Win32,60,,,,,left,4.7013,1,0.285,right,0.8339,0,0,0,0,1,,,,,,,,,,,,,,,,,
,,,,,,,,28,2021-11-29_18h58.49.514,premceCat2_ses-02_part-02_label-phase2,2020.2.10,Win32,60,,,,,,,,,,,,,,,,0,115,115,101,1,stimuli/objects/fuse.jpg,left,old,102,,,,,,,,
,,,,,,,,28,2021-11-29_18h58.49.514,premceCat2_ses-02_part-02_label-phase2,2020.2.10,Win32,60,,,,,left,2.8299,2,0.5532,right,0.8865,0,0,0,0,1,,,,,,,,,,,,,,,,,
,,,,,,,,28,2021-11-29_18h58.49.514,premceCat2_ses-02_part-02_label-phase2,2020.2.10,Win32,60,,,,,,,,,,,,,,,,0,116,116,7,1,stimuli/objects/hammer01.jpg,left,old,8,,,,,,,,
,,,,,,,,28,2021-11-29_18h58.49.514,premceCat2_ses-02_part-02_label-phase2,2020.2.10,Win32,60,,,,,left,0.9779,4,0.2579,right,1.2799,0,0,0,0,1,,,,,,,,,,,,,,,,,
,,,,,,,,28,2021-11-29_18h58.49.514,premceCat2_ses-02_part-02_label-phase2,2020.2.10,Win32,60,,,,,,,,,,,,,,,,0,117,117,99,1,stimuli/objects/sewingmachine01a.jpg,left,old,100,,,,,,,,
,,,,,,,,28,2021-11-29_18h58.49.514,premceCat2_ses-02_part-02_label-phase2,2020.2.10,Win32,60,,,,,left,1.7533,3,0.6725,left,0.5474,0,0,0,0,1,,,,,,,,,,,,,,,,,
,,,,,,,,28,2021-11-29_18h58.49.514,premceCat2_ses-02_part-02_label-phase2,2020.2.10,Win32,60,,,,,,,,,,,,,,,,0,118,118,82,1,stimuli/objects/snowbrush.jpg,right,new,83,,,,,,,,
,,,,,,,,28,2021-11-29_18h58.49.514,premceCat2_ses-02_part-02_label-phase2,2020.2.10,Win32,60,,,,,right,1.7116,4,0.8677,,,,,,,,0,119,119,80,1,stimuli/objects/snowman.jpg,right,new,81,,,,,,,,
,,,,,,,,28,2021-11-29_18h58.49.514,premceCat2_ses-02_part-02_label-phase2,2020.2.10,Win32,60,,,,,right,1.1249,3,0.2299,,,,,,,,0,120,120,2,1,stimuli/objects/crocodileclips.jpg,left,old,3,,,,,,,,
,,,,,,,,28,2021-11-29_18h58.49.514,premceCat2_ses-02_part-02_label-phase2,2020.2.10,Win32,60,,,,,left,1.169,4,0.3215,right,0.3133,0,0,0,0,1,,,,,,,,,,,,,,,,,
,,,,,,,,28,2021-11-29_18h58.49.514,premceCat2_ses-02_part-02_label-phase2,2020.2.10,Win32,60,,,,,,,,,,,,,,,,0,121,121,102,1,stimuli/objects/skihelmet01.jpg,left,old,103,,,,,,,,
,,,,,,,,28,2021-11-29_18h58.49.514,premceCat2_ses-02_part-02_label-phase2,2020.2.10,Win32,60,,,,,right,1.3951,3,1.4398,,,,,,,,0,122,122,66,1,stimuli/objects/nailgun.jpg,right,new,67,,,,,,,,
,,,,,,,,28,2021-11-29_18h58.49.514,premceCat2_ses-02_part-02_label-phase2,2020.2.10,Win32,60,,,,,left,1.3065,3,0.2358,left,0.6275,0,0,0,0,1,,,,,,,,,,,,,,,,,
,,,,,,,,28,2021-11-29_18h58.49.514,premceCat2_ses-02_part-02_label-phase2,2020.2.10,Win32,60,,,,,,,,,,,,,,,,0,123,123,103,1,stimuli/objects/bowl02a.jpg,left,old,104,,,,,,,,
,,,,,,,,28,2021-11-29_18h58.49.514,premceCat2_ses-02_part-02_label-phase2,2020.2.10,Win32,60,,,,,right,1.0778,1,0.4356,,,,,,,,0,124,124,13,1,stimuli/objects/bastingbrush.jpg,right,new,14,,,,,,,,
,,,,,,,,28,2021-11-29_18h58.49.514,premceCat2_ses-02_part-02_label-phase2,2020.2.10,Win32,60,,,,,right,1.278,4,0.6707,,,,,,,,0,125,125,76,1,stimuli/objects/megaphone.jpg,right,new,77,,,,,,,,
,,,,,,,,28,2021-11-29_18h58.49.514,premceCat2_ses-02_part-02_label-phase2,2020.2.10,Win32,60,,,,,right,3.6238,2,0.3551,,,,,,,,0,126,126,122,1,stimuli/objects/wire.jpg,left,old,123,,,,,,,,
,,,,,,,,28,2021-11-29_18h58.49.514,premceCat2_ses-02_part-02_label-phase2,2020.2.10,Win32,60,,,,,left,1.2715,3,0.3215,left,0.2816,0,0,0,0,1,,,,,,,,,,,,,,,,,
,,,,,,,,28,2021-11-29_18h58.49.514,premceCat2_ses-02_part-02_label-phase2,2020.2.10,Win32,60,,,,,,,,,,,,,,,,0,127,127,88,1,stimuli/objects/cowbell.jpg,left,old,89,,,,,,,,
,,,,,,,,28,2021-11-29_18h58.49.514,premceCat2_ses-02_part-02_label-phase2,2020.2.10,Win32,60,,,,,right,1.259,3,1.157,,,,,,,,0,128,128,36,1,stimuli/objects/outletadapter.jpg,left,old,37,,,,,,,,
,,,,,,,,28,2021-11-29_18h58.49.514,premceCat2_ses-02_part-02_label-phase2,2020.2.10,Win32,60,,,,,left,1.3703,4,0.2829,right,0.2577,0,0,0,0,1,,,,,,,,,,,,,,,,,
,,,,,,,,28,2021-11-29_18h58.49.514,premceCat2_ses-02_part-02_label-phase2,2020.2.10,Win32,60,,,,,,,,,,,,,,,,0,129,129,91,1,stimuli/objects/puttyknife.jpg,left,old,92,,,,,,,,
,,,,,,,,28,2021-11-29_18h58.49.514,premceCat2_ses-02_part-02_label-phase2,2020.2.10,Win32,60,,,,,left,0.8743,3,0.6191,left,0.2459,0,0,0,0,1,,,,,,,,,,,,,,,,,
,,,,,,,,28,2021-11-29_18h58.49.514,premceCat2_ses-02_part-02_label-phase2,2020.2.10,Win32,60,,,,,,,,,,,,,,,,0,130,130,23,1,stimuli/objects/football.jpg,right,new,24,,,,,,,,
,,,,,,,,28,2021-11-29_18h58.49.514,premceCat2_ses-02_part-02_label-phase2,2020.2.10,Win32,60,,,,,right,0.8594,2,1.0338,,,,,,,,0,131,131,41,1,stimuli/objects/pylon01.jpg,right,new,42,,,,,,,,
,,,,,,,,28,2021-11-29_18h58.49.514,premceCat2_ses-02_part-02_label-phase2,2020.2.10,Win32,60,,,,,right,1.3294,3,0.5537,,,,,,,,0,132,132,30,1,stimuli/objects/printer02.jpg,right,new,31,,,,,,,,
,,,,,,,,28,2021-11-29_18h58.49.514,premceCat2_ses-02_part-02_label-phase2,2020.2.10,Win32,60,,,,,left,0.8581,3,0.6538,left,0.5438,0,0,0,0,1,,,,,,,,,,,,,,,,,
,,,,,,,,28,2021-11-29_18h58.49.514,premceCat2_ses-02_part-02_label-phase2,2020.2.10,Win32,60,,,,,,,,,,,,,,,,0,133,133,85,1,stimuli/objects/golfball.jpg,right,new,86,,,,,,,,
,,,,,,,,28,2021-11-29_18h58.49.514,premceCat2_ses-02_part-02_label-phase2,2020.2.10,Win32,60,,,,,left,1.089,4,0.2406,left,0.3093,0,0,0,0,1,,,,,,,,,,,,,,,,,
,,,,,,,,28,2021-11-29_18h58.49.514,premceCat2_ses-02_part-02_label-phase2,2020.2.10,Win32,60,,,,,,,,,,,,,,,,0,134,134,67,1,stimuli/objects/lifesaver.jpg,left,old,68,,,,,,,,
,,,,,,,,28,2021-11-29_18h58.49.514,premceCat2_ses-02_part-02_label-phase2,2020.2.10,Win32,60,,,,,left,1.1314,4,0.1635,left,0.2667,0,0,0,0,1,,,,,,,,,,,,,,,,,
,,,,,,,,28,2021-11-29_18h58.49.514,premceCat2_ses-02_part-02_label-phase2,2020.2.10,Win32,60,,,,,,,,,,,,,,,,0,135,135,5,1,stimuli/objects/electricoutlet.jpg,left,old,6,,,,,,,,
,,,,,,,,28,2021-11-29_18h58.49.514,premceCat2_ses-02_part-02_label-phase2,2020.2.10,Win32,60,,,,,right,1.5614,2,0.211,,,,,,,,0,136,136,97,1,stimuli/objects/djmixer02.jpg,left,old,98,,,,,,,,
,,,,,,,,28,2021-11-29_18h58.49.514,premceCat2_ses-02_part-02_label-phase2,2020.2.10,Win32,60,,,,,left,0.8371,4,0.2391,right,0.343,0,0,0,0,1,,,,,,,,,,,,,,,,,
,,,,,,,,28,2021-11-29_18h58.49.514,premceCat2_ses-02_part-02_label-phase2,2020.2.10,Win32,60,,,,,,,,,,,,,,,,0,137,137,70,1,stimuli/objects/oven.jpg,left,old,71,,,,,,,,
,,,,,,,,28,2021-11-29_18h58.49.514,premceCat2_ses-02_part-02_label-phase2,2020.2.10,Win32,60,,,,,right,1.2139,2,0.9602,,,,,,,,0,138,138,107,1,stimuli/objects/martiniglass01b.jpg,left,old,108,,,,,,,,
,,,,,,,,28,2021-11-29_18h58.49.514,premceCat2_ses-02_part-02_label-phase2,2020.2.10,Win32,60,,,,,right,1.1954,3,1.8703,,,,,,,,0,139,139,58,1,stimuli/objects/bungeecord02.jpg,left,old,59,,,,,,,,
,,,,,,,,28,2021-11-29_18h58.49.514,premceCat2_ses-02_part-02_label-phase2,2020.2.10,Win32,60,,,,,right,2.3201,3,1.5686,,,,,,,,0,140,140,131,1,stimuli/objects/spotlight.jpg,right,new,132,,,,,,,,
,,,,,,,,28,2021-11-29_18h58.49.514,premceCat2_ses-02_part-02_label-phase2,2020.2.10,Win32,60,,,,,left,2.5092,3,0.5578,right,0.9692,0,0,0,0,1,,,,,,,,,,,,,,,,,
,,,,,,,,28,2021-11-29_18h58.49.514,premceCat2_ses-02_part-02_label-phase2,2020.2.10,Win32,60,,,,,,,,,,,,,,,,0,141,141,132,1,stimuli/objects/airconditioner.jpg,left,old,133,,,,,,,,
,,,,,,,,28,2021-11-29_18h58.49.514,premceCat2_ses-02_part-02_label-phase2,2020.2.10,Win32,60,,,,,right,1.4459,3,0.4883,,,,,,,,0,142,142,71,1,stimuli/objects/faxmachine.jpg,right,new,72,,,,,,,,
,,,,,,,,28,2021-11-29_18h58.49.514,premceCat2_ses-02_part-02_label-phase2,2020.2.10,Win32,60,,,,,,,,,,,,,,,,,,,,,,,,,space,48.2676,0,0,0,0,1,condition_files/ImagesforRecog1_1.csv
,,,,,,,,28,2021-11-29_18h58.49.514,premceCat2_ses-02_part-02_label-phase2,2020.2.10,Win32,60,,,,,left,1.0746,4,0.4917,right,0.2935,0,0,0,0,1,,,,,,,,,,,,,,,,,
,,,,,,,,28,2021-11-29_18h58.49.514,premceCat2_ses-02_part-02_label-phase2,2020.2.10,Win32,60,,,,,,,,,,,,,,,,0,0,0,88,1,stimuli/objects/charcoalbarbecue.jpg,left,old,232,,,,,,,,
,,,,,,,,28,2021-11-29_18h58.49.514,premceCat2_ses-02_part-02_label-phase2,2020.2.10,Win32,60,,,,,right,1.3747,2,0.2798,,,,,,,,0,1,1,98,1,stimuli/objects/cameracase01a.jpg,right,new,242,,,,,,,,
,,,,,,,,28,2021-11-29_18h58.49.514,premceCat2_ses-02_part-02_label-phase2,2020.2.10,Win32,60,,,,,left,1.1428,3,0.1939,right,0.5994,0,0,0,0,1,,,,,,,,,,,,,,,,,
,,,,,,,,28,2021-11-29_18h58.49.514,premceCat2_ses-02_part-02_label-phase2,2020.2.10,Win32,60,,,,,,,,,,,,,,,,0,2,2,123,1,stimuli/objects/jackhammer.jpg,right,new,267,,,,,,,,
,,,,,,,,28,2021-11-29_18h58.49.514,premceCat2_ses-02_part-02_label-phase2,2020.2.10,Win32,60,,,,,right,1.4049,2,0.6354,,,,,,,,0,3,3,102,1,stimuli/objects/beachumbrella01.jpg,right,new,246,,,,,,,,
,,,,,,,,28,2021-11-29_18h58.49.514,premceCat2_ses-02_part-02_label-phase2,2020.2.10,Win32,60,,,,,left,0.9736,4,0.3291,right,0.3226,0,0,0,0,1,,,,,,,,,,,,,,,,,
,,,,,,,,28,2021-11-29_18h58.49.514,premceCat2_ses-02_part-02_label-phase2,2020.2.10,Win32,60,,,,,,,,,,,,,,,,0,4,4,115,1,stimuli/objects/dishrack.jpg,left,old,259,,,,,,,,
,,,,,,,,28,2021-11-29_18h58.49.514,premceCat2_ses-02_part-02_label-phase2,2020.2.10,Win32,60,,,,,left,1.209,4,0.4221,right,0.4481,0,0,0,0,1,,,,,,,,,,,,,,,,,
,,,,,,,,28,2021-11-29_18h58.49.514,premceCat2_ses-02_part-02_label-phase2,2020.2.10,Win32,60,,,,,,,,,,,,,,,,0,5,5,100,1,stimuli/objects/lawnmower.jpg,left,old,244,,,,,,,,
,,,,,,,,28,2021-11-29_18h58.49.514,premceCat2_ses-02_part-02_label-phase2,2020.2.10,Win32,60,,,,,right,1.3097,2,0.5772,,,,,,,,0,6,6,49,1,stimuli/objects/cakeplatter.jpg,right,new,193,,,,,,,,
,,,,,,,,28,2021-11-29_18h58.49.514,premceCat2_ses-02_part-02_label-phase2,2020.2.10,Win32,60,,,,,left,2.9959,4,0.3364,left,0.9836,0,0,0,0,1,,,,,,,,,,,,,,,,,
,,,,,,,,28,2021-11-29_18h58.49.514,premceCat2_ses-02_part-02_label-phase2,2020.2.10,Win32,60,,,,,,,,,,,,,,,,0,7,7,50,1,stimuli/objects/magneticcompass.jpg,left,old,194,,,,,,,,
,,,,,,,,28,2021-11-29_18h58.49.514,premceCat2_ses-02_part-02_label-phase2,2020.2.10,Win32,60,,,,,left,1.3577,4,0.5554,left,1.1529,0,0,0,0,1,,,,,,,,,,,,,,,,,
,,,,,,,,28,2021-11-29_18h58.49.514,premceCat2_ses-02_part-02_label-phase2,2020.2.10,Win32,60,,,,,,,,,,,,,,,,0,8,8,25,1,stimuli/objects/gravyboat.jpg,left,old,169,,,,,,,,
,,,,,,,,28,2021-11-29_18h58.49.514,premceCat2_ses-02_part-02_label-phase2,2020.2.10,Win32,60,,,,,left,3.6592,4,0.3382,right,0.3815,0,0,0,0,1,,,,,,,,,,,,,,,,,
,,,,,,,,28,2021-11-29_18h58.49.514,premceCat2_ses-02_part-02_label-phase2,2020.2.10,Win32,60,,,,,,,,,,,,,,,,0,9,9,72,1,stimuli/objects/wheel01.jpg,left,old,216,,,,,,,,
,,,,,,,,28,2021-11-29_18h58.49.514,premceCat2_ses-02_part-02_label-phase2,2020.2.10,Win32,60,,,,,right,0.8357,2,0.5467,,,,,,,,0,10,10,6,1,stimuli/objects/solderingwire.jpg,right,new,150,,,,,,,,
,,,,,,,,28,2021-11-29_18h58.49.514,premceCat2_ses-02_part-02_label-phase2,2020.2.10,Win32,60,,,,,left,1.0368,3,0.273,right,1.1342,0,0,0,0,1,,,,,,,,,,,,,,,,,
,,,,,,,,28,2021-11-29_18h58.49.514,premceCat2_ses-02_part-02_label-phase2,2020.2.10,Win32,60,,,,,,,,,,,,,,,,0,11,11,33,1,stimuli/objects/ethernetcable02.jpg,left,old,177,,,,,,,,
,,,,,,,,28,2021-11-29_18h58.49.514,premceCat2_ses-02_part-02_label-phase2,2020.2.10,Win32,60,,,,,right,1.6245,2,1.0455,,,,,,,,0,12,12,39,1,stimuli/objects/wafflemaker.jpg,right,new,183,,,,,,,,
,,,,,,,,28,2021-11-29_18h58.49.514,premceCat2_ses-02_part-02_label-phase2,2020.2.10,Win32,60,,,,,right,2.2344,1,1.3022,,,,,,,,0,13,13,51,1,stimuli/objects/cheeseknife01.jpg,right,new,195,,,,,,,,
,,,,,,,,28,2021-11-29_18h58.49.514,premceCat2_ses-02_part-02_label-phase2,2020.2.10,Win32,60,,,,,right,7.1735,1,1.3649,,,,,,,,0,14,14,3,1,stimuli/objects/boxingglove01.jpg,right,new,147,,,,,,,,
,,,,,,,,28,2021-11-29_18h58.49.514,premceCat2_ses-02_part-02_label-phase2,2020.2.10,Win32,60,,,,,left,1.2086,4,0.2062,left,0.3343,0,0,0,0,1,,,,,,,,,,,,,,,,,
,,,,,,,,28,2021-11-29_18h58.49.514,premceCat2_ses-02_part-02_label-phase2,2020.2.10,Win32,60,,,,,,,,,,,,,,,,0,15,15,17,1,stimuli/objects/propanetank01.jpg,left,old,161,,,,,,,,
,,,,,,,,28,2021-11-29_18h58.49.514,premceCat2_ses-02_part-02_label-phase2,2020.2.10,Win32,60,,,,,left,1.2621,4,0.2058,right,0.8098,0,0,0,0,1,,,,,,,,,,,,,,,,,
,,,,,,,,28,2021-11-29_18h58.49.514,premceCat2_ses-02_part-02_label-phase2,2020.2.10,Win32,60,,,,,,,,,,,,,,,,0,16,16,108,1,stimuli/objects/slidetray.jpg,left,old,252,,,,,,,,
,,,,,,,,28,2021-11-29_18h58.49.514,premceCat2_ses-02_part-02_label-phase2,2020.2.10,Win32,60,,,,,right,2.1584,2,0.2684,,,,,,,,0,17,17,92,1,stimuli/objects/gluetube.jpg,left,old,236,,,,,,,,
,,,,,,,,28,2021-11-29_18h58.49.514,premceCat2_ses-02_part-02_label-phase2,2020.2.10,Win32,60,,,,,left,2.7408,4,0.4392,left,2.3139,0,0,0,0,1,,,,,,,,,,,,,,,,,
,,,,,,,,28,2021-11-29_18h58.49.514,premceCat2_ses-02_part-02_label-phase2,2020.2.10,Win32,60,,,,,,,,,,,,,,,,0,18,18,93,1,stimuli/objects/axe01.jpg,left,old,237,,,,,,,,
,,,,,,,,28,2021-11-29_18h58.49.514,premceCat2_ses-02_part-02_label-phase2,2020.2.10,Win32,60,,,,,right,1.3078,1,0.718,,,,,,,,0,19,19,55,1,stimuli/objects/fonduefork01.jpg,right,new,199,,,,,,,,
,,,,,,,,28,2021-11-29_18h58.49.514,premceCat2_ses-02_part-02_label-phase2,2020.2.10,Win32,60,,,,,left,2.0635,3,0.2726,right,3.0499,0,0,0,0,1,,,,,,,,,,,,,,,,,
,,,,,,,,28,2021-11-29_18h58.49.514,premceCat2_ses-02_part-02_label-phase2,2020.2.10,Win32,60,,,,,,,,,,,,,,,,0,20,20,63,1,stimuli/objects/watercooler.jpg,left,old,207,,,,,,,,
,,,,,,,,28,2021-11-29_18h58.49.514,premceCat2_ses-02_part-02_label-phase2,2020.2.10,Win32,60,,,,,right,2.3242,4,0.7688,,,,,,,,0,21,21,30,1,stimuli/objects/halogenlightbulb.jpg,right,new,174,,,,,,,,
,,,,,,,,28,2021-11-29_18h58.49.514,premceCat2_ses-02_part-02_label-phase2,2020.2.10,Win32,60,,,,,right,3.5962,2,1.693,,,,,,,,0,22,22,48,1,stimuli/objects/eggslicer.jpg,right,new,192,,,,,,,,
,,,,,,,,28,2021-11-29_18h58.49.514,premceCat2_ses-02_part-02_label-phase2,2020.2.10,Win32,60,,,,,right,0.9391,1,0.3452,,,,,,,,0,23,23,109,1,stimuli/objects/peeler01.jpg,left,old,253,,,,,,,,
,,,,,,,,28,2021-11-29_18h58.49.514,premceCat2_ses-02_part-02_label-phase2,2020.2.10,Win32,60,,,,,right,2.0903,3,0.4036,,,,,,,,0,24,24,95,1,stimuli/objects/tennisball01b.jpg,right,new,239,,,,,,,,
,,,,,,,,28,2021-11-29_18h58.49.514,premceCat2_ses-02_part-02_label-phase2,2020.2.10,Win32,60,,,,,left,0.9738,4,0.2452,left,0.1963,0,0,0,0,1,,,,,,,,,,,,,,,,,
,,,,,,,,28,2021-11-29_18h58.49.514,premceCat2_ses-02_part-02_label-phase2,2020.2.10,Win32,60,,,,,,,,,,,,,,,,0,25,25,10,1,stimuli/objects/downhillski.jpg,left,old,154,,,,,,,,
,,,,,,,,28,2021-11-29_18h58.49.514,premceCat2_ses-02_part-02_label-phase2,2020.2.10,Win32,60,,,,,left,1.2011,3,0.4535,right,0.7416,0,0,0,0,1,,,,,,,,,,,,,,,,,
,,,,,,,,28,2021-11-29_18h58.49.514,premceCat2_ses-02_part-02_label-phase2,2020.2.10,Win32,60,,,,,,,,,,,,,,,,0,26,26,62,1,stimuli/objects/spoon01.jpg,left,old,206,,,,,,,,
,,,,,,,,28,2021-11-29_18h58.49.514,premceCat2_ses-02_part-02_label-phase2,2020.2.10,Win32,60,,,,,right,1.4631,3,1.1327,,,,,,,,0,27,27,16,1,stimuli/objects/bottleopener01.jpg,right,new,160,,,,,,,,
,,,,,,,,28,2021-11-29_18h58.49.514,premceCat2_ses-02_part-02_label-phase2,2020.2.10,Win32,60,,,,,left,1.2513,2,0.4026,right,0.6507,0,0,0,0,1,,,,,,,,,,,,,,,,,
,,,,,,,,28,2021-11-29_18h58.49.514,premceCat2_ses-02_part-02_label-phase2,2020.2.10,Win32,60,,,,,,,,,,,,,,,,0,28,28,1,1,stimuli/objects/expansioncard.jpg,left,old,145,,,,,,,,
,,,,,,,,28,2021-11-29_18h58.49.514,premceCat2_ses-02_part-02_label-phase2,2020.2.10,Win32,60,,,,,right,2.6249,1,0.9932,,,,,,,,0,29,29,13,1,stimuli/objects/leafrake.jpg,left,old,157,,,,,,,,
,,,,,,,,28,2021-11-29_18h58.49.514,premceCat2_ses-02_part-02_label-phase2,2020.2.10,Win32,60,,,,,left,1.3727,4,0.5209,right,2.459,0,0,0,0,1,,,,,,,,,,,,,,,,,
,,,,,,,,28,2021-11-29_18h58.49.514,premceCat2_ses-02_part-02_label-phase2,2020.2.10,Win32,60,,,,,,,,,,,,,,,,0,30,30,97,1,stimuli/objects/shotglass.jpg,left,old,241,,,,,,,,
,,,,,,,,28,2021-11-29_18h58.49.514,premceCat2_ses-02_part-02_label-phase2,2020.2.10,Win32,60,,,,,left,2.9763,4,0.6795,right,0.487,0,0,0,0,1,,,,,,,,,,,,,,,,,
,,,,,,,,28,2021-11-29_18h58.49.514,premceCat2_ses-02_part-02_label-phase2,2020.2.10,Win32,60,,,,,,,,,,,,,,,,0,31,31,85,1,stimuli/objects/fan.jpg,left,old,229,,,,,,,,
,,,,,,,,28,2021-11-29_18h58.49.514,premceCat2_ses-02_part-02_label-phase2,2020.2.10,Win32,60,,,,,right,2.2695,2,0.2875,,,,,,,,0,32,32,82,1,stimuli/objects/shopvac.jpg,right,new,226,,,,,,,,
,,,,,,,,28,2021-11-29_18h58.49.514,premceCat2_ses-02_part-02_label-phase2,2020.2.10,Win32,60,,,,,left,3.9594,3,0.9295,left,4.2372,0,0,0,0,1,,,,,,,,,,,,,,,,,
,,,,,,,,28,2021-11-29_18h58.49.514,premceCat2_ses-02_part-02_label-phase2,2020.2.10,Win32,60,,,,,,,,,,,,,,,,0,33,33,133,1,stimuli/objects/birdie.jpg,right,new,277,,,,,,,,
,,,,,,,,28,2021-11-29_18h58.49.514,premceCat2_ses-02_part-02_label-phase2,2020.2.10,Win32,60,,,,,right,1.6354,2,0.255,,,,,,,,0,34,34,36,1,stimuli/objects/loppingshears.jpg,right,new,180,,,,,,,,
,,,,,,,,28,2021-11-29_18h58.49.514,premceCat2_ses-02_part-02_label-phase2,2020.2.10,Win32,60,,,,,right,1.0088,4,0.2743,,,,,,,,0,35,35,104,1,stimuli/objects/lectern01.jpg,left,old,248,,,,,,,,
,,,,,,,,28,2021-11-29_18h58.49.514,premceCat2_ses-02_part-02_label-phase2,2020.2.10,Win32,60,,,,,left,1.4052,4,0.453,left,0.8124,0,0,0,0,1,,,,,,,,,,,,,,,,,
,,,,,,,,28,2021-11-29_18h58.49.514,premceCat2_ses-02_part-02_label-phase2,2020.2.10,Win32,60,,,,,,,,,,,,,,,,0,36,36,64,1,stimuli/objects/fishingrod.jpg,left,old,208,,,,,,,,
,,,,,,,,28,2021-11-29_18h58.49.514,premceCat2_ses-02_part-02_label-phase2,2020.2.10,Win32,60,,,,,left,1.3584,4,0.9545,left,2.4205,0,0,0,0,1,,,,,,,,,,,,,,,,,
,,,,,,,,28,2021-11-29_18h58.49.514,premceCat2_ses-02_part-02_label-phase2,2020.2.10,Win32,60,,,,,,,,,,,,,,,,0,37,37,14,1,stimuli/objects/canoepaddle02.jpg,left,old,158,,,,,,,,
,,,,,,,,28,2021-11-29_18h58.49.514,premceCat2_ses-02_part-02_label-phase2,2020.2.10,Win32,60,,,,,right,1.5365,1,0.4544,,,,,,,,0,38,38,114,1,stimuli/objects/drinkshaker.jpg,right,new,258,,,,,,,,
,,,,,,,,28,2021-11-29_18h58.49.514,premceCat2_ses-02_part-02_label-phase2,2020.2.10,Win32,60,,,,,right,0.8838,4,0.2038,,,,,,,,0,39,39,5,1,stimuli/objects/pickaxe02.jpg,right,new,149,,,,,,,,
,,,,,,,,28,2021-11-29_18h58.49.514,premceCat2_ses-02_part-02_label-phase2,2020.2.10,Win32,60,,,,,left,1.6049,4,0.2214,right,0.5921,0,0,0,0,1,,,,,,,,,,,,,,,,,
,,,,,,,,28,2021-11-29_18h58.49.514,premceCat2_ses-02_part-02_label-phase2,2020.2.10,Win32,60,,,,,,,,,,,,,,,,0,40,40,38,1,stimuli/objects/rollingpin01a.jpg,left,old,182,,,,,,,,
,,,,,,,,28,2021-11-29_18h58.49.514,premceCat2_ses-02_part-02_label-phase2,2020.2.10,Win32,60,,,,,left,0.8444,3,0.5761,left,0.7281,0,0,0,0,1,,,,,,,,,,,,,,,,,
,,,,,,,,28,2021-11-29_18h58.49.514,premceCat2_ses-02_part-02_label-phase2,2020.2.10,Win32,60,,,,,,,,,,,,,,,,0,41,41,136,1,stimuli/objects/exercisebike.jpg,left,old,280,,,,,,,,
,,,,,,,,28,2021-11-29_18h58.49.514,premceCat2_ses-02_part-02_label-phase2,2020.2.10,Win32,60,,,,,left,0.8216,4,0.2723,left,0.1489,0,0,0,0,1,,,,,,,,,,,,,,,,,
,,,,,,,,28,2021-11-29_18h58.49.514,premceCat2_ses-02_part-02_label-phase2,2020.2.10,Win32,60,,,,,,,,,,,,,,,,0,42,42,139,1,stimuli/objects/measuringcup01.jpg,left,old,283,,,,,,,,
,,,,,,,,28,2021-11-29_18h58.49.514,premceCat2_ses-02_part-02_label-phase2,2020.2.10,Win32,60,,,,,left,1.5752,2,0.3191,right,0.3301,0,0,0,0,1,,,,,,,,,,,,,,,,,
,,,,,,,,28,2021-11-29_18h58.49.514,premceCat2_ses-02_part-02_label-phase2,2020.2.10,Win32,60,,,,,,,,,,,,,,,,0,43,43,126,1,stimuli/objects/shinpad.jpg,left,old,270,,,,,,,,
,,,,,,,,28,2021-11-29_18h58.49.514,premceCat2_ses-02_part-02_label-phase2,2020.2.10,Win32,60,,,,,right,0.729,4,0.4806,,,,,,,,0,44,44,76,1,stimuli/objects/satellitedish01.jpg,left,old,220,,,,,,,,
,,,,,,,,28,2021-11-29_18h58.49.514,premceCat2_ses-02_part-02_label-phase2,2020.2.10,Win32,60,,,,,right,1.6808,3,1.7373,,,,,,,,0,45,45,66,1,stimuli/objects/heatpump.jpg,right,new,210,,,,,,,,
,,,,,,,,28,2021-11-29_18h58.49.514,premceCat2_ses-02_part-02_label-phase2,2020.2.10,Win32,60,,,,,left,2.9503,4,0.2991,left,0.1512,0,0,0,0,1,,,,,,,,,,,,,,,,,
,,,,,,,,28,2021-11-29_18h58.49.514,premceCat2_ses-02_part-02_label-phase2,2020.2.10,Win32,60,,,,,,,,,,,,,,,,0,46,46,58,1,stimuli/objects/ellipticalmachine.jpg,left,old,202,,,,,,,,
,,,,,,,,28,2021-11-29_18h58.49.514,premceCat2_ses-02_part-02_label-phase2,2020.2.10,Win32,60,,,,,right,2.7067,3,0.6233,,,,,,,,0,47,47,142,1,stimuli/objects/needlenosepliers01.jpg,right,new,286,,,,,,,,
,,,,,,,,28,2021-11-29_18h58.49.514,premceCat2_ses-02_part-02_label-phase2,2020.2.10,Win32,60,,,,,right,3.7869,2,0.8708,,,,,,,,0,48,48,101,1,stimuli/objects/lifejacket.jpg,right,new,245,,,,,,,,
,,,,,,,,28,2021-11-29_18h58.49.514,premceCat2_ses-02_part-02_label-phase2,2020.2.10,Win32,60,,,,,right,1.5723,3,0.5209,,,,,,,,0,49,49,68,1,stimuli/objects/ladle02a.jpg,right,new,212,,,,,,,,
,,,,,,,,28,2021-11-29_18h58.49.514,premceCat2_ses-02_part-02_label-phase2,2020.2.10,Win32,60,,,,,right,3.1084,3,0.7873,,,,,,,,0,50,50,120,1,stimuli/objects/tent.jpg,right,new,264,,,,,,,,
,,,,,,,,28,2021-11-29_18h58.49.514,premceCat2_ses-02_part-02_label-phase2,2020.2.10,Win32,60,,,,,left,2.2339,4,0.3102,right,1.1531,0,0,0,0,1,,,,,,,,,,,,,,,,,
,,,,,,,,28,2021-11-29_18h58.49.514,premceCat2_ses-02_part-02_label-phase2,2020.2.10,Win32,60,,,,,,,,,,,,,,,,0,51,51,21,1,stimuli/objects/adjustablewrench01b.jpg,left,old,165,,,,,,,,
,,,,,,,,28,2021-11-29_18h58.49.514,premceCat2_ses-02_part-02_label-phase2,2020.2.10,Win32,60,,,,,left,1.0522,4,0.33,right,0.3275,0,0,0,0,1,,,,,,,,,,,,,,,,,
,,,,,,,,28,2021-11-29_18h58.49.514,premceCat2_ses-02_part-02_label-phase2,2020.2.10,Win32,60,,,,,,,,,,,,,,,,0,52,52,61,1,stimuli/objects/setsquare.jpg,left,old,205,,,,,,,,
,,,,,,,,28,2021-11-29_18h58.49.514,premceCat2_ses-02_part-02_label-phase2,2020.2.10,Win32,60,,,,,left,0.7581,4,0.4673,right,0.6601,0,0,0,0,1,,,,,,,,,,,,,,,,,
,,,,,,,,28,2021-11-29_18h58.49.514,premceCat2_ses-02_part-02_label-phase2,2020.2.10,Win32,60,,,,,,,,,,,,,,,,0,53,53,84,1,stimuli/objects/sportbag.jpg,left,old,228,,,,,,,,
,,,,,,,,28,2021-11-29_18h58.49.514,premceCat2_ses-02_part-02_label-phase2,2020.2.10,Win32,60,,,,,right,1.6774,2,1.246,,,,,,,,0,54,54,117,1,stimuli/objects/iceskate.jpg,left,old,261,,,,,,,,
,,,,,,,,28,2021-11-29_18h58.49.514,premceCat2_ses-02_part-02_label-phase2,2020.2.10,Win32,60,,,,,right,1.0359,3,0.5199,,,,,,,,0,55,55,78,1,stimuli/objects/lightswitch01.jpg,right,new,222,,,,,,,,
,,,,,,,,28,2021-11-29_18h58.49.514,premceCat2_ses-02_part-02_label-phase2,2020.2.10,Win32,60,,,,,right,1.5491,1,0.2637,,,,,,,,0,56,56,127,1,stimuli/objects/skigoggles01.jpg,right,new,271,,,,,,,,
,,,,,,,,28,2021-11-29_18h58.49.514,premceCat2_ses-02_part-02_label-phase2,2020.2.10,Win32,60,,,,,right,1.0506,3,1.7624,,,,,,,,0,57,57,53,1,stimuli/objects/chainsaw.jpg,left,old,197,,,,,,,,
,,,,,,,,28,2021-11-29_18h58.49.514,premceCat2_ses-02_part-02_label-phase2,2020.2.10,Win32,60,,,,,left,1.3674,3,0.2227,right,0.4692,0,0,0,0,1,,,,,,,,,,,,,,,,,
,,,,,,,,28,2021-11-29_18h58.49.514,premceCat2_ses-02_part-02_label-phase2,2020.2.10,Win32,60,,,,,,,,,,,,,,,,0,58,58,47,1,stimuli/objects/plate01b.jpg,right,new,191,,,,,,,,
,,,,,,,,28,2021-11-29_18h58.49.514,premceCat2_ses-02_part-02_label-phase2,2020.2.10,Win32,60,,,,,left,2.1825,2,0.6149,right,0.4616,0,0,0,0,1,,,,,,,,,,,,,,,,,
,,,,,,,,28,2021-11-29_18h58.49.514,premceCat2_ses-02_part-02_label-phase2,2020.2.10,Win32,60,,,,,,,,,,,,,,,,0,59,59,116,1,stimuli/objects/lockingplier.jpg,right,new,260,,,,,,,,
,,,,,,,,28,2021-11-29_18h58.49.514,premceCat2_ses-02_part-02_label-phase2,2020.2.10,Win32,60,,,,,left,2.6185,1,0.7403,right,0.3081,0,0,0,0,1,,,,,,,,,,,,,,,,,
,,,,,,,,28,2021-11-29_18h58.49.514,premceCat2_ses-02_part-02_label-phase2,2020.2.10,Win32,60,,,,,,,,,,,,,,,,0,60,60,105,1,stimuli/objects/cork02.jpg,left,old,249,,,,,,,,
,,,,,,,,28,2021-11-29_18h58.49.514,premceCat2_ses-02_part-02_label-phase2,2020.2.10,Win32,60,,,,,left,1.0924,4,0.1576,right,0.2236,0,0,0,0,1,,,,,,,,,,,,,,,,,
,,,,,,,,28,2021-11-29_18h58.49.514,premceCat2_ses-02_part-02_label-phase2,2020.2.10,Win32,60,,,,,,,,,,,,,,,,0,61,61,119,1,stimuli/objects/cookiecutter.jpg,left,old,263,,,,,,,,
,,,,,,,,28,2021-11-29_18h58.49.514,premceCat2_ses-02_part-02_label-phase2,2020.2.10,Win32,60,,,,,left,0.9739,3,0.3469,left,0.2291,0,0,0,0,1,,,,,,,,,,,,,,,,,
,,,,,,,,28,2021-11-29_18h58.49.514,premceCat2_ses-02_part-02_label-phase2,2020.2.10,Win32,60,,,,,,,,,,,,,,,,0,62,62,75,1,stimuli/objects/ladder.jpg,left,old,219,,,,,,,,
,,,,,,,,28,2021-11-29_18h58.49.514,premceCat2_ses-02_part-02_label-phase2,2020.2.10,Win32,60,,,,,left,3.919,3,1.3315,left,0.8958,0,0,0,0,1,,,,,,,,,,,,,,,,,
,,,,,,,,28,2021-11-29_18h58.49.514,premceCat2_ses-02_part-02_label-phase2,2020.2.10,Win32,60,,,,,,,,,,,,,,,,0,63,63,42,1,stimuli/objects/tennisracket.jpg,right,new,186,,,,,,,,
,,,,,,,,28,2021-11-29_18h58.49.514,premceCat2_ses-02_part-02_label-phase2,2020.2.10,Win32,60,,,,,right,1.8414,3,0.3009,,,,,,,,0,64,64,12,1,stimuli/objects/fanheater.jpg,right,new,156,,,,,,,,
,,,,,,,,28,2021-11-29_18h58.49.514,premceCat2_ses-02_part-02_label-phase2,2020.2.10,Win32,60,,,,,left,1.5932,4,0.3094,right,0.8099,0,0,0,0,1,,,,,,,,,,,,,,,,,
,,,,,,,,28,2021-11-29_18h58.49.514,premceCat2_ses-02_part-02_label-phase2,2020.2.10,Win32,60,,,,,,,,,,,,,,,,0,65,65,24,1,stimuli/objects/monitor.jpg,right,new,168,,,,,,,,
,,,,,,,,28,2021-11-29_18h58.49.514,premceCat2_ses-02_part-02_label-phase2,2020.2.10,Win32,60,,,,,right,0.7992,4,0.3214,,,,,,,,0,66,66,2,1,stimuli/objects/wetfloorsign.jpg,right,new,146,,,,,,,,
,,,,,,,,28,2021-11-29_18h58.49.514,premceCat2_ses-02_part-02_label-phase2,2020.2.10,Win32,60,,,,,left,0.6572,4,0.2188,right,0.8071,0,0,0,0,1,,,,,,,,,,,,,,,,,
,,,,,,,,28,2021-11-29_18h58.49.514,premceCat2_ses-02_part-02_label-phase2,2020.2.10,Win32,60,,,,,,,,,,,,,,,,0,67,67,73,1,stimuli/objects/weight01.jpg,left,old,217,,,,,,,,
,,,,,,,,28,2021-11-29_18h58.49.514,premceCat2_ses-02_part-02_label-phase2,2020.2.10,Win32,60,,,,,left,5.2067,4,2.4247,right,2.8078,0,0,0,0,1,,,,,,,,,,,,,,,,,
,,,,,,,,28,2021-11-29_18h58.49.514,premceCat2_ses-02_part-02_label-phase2,2020.2.10,Win32,60,,,,,,,,,,,,,,,,0,68,68,43,1,stimuli/objects/bowrake.jpg,right,new,187,,,,,,,,
,,,,,,,,28,2021-11-29_18h58.49.514,premceCat2_ses-02_part-02_label-phase2,2020.2.10,Win32,60,,,,,right,1.1264,1,0.32,,,,,,,,0,69,69,57,1,stimuli/objects/soccerball.jpg,left,old,201,,,,,,,,
,,,,,,,,28,2021-11-29_18h58.49.514,premceCat2_ses-02_part-02_label-phase2,2020.2.10,Win32,60,,,,,left,1.4121,2,0.2959,right,0.3591,0,0,0,0,1,,,,,,,,,,,,,,,,,
,,,,,,,,28,2021-11-29_18h58.49.514,premceCat2_ses-02_part-02_label-phase2,2020.2.10,Win32,60,,,,,,,,,,,,,,,,0,70,70,96,1,stimuli/objects/knifesharpener.jpg,left,old,240,,,,,,,,
,,,,,,,,28,2021-11-29_18h58.49.514,premceCat2_ses-02_part-02_label-phase2,2020.2.10,Win32,60,,,,,right,2.8879,2,0.5039,,,,,,,,0,71,71,124,1,stimuli/objects/basketball01.jpg,right,new,268,,,,,,,,
,,,,,,,,28,2021-11-29_18h58.49.514,premceCat2_ses-02_part-02_label-phase2,2020.2.10,Win32,60,,,,,left,1.5083,3,0.3888,left,1.2689,0,0,0,0,1,,,,,,,,,,,,,,,,,
,,,,,,,,28,2021-11-29_18h58.49.514,premceCat2_ses-02_part-02_label-phase2,2020.2.10,Win32,60,,,,,,,,,,,,,,,,0,72,72,70,1,stimuli/objects/shovel01.jpg,right,new,214,,,,,,,,
,,,,,,,,28,2021-11-29_18h58.49.514,premceCat2_ses-02_part-02_label-phase2,2020.2.10,Win32,60,,,,,left,3.0807,4,0.3187,right,0.6795,0,0,0,0,1,,,,,,,,,,,,,,,,,
,,,,,,,,28,2021-11-29_18h58.49.514,premceCat2_ses-02_part-02_label-phase2,2020.2.10,Win32,60,,,,,,,,,,,,,,,,0,73,73,52,1,stimuli/objects/extensioncord.jpg,left,old,196,,,,,,,,
,,,,,,,,28,2021-11-29_18h58.49.514,premceCat2_ses-02_part-02_label-phase2,2020.2.10,Win32,60,,,,,right,2.2917,2,0.3237,,,,,,,,0,74,74,35,1,stimuli/objects/stroller.jpg,right,new,179,,,,,,,,
,,,,,,,,28,2021-11-29_18h58.49.514,premceCat2_ses-02_part-02_label-phase2,2020.2.10,Win32,60,,,,,left,1.38,3,0.2042,left,0.5917,0,0,0,0,1,,,,,,,,,,,,,,,,,
,,,,,,,,28,2021-11-29_18h58.49.514,premceCat2_ses-02_part-02_label-phase2,2020.2.10,Win32,60,,,,,,,,,,,,,,,,0,75,75,54,1,stimuli/objects/stubbywrench01a.jpg,left,old,198,,,,,,,,
,,,,,,,,28,2021-11-29_18h58.49.514,premceCat2_ses-02_part-02_label-phase2,2020.2.10,Win32,60,,,,,right,1.3516,2,1.3561,,,,,,,,0,76,76,77,1,stimuli/objects/thermos.jpg,left,old,221,,,,,,,,
,,,,,,,,28,2021-11-29_18h58.49.514,premceCat2_ses-02_part-02_label-phase2,2020.2.10,Win32,60,,,,,left,1.4265,4,1.1354,right,0.9298,0,0,0,0,1,,,,,,,,,,,,,,,,,
,,,,,,,,28,2021-11-29_18h58.49.514,premceCat2_ses-02_part-02_label-phase2,2020.2.10,Win32,60,,,,,,,,,,,,,,,,0,77,77,32,1,stimuli/objects/potatomasher03b.jpg,left,old,176,,,,,,,,
,,,,,,,,28,2021-11-29_18h58.49.514,premceCat2_ses-02_part-02_label-phase2,2020.2.10,Win32,60,,,,,left,0.7212,4,0.2031,right,0.8924,0,0,0,0,1,,,,,,,,,,,,,,,,,
,,,,,,,,28,2021-11-29_18h58.49.514,premceCat2_ses-02_part-02_label-phase2,2020.2.10,Win32,60,,,,,,,,,,,,,,,,0,78,78,29,1,stimuli/objects/ipod.jpg,left,old,173,,,,,,,,
,,,,,,,,28,2021-11-29_18h58.49.514,premceCat2_ses-02_part-02_label-phase2,2020.2.10,Win32,60,,,,,right,1.4085,1,3.0236,,,,,,,,0,79,79,40,1,stimuli/objects/tablesaw.jpg,right,new,184,,,,,,,,
,,,,,,,,28,2021-11-29_18h58.49.514,premceCat2_ses-02_part-02_label-phase2,2020.2.10,Win32,60,,,,,left,1.1043,4,0.3463,left,0.455,0,0,0,0,1,,,,,,,,,,,,,,,,,
,,,,,,,,28,2021-11-29_18h58.49.514,premceCat2_ses-02_part-02_label-phase2,2020.2.10,Win32,60,,,,,,,,,,,,,,,,0,80,80,7,1,stimuli/objects/handmixer01d.jpg,left,old,151,,,,,,,,
,,,,,,,,28,2021-11-29_18h58.49.514,premceCat2_ses-02_part-02_label-phase2,2020.2.10,Win32,60,,,,,right,0.7567,3,1.8777,,,,,,,,0,81,81,46,1,stimuli/objects/waterbottleholder.jpg,right,new,190,,,,,,,,
,,,,,,,,28,2021-11-29_18h58.49.514,premceCat2_ses-02_part-02_label-phase2,2020.2.10,Win32,60,,,,,right,1.8033,2,0.3534,,,,,,,,0,82,82,19,1,stimuli/objects/mug01.jpg,right,new,163,,,,,,,,
,,,,,,,,28,2021-11-29_18h58.49.514,premceCat2_ses-02_part-02_label-phase2,2020.2.10,Win32,60,,,,,right,2.1955,4,0.4523,,,,,,,,0,83,83,132,1,stimuli/objects/wirestripper.jpg,right,new,276,,,,,,,,
,,,,,,,,28,2021-11-29_18h58.49.514,premceCat2_ses-02_part-02_label-phase2,2020.2.10,Win32,60,,,,,left,1.2328,3,0.5714,left,1.3873,0,0,0,0,1,,,,,,,,,,,,,,,,,
,,,,,,,,28,2021-11-29_18h58.49.514,premceCat2_ses-02_part-02_label-phase2,2020.2.10,Win32,60,,,,,,,,,,,,,,,,0,84,84,31,1,stimuli/objects/outdoorheater.jpg,left,old,175,,,,,,,,
,,,,,,,,28,2021-11-29_18h58.49.514,premceCat2_ses-02_part-02_label-phase2,2020.2.10,Win32,60,,,,,right,0.813,1,0.2697,,,,,,,,0,85,85,107,1,stimuli/objects/dolly01.jpg,right,new,251,,,,,,,,
,,,,,,,,28,2021-11-29_18h58.49.514,premceCat2_ses-02_part-02_label-phase2,2020.2.10,Win32,60,,,,,left,2.1032,3,0.338,left,0.4661,0,0,0,0,1,,,,,,,,,,,,,,,,,
,,,,,,,,28,2021-11-29_18h58.49.514,premceCat2_ses-02_part-02_label-phase2,2020.2.10,Win32,60,,,,,,,,,,,,,,,,0,86,86,86,1,stimuli/objects/trampoline.jpg,right,new,230,,,,,,,,
,,,,,,,,28,2021-11-29_18h58.49.514,premceCat2_ses-02_part-02_label-phase2,2020.2.10,Win32,60,,,,,right,3.706,3,0.4105,,,,,,,,0,87,87,67,1,stimuli/objects/nintendods.jpg,left,old,211,,,,,,,,
,,,,,,,,28,2021-11-29_18h58.49.514,premceCat2_ses-02_part-02_label-phase2,2020.2.10,Win32,60,,,,,left,1.3125,4,1.4196,left,0.6174,0,0,0,0,1,,,,,,,,,,,,,,,,,
,,,,,,,,28,2021-11-29_18h58.49.514,premceCat2_ses-02_part-02_label-phase2,2020.2.10,Win32,60,,,,,,,,,,,,,,,,0,88,88,128,1,stimuli/objects/espressomachine.jpg,left,old,272,,,,,,,,
,,,,,,,,28,2021-11-29_18h58.49.514,premceCat2_ses-02_part-02_label-phase2,2020.2.10,Win32,60,,,,,left,2.975,3,0.3156,left,0.8724,0,0,0,0,1,,,,,,,,,,,,,,,,,
,,,,,,,,28,2021-11-29_18h58.49.514,premceCat2_ses-02_part-02_label-phase2,2020.2.10,Win32,60,,,,,,,,,,,,,,,,0,89,89,90,1,stimuli/objects/patioumbrella.jpg,left,old,234,,,,,,,,
,,,,,,,,28,2021-11-29_18h58.49.514,premceCat2_ses-02_part-02_label-phase2,2020.2.10,Win32,60,,,,,right,0.7324,4,0.3401,,,,,,,,0,90,90,0,1,stimuli/objects/smokedetector02.jpg,right,new,144,,,,,,,,
,,,,,,,,28,2021-11-29_18h58.49.514,premceCat2_ses-02_part-02_label-phase2,2020.2.10,Win32,60,,,,,left,1.0698,3,0.3547,right,0.5356,0,0,0,0,1,,,,,,,,,,,,,,,,,
,,,,,,,,28,2021-11-29_18h58.49.514,premceCat2_ses-02_part-02_label-phase2,2020.2.10,Win32,60,,,,,,,,,,,,,,,,0,91,91,74,1,stimuli/objects/poolnet.jpg,left,old,218,,,,,,,,
,,,,,,,,28,2021-11-29_18h58.49.514,premceCat2_ses-02_part-02_label-phase2,2020.2.10,Win32,60,,,,,left,3.4584,2,0.534,left,1.4474,0,0,0,0,1,,,,,,,,,,,,,,,,,
,,,,,,,,28,2021-11-29_18h58.49.514,premceCat2_ses-02_part-02_label-phase2,2020.2.10,Win32,60,,,,,,,,,,,,,,,,0,92,92,28,1,stimuli/objects/saladspinner.jpg,left,old,172,,,,,,,,
,,,,,,,,28,2021-11-29_18h58.49.514,premceCat2_ses-02_part-02_label-phase2,2020.2.10,Win32,60,,,,,right,0.9118,4,3.0161,,,,,,,,0,93,93,111,1,stimuli/objects/diaperbag.jpg,right,new,255,,,,,,,,
,,,,,,,,28,2021-11-29_18h58.49.514,premceCat2_ses-02_part-02_label-phase2,2020.2.10,Win32,60,,,,,right,2.6026,2,2.1922,,,,,,,,0,94,94,112,1,stimuli/objects/filmroll.jpg,left,old,256,,,,,,,,
,,,,,,,,28,2021-11-29_18h58.49.514,premceCat2_ses-02_part-02_label-phase2,2020.2.10,Win32,60,,,,,right,1.04,3,0.6195,,,,,,,,0,95,95,131,1,stimuli/objects/handblender.jpg,right,new,275,,,,,,,,
,,,,,,,,28,2021-11-29_18h58.49.514,premceCat2_ses-02_part-02_label-phase2,2020.2.10,Win32,60,,,,,right,3.1217,4,0.2828,,,,,,,,0,96,96,134,1,stimuli/objects/filmnegative.jpg,left,old,278,,,,,,,,
,,,,,,,,28,2021-11-29_18h58.49.514,premceCat2_ses-02_part-02_label-phase2,2020.2.10,Win32,60,,,,,left,1.0226,4,0.2212,right,0.0306,0,0,0,0,1,,,,,,,,,,,,,,,,,
,,,,,,,,28,2021-11-29_18h58.49.514,premceCat2_ses-02_part-02_label-phase2,2020.2.10,Win32,60,,,,,,,,,,,,,,,,0,97,97,141,1,stimuli/objects/coffeepot03a.jpg,left,old,285,,,,,,,,
,,,,,,,,28,2021-11-29_18h58.49.514,premceCat2_ses-02_part-02_label-phase2,2020.2.10,Win32,60,,,,,left,1.5087,4,0.0368,left,0.085,0,0,0,0,1,,,,,,,,,,,,,,,,,
,,,,,,,,28,2021-11-29_18h58.49.514,premceCat2_ses-02_part-02_label-phase2,2020.2.10,Win32,60,,,,,,,,,,,,,,,,0,98,98,45,1,stimuli/objects/bikelock.jpg,left,old,189,,,,,,,,
,,,,,,,,28,2021-11-29_18h58.49.514,premceCat2_ses-02_part-02_label-phase2,2020.2.10,Win32,60,,,,,right,1.2576,1,1.0852,,,,,,,,0,99,99,69,1,stimuli/objects/straw.jpg,right,new,213,,,,,,,,
,,,,,,,,28,2021-11-29_18h58.49.514,premceCat2_ses-02_part-02_label-phase2,2020.2.10,Win32,60,,,,,right,1.3214,2,1.5026,,,,,,,,0,100,100,110,1,stimuli/objects/bikewheel.jpg,left,old,254,,,,,,,,
,,,,,,,,28,2021-11-29_18h58.49.514,premceCat2_ses-02_part-02_label-phase2,2020.2.10,Win32,60,,,,,left,1.3673,4,0.175,left,1.6108,0,0,0,0,1,,,,,,,,,,,,,,,,,
,,,,,,,,28,2021-11-29_18h58.49.514,premceCat2_ses-02_part-02_label-phase2,2020.2.10,Win32,60,,,,,,,,,,,,,,,,0,101,101,65,1,stimuli/objects/hoe.jpg,left,old,209,,,,,,,,
,,,,,,,,28,2021-11-29_18h58.49.514,premceCat2_ses-02_part-02_label-phase2,2020.2.10,Win32,60,,,,,right,0.8413,3,1.4388,,,,,,,,0,102,102,121,1,stimuli/objects/parachute.jpg,right,new,265,,,,,,,,
,,,,,,,,28,2021-11-29_18h58.49.514,premceCat2_ses-02_part-02_label-phase2,2020.2.10,Win32,60,,,,,left,1.1162,4,0.1861,right,1.6573,0,0,0,0,1,,,,,,,,,,,,,,,,,
,,,,,,,,28,2021-11-29_18h58.49.514,premceCat2_ses-02_part-02_label-phase2,2020.2.10,Win32,60,,,,,,,,,,,,,,,,0,103,103,71,1,stimuli/objects/anchor.jpg,left,old,215,,,,,,,,
,,,,,,,,28,2021-11-29_18h58.49.514,premceCat2_ses-02_part-02_label-phase2,2020.2.10,Win32,60,,,,,right,0.9094,1,0.1726,,,,,,,,0,104,104,9,1,stimuli/objects/alarmsystem.jpg,right,new,153,,,,,,,,
,,,,,,,,28,2021-11-29_18h58.49.514,premceCat2_ses-02_part-02_label-phase2,2020.2.10,Win32,60,,,,,left,1.3419,3,0.7165,left,0.9518,0,0,0,0,1,,,,,,,,,,,,,,,,,
,,,,,,,,28,2021-11-29_18h58.49.514,premceCat2_ses-02_part-02_label-phase2,2020.2.10,Win32,60,,,,,,,,,,,,,,,,0,105,105,138,1,stimuli/objects/beermug01a.jpg,right,new,282,,,,,,,,
,,,,,,,,28,2021-11-29_18h58.49.514,premceCat2_ses-02_part-02_label-phase2,2020.2.10,Win32,60,,,,,right,3.226,3,0.9597,,,,,,,,0,106,106,129,1,stimuli/objects/jigsaw.jpg,left,old,273,,,,,,,,
,,,,,,,,28,2021-11-29_18h58.49.514,premceCat2_ses-02_part-02_label-phase2,2020.2.10,Win32,60,,,,,right,2.8398,3,0.2765,,,,,,,,0,107,107,26,1,stimuli/objects/flashlight02b.jpg,right,new,170,,,,,,,,
,,,,,,,,28,2021-11-29_18h58.49.514,premceCat2_ses-02_part-02_label-phase2,2020.2.10,Win32,60,,,,,left,1.327,3,0.2952,left,0.6908,0,0,0,0,1,,,,,,,,,,,,,,,,,
,,,,,,,,28,2021-11-29_18h58.49.514,premceCat2_ses-02_part-02_label-phase2,2020.2.10,Win32,60,,,,,,,,,,,,,,,,0,108,108,22,1,stimuli/objects/pipewrench.jpg,left,old,166,,,,,,,,
,,,,,,,,28,2021-11-29_18h58.49.514,premceCat2_ses-02_part-02_label-phase2,2020.2.10,Win32,60,,,,,left,0.9788,4,0.141,right,0.3806,0,0,0,0,1,,,,,,,,,,,,,,,,,
,,,,,,,,28,2021-11-29_18h58.49.514,premceCat2_ses-02_part-02_label-phase2,2020.2.10,Win32,60,,,,,,,,,,,,,,,,0,109,109,56,1,stimuli/objects/hourglass.jpg,left,old,200,,,,,,,,
,,,,,,,,28,2021-11-29_18h58.49.514,premceCat2_ses-02_part-02_label-phase2,2020.2.10,Win32,60,,,,,right,1.2935,1,0.1246,,,,,,,,0,110,110,135,1,stimuli/objects/mortarandpestle.jpg,right,new,279,,,,,,,,
,,,,,,,,28,2021-11-29_18h58.49.514,premceCat2_ses-02_part-02_label-phase2,2020.2.10,Win32,60,,,,,left,1.2075,1,0.9412,right,1.4362,0,0,0,0,1,,,,,,,,,,,,,,,,,
,,,,,,,,28,2021-11-29_18h58.49.514,premceCat2_ses-02_part-02_label-phase2,2020.2.10,Win32,60,,,,,,,,,,,,,,,,0,111,111,87,1,stimuli/objects/wiicontroller.jpg,right,new,231,,,,,,,,
,,,,,,,,28,2021-11-29_18h58.49.514,premceCat2_ses-02_part-02_label-phase2,2020.2.10,Win32,60,,,,,right,1.7991,2,0.5708,,,,,,,,0,112,112,80,1,stimuli/objects/barbecue03.jpg,right,new,224,,,,,,,,
,,,,,,,,28,2021-11-29_18h58.49.514,premceCat2_ses-02_part-02_label-phase2,2020.2.10,Win32,60,,,,,left,1.2212,2,0.5179,left,0.3934,0,0,0,0,1,,,,,,,,,,,,,,,,,
,,,,,,,,28,2021-11-29_18h58.49.514,premceCat2_ses-02_part-02_label-phase2,2020.2.10,Win32,60,,,,,,,,,,,,,,,,0,113,113,23,1,stimuli/objects/baseballglove.jpg,left,old,167,,,,,,,,
,,,,,,,,28,2021-11-29_18h58.49.514,premceCat2_ses-02_part-02_label-phase2,2020.2.10,Win32,60,,,,,left,1.1124,4,0.1733,right,0.3139,0,0,0,0,1,,,,,,,,,,,,,,,,,
,,,,,,,,28,2021-11-29_18h58.49.514,premceCat2_ses-02_part-02_label-phase2,2020.2.10,Win32,60,,,,,,,,,,,,,,,,0,114,114,18,1,stimuli/objects/dvdplayer.jpg,left,old,162,,,,,,,,
,,,,,,,,28,2021-11-29_18h58.49.514,premceCat2_ses-02_part-02_label-phase2,2020.2.10,Win32,60,,,,,right,1.0981,2,0.5143,,,,,,,,0,115,115,60,1,stimuli/objects/kite.jpg,right,new,204,,,,,,,,
,,,,,,,,28,2021-11-29_18h58.49.514,premceCat2_ses-02_part-02_label-phase2,2020.2.10,Win32,60,,,,,left,0.3081,4,1.4895,right,0.3432,0,0,0,0,1,,,,,,,,,,,,,,,,,
,,,,,,,,28,2021-11-29_18h58.49.514,premceCat2_ses-02_part-02_label-phase2,2020.2.10,Win32,60,,,,,,,,,,,,,,,,0,116,116,4,1,stimuli/objects/cassettetape01a.jpg,right,new,148,,,,,,,,
,,,,,,,,28,2021-11-29_18h58.49.514,premceCat2_ses-02_part-02_label-phase2,2020.2.10,Win32,60,,,,,right,1.1331,2,1.5299,,,,,,,,0,117,117,137,1,stimuli/objects/nutcracker01.jpg,right,new,281,,,,,,,,
,,,,,,,,28,2021-11-29_18h58.49.514,premceCat2_ses-02_part-02_label-phase2,2020.2.10,Win32,60,,,,,right,1.2563,1,0.6839,,,,,,,,0,118,118,59,1,stimuli/objects/speedball.jpg,right,new,203,,,,,,,,
,,,,,,,,28,2021-11-29_18h58.49.514,premceCat2_ses-02_part-02_label-phase2,2020.2.10,Win32,60,,,,,left,3.0721,3,1.4257,right,0.6934,0,0,0,0,1,,,,,,,,,,,,,,,,,
,,,,,,,,28,2021-11-29_18h58.49.514,premceCat2_ses-02_part-02_label-phase2,2020.2.10,Win32,60,,,,,,,,,,,,,,,,0,119,119,15,1,stimuli/objects/computermouse06.jpg,right,new,159,,,,,,,,
,,,,,,,,28,2021-11-29_18h58.49.514,premceCat2_ses-02_part-02_label-phase2,2020.2.10,Win32,60,,,,,left,1.2926,1,0.3926,right,1.1396,0,0,0,0,1,,,,,,,,,,,,,,,,,
,,,,,,,,28,2021-11-29_18h58.49.514,premceCat2_ses-02_part-02_label-phase2,2020.2.10,Win32,60,,,,,,,,,,,,,,,,0,120,120,113,1,stimuli/objects/boltcutter.jpg,left,old,257,,,,,,,,
,,,,,,,,28,2021-11-29_18h58.49.514,premceCat2_ses-02_part-02_label-phase2,2020.2.10,Win32,60,,,,,left,1.572,4,0.719,right,2.9859,0,0,0,0,1,,,,,,,,,,,,,,,,,
,,,,,,,,28,2021-11-29_18h58.49.514,premceCat2_ses-02_part-02_label-phase2,2020.2.10,Win32,60,,,,,,,,,,,,,,,,0,121,121,8,1,stimuli/objects/sledgehammer.jpg,left,old,152,,,,,,,,
,,,,,,,,28,2021-11-29_18h58.49.514,premceCat2_ses-02_part-02_label-phase2,2020.2.10,Win32,60,,,,,right,2.0174,4,0.3865,,,,,,,,0,122,122,11,1,stimuli/objects/antenna.jpg,left,old,155,,,,,,,,
,,,,,,,,28,2021-11-29_18h58.49.514,premceCat2_ses-02_part-02_label-phase2,2020.2.10,Win32,60,,,,,left,0.7724,4,0.2416,left,0.2703,0,0,0,0,1,,,,,,,,,,,,,,,,,
,,,,,,,,28,2021-11-29_18h58.49.514,premceCat2_ses-02_part-02_label-phase2,2020.2.10,Win32,60,,,,,,,,,,,,,,,,0,123,123,106,1,stimuli/objects/usbcable01a.jpg,left,old,250,,,,,,,,
,,,,,,,,28,2021-11-29_18h58.49.514,premceCat2_ses-02_part-02_label-phase2,2020.2.10,Win32,60,,,,,right,1.5088,2,0.571,,,,,,,,0,124,124,125,1,stimuli/objects/saw02b.jpg,left,old,269,,,,,,,,
,,,,,,,,28,2021-11-29_18h58.49.514,premceCat2_ses-02_part-02_label-phase2,2020.2.10,Win32,60,,,,,left,1.3322,3,0.9374,right,0.545,0,0,0,0,1,,,,,,,,,,,,,,,,,
,,,,,,,,28,2021-11-29_18h58.49.514,premceCat2_ses-02_part-02_label-phase2,2020.2.10,Win32,60,,,,,,,,,,,,,,,,0,125,125,91,1,stimuli/objects/cuttingpliers02.jpg,right,new,235,,,,,,,,
,,,,,,,,28,2021-11-29_18h58.49.514,premceCat2_ses-02_part-02_label-phase2,2020.2.10,Win32,60,,,,,right,1.6928,3,2.2256,,,,,,,,0,126,126,34,1,stimuli/objects/kneepad01c.jpg,right,new,178,,,,,,,,
,,,,,,,,28,2021-11-29_18h58.49.514,premceCat2_ses-02_part-02_label-phase2,2020.2.10,Win32,60,,,,,left,1.3556,3,0.9279,right,0.7621,0,0,0,0,1,,,,,,,,,,,,,,,,,
,,,,,,,,28,2021-11-29_18h58.49.514,premceCat2_ses-02_part-02_label-phase2,2020.2.10,Win32,60,,,,,,,,,,,,,,,,0,127,127,140,1,stimuli/objects/wineglass01.jpg,right,new,284,,,,,,,,
,,,,,,,,28,2021-11-29_18h58.49.514,premceCat2_ses-02_part-02_label-phase2,2020.2.10,Win32,60,,,,,left,1.2141,3,0.316,right,0.2361,0,0,0,0,1,,,,,,,,,,,,,,,,,
,,,,,,,,28,2021-11-29_18h58.49.514,premceCat2_ses-02_part-02_label-phase2,2020.2.10,Win32,60,,,,,,,,,,,,,,,,0,128,128,122,1,stimuli/objects/hockeystick.jpg,right,new,266,,,,,,,,
,,,,,,,,28,2021-11-29_18h58.49.514,premceCat2_ses-02_part-02_label-phase2,2020.2.10,Win32,60,,,,,right,0.8774,2,0.9133,,,,,,,,0,129,129,81,1,stimuli/objects/grill.jpg,right,new,225,,,,,,,,
,,,,,,,,28,2021-11-29_18h58.49.514,premceCat2_ses-02_part-02_label-phase2,2020.2.10,Win32,60,,,,,right,0.9451,4,0.4053,,,,,,,,0,130,130,99,1,stimuli/objects/floodlight.jpg,right,new,243,,,,,,,,
,,,,,,,,28,2021-11-29_18h58.49.514,premceCat2_ses-02_part-02_label-phase2,2020.2.10,Win32,60,,,,,left,3.5567,4,0.2838,right,0.36,0,0,0,0,1,,,,,,,,,,,,,,,,,
,,,,,,,,28,2021-11-29_18h58.49.514,premceCat2_ses-02_part-02_label-phase2,2020.2.10,Win32,60,,,,,,,,,,,,,,,,0,131,131,27,1,stimuli/objects/wateringcan.jpg,left,old,171,,,,,,,,
,,,,,,,,28,2021-11-29_18h58.49.514,premceCat2_ses-02_part-02_label-phase2,2020.2.10,Win32,60,,,,,right,2.634,2,0.3542,,,,,,,,0,132,132,83,1,stimuli/objects/icecubetray01a.jpg,right,new,227,,,,,,,,
,,,,,,,,28,2021-11-29_18h58.49.514,premceCat2_ses-02_part-02_label-phase2,2020.2.10,Win32,60,,,,,right,3.4164,2,0.6709,,,,,,,,0,133,133,130,1,stimuli/objects/scanner.jpg,left,old,274,,,,,,,,
,,,,,,,,28,2021-11-29_18h58.49.514,premceCat2_ses-02_part-02_label-phase2,2020.2.10,Win32,60,,,,,right,1.4637,1,0.3361,,,,,,,,0,134,134,20,1,stimuli/objects/fishinghook03.jpg,left,old,164,,,,,,,,
,,,,,,,,28,2021-11-29_18h58.49.514,premceCat2_ses-02_part-02_label-phase2,2020.2.10,Win32,60,,,,,right,0.8567,3,0.3189,,,,,,,,0,135,135,44,1,stimuli/objects/toaster01.jpg,right,new,188,,,,,,,,
,,,,,,,,28,2021-11-29_18h58.49.514,premceCat2_ses-02_part-02_label-phase2,2020.2.10,Win32,60,,,,,left,0.9651,3,0.3869,right,0.8934,0,0,0,0,1,,,,,,,,,,,,,,,,,
,,,,,,,,28,2021-11-29_18h58.49.514,premceCat2_ses-02_part-02_label-phase2,2020.2.10,Win32,60,,,,,,,,,,,,,,,,0,136,136,37,1,stimuli/objects/papershredder.jpg,left,old,181,,,,,,,,
,,,,,,,,28,2021-11-29_18h58.49.514,premceCat2_ses-02_part-02_label-phase2,2020.2.10,Win32,60,,,,,left,0.8389,4,0.1039,left,0.1483,0,0,0,0,1,,,,,,,,,,,,,,,,,
,,,,,,,,28,2021-11-29_18h58.49.514,premceCat2_ses-02_part-02_label-phase2,2020.2.10,Win32,60,,,,,,,,,,,,,,,,0,137,137,89,1,stimuli/objects/pastaspoon.jpg,left,old,233,,,,,,,,
,,,,,,,,28,2021-11-29_18h58.49.514,premceCat2_ses-02_part-02_label-phase2,2020.2.10,Win32,60,,,,,right,0.7247,1,0.4759,,,,,,,,0,138,138,94,1,stimuli/objects/file.jpg,right,new,238,,,,,,,,
,,,,,,,,28,2021-11-29_18h58.49.514,premceCat2_ses-02_part-02_label-phase2,2020.2.10,Win32,60,,,,,right,0.9356,1,1.7896,,,,,,,,0,139,139,79,1,stimuli/objects/snowboard.jpg,left,old,223,,,,,,,,
,,,,,,,,28,2021-11-29_18h58.49.514,premceCat2_ses-02_part-02_label-phase2,2020.2.10,Win32,60,,,,,right,2.0418,2,0.8395,,,,,,,,0,140,140,118,1,stimuli/objects/pressurewasher.jpg,left,old,262,,,,,,,,
,,,,,,,,28,2021-11-29_18h58.49.514,premceCat2_ses-02_part-02_label-phase2,2020.2.10,Win32,60,,,,,right,2.3283,3,0.236,,,,,,,,0,141,141,103,1,stimuli/objects/swissarmyknife01a.jpg,right,new,247,,,,,,,,
,,,,,,,,28,2021-11-29_18h58.49.514,premceCat2_ses-02_part-02_label-phase2,2020.2.10,Win32,60,,,,,left,1.3917,3,0.21,left,1.3753,0,0,0,0,1,,,,,,,,,,,,,,,,,
,,,,,,,,28,2021-11-29_18h58.49.514,premceCat2_ses-02_part-02_label-phase2,2020.2.10,Win32,60,,,,,,,,,,,,,,,,0,142,142,41,1,stimuli/objects/flask.jpg,right,new,185,,,,,,,,
,,,,,,,,28,2021-11-29_18h58.49.514,premceCat2_ses-02_part-02_label-phase2,2020.2.10,Win32,60,,,,,,,,,,,,,,,,,,,,,,,,,space,84.3958,0,1,1,1,1,condition_files/ImagesforRecog1_2.csv
