instructions_loop.thisRepN,instructions_loop.thisTrialN,instructions_loop.thisN,instructions_loop.thisIndex,instructions_loop.ran,text1,text2,text3,participant,date,expName,psychopyVersion,OS,frameRate,key_resp_2.keys,key_resp_2.rt,key_resp_3.keys,key_resp_3.rt,recog_resp.keys,recog_resp.rt,conf_resp.keys,conf_resp.rt,resp_assoc.keys,resp_assoc.rt,assoc_loop.thisRepN,assoc_loop.thisTrialN,assoc_loop.thisN,assoc_loop.thisIndex,assoc_loop.ran,recog_loop.thisRepN,recog_loop.thisTrialN,recog_loop.thisN,recog_loop.thisIndex,recog_loop.ran,images,corr_ans,type,order,key_resp_break.keys,key_resp_break.rt,list_loop.thisRepN,list_loop.thisTrialN,list_loop.thisN,list_loop.thisIndex,list_loop.ran,recog_list
0,0,0,0,1,Welcome to the last phase of this experiment!,.,Please press the space bar to continue,29,2021-12-06_09h58.48.412,premceCat2_ses-02_part-02_label-phase2,2020.2.10,MacIntel,60,,,,,,,,,,,,,,,,,,,,,,,,,,,,,,,,
0,1,1,1,1,.,"In this phase, you will see some objects. 

For each object, you should indicate whether you have seen it before during the experiment.

Press LEFT ARROW for YES
Press RIGHT ARROW for NO

",Please press the space bar to continue ,29,2021-12-06_09h58.48.412,premceCat2_ses-02_part-02_label-phase2,2020.2.10,MacIntel,60,,,,,,,,,,,,,,,,,,,,,,,,,,,,,,,,
0,2,2,2,1,.,"After that, you will be asked how confident you are of your choice.

Please rate the confidence in your choice with the numbers from 1 to 4 of your keyboard. 

The numbers correspond to:

1 = Very unsure
2 = Unsure
3 = Sure
4 = Very Sure",Please press the space bar to continue,29,2021-12-06_09h58.48.412,premceCat2_ses-02_part-02_label-phase2,2020.2.10,MacIntel,60,,,,,,,,,,,,,,,,,,,,,,,,,,,,,,,,
,,,,,,,,29,2021-12-06_09h58.48.412,premceCat2_ses-02_part-02_label-phase2,2020.2.10,MacIntel,60,space,4.6435,space,7.6255,left,3.0374,2,1.3027,left,1.8544,0,0,0,0,1,,,,,,,,,,,,,,,,,
,,,,,,,,29,2021-12-06_09h58.48.412,premceCat2_ses-02_part-02_label-phase2,2020.2.10,MacIntel,60,,,,,,,,,,,,,,,,0,0,0,140,1,stimuli/objects/wineglass01.jpg,right,new,284,,,,,,,,
,,,,,,,,29,2021-12-06_09h58.48.412,premceCat2_ses-02_part-02_label-phase2,2020.2.10,MacIntel,60,,,,,left,1.6293,2,1.2217,right,1.2482,0,0,0,0,1,,,,,,,,,,,,,,,,,
,,,,,,,,29,2021-12-06_09h58.48.412,premceCat2_ses-02_part-02_label-phase2,2020.2.10,MacIntel,60,,,,,,,,,,,,,,,,0,1,1,96,1,stimuli/objects/mallet01b.jpg,left,old,240,,,,,,,,
,,,,,,,,29,2021-12-06_09h58.48.412,premceCat2_ses-02_part-02_label-phase2,2020.2.10,MacIntel,60,,,,,right,1.6758,3,1.5204,,,,,,,,0,2,2,82,1,stimuli/objects/shopvac.jpg,right,new,226,,,,,,,,
,,,,,,,,29,2021-12-06_09h58.48.412,premceCat2_ses-02_part-02_label-phase2,2020.2.10,MacIntel,60,,,,,left,1.3462,4,1.3541,left,2.0337,0,0,0,0,1,,,,,,,,,,,,,,,,,
,,,,,,,,29,2021-12-06_09h58.48.412,premceCat2_ses-02_part-02_label-phase2,2020.2.10,MacIntel,60,,,,,,,,,,,,,,,,0,3,3,70,1,stimuli/objects/shovel01.jpg,right,new,214,,,,,,,,
,,,,,,,,29,2021-12-06_09h58.48.412,premceCat2_ses-02_part-02_label-phase2,2020.2.10,MacIntel,60,,,,,left,1.1726,4,0.3209,right,0.887,0,0,0,0,1,,,,,,,,,,,,,,,,,
,,,,,,,,29,2021-12-06_09h58.48.412,premceCat2_ses-02_part-02_label-phase2,2020.2.10,MacIntel,60,,,,,,,,,,,,,,,,0,4,4,125,1,stimuli/objects/pliers02b.jpg,left,old,269,,,,,,,,
,,,,,,,,29,2021-12-06_09h58.48.412,premceCat2_ses-02_part-02_label-phase2,2020.2.10,MacIntel,60,,,,,left,0.8514,4,1.972,left,4.5365,0,0,0,0,1,,,,,,,,,,,,,,,,,
,,,,,,,,29,2021-12-06_09h58.48.412,premceCat2_ses-02_part-02_label-phase2,2020.2.10,MacIntel,60,,,,,,,,,,,,,,,,0,5,5,110,1,stimuli/objects/hockeygoaliepad.jpg,left,old,254,,,,,,,,
,,,,,,,,29,2021-12-06_09h58.48.412,premceCat2_ses-02_part-02_label-phase2,2020.2.10,MacIntel,60,,,,,left,0.7533,4,0.4343,right,1.3535,0,0,0,0,1,,,,,,,,,,,,,,,,,
,,,,,,,,29,2021-12-06_09h58.48.412,premceCat2_ses-02_part-02_label-phase2,2020.2.10,MacIntel,60,,,,,,,,,,,,,,,,0,6,6,42,1,stimuli/objects/tennisracket.jpg,right,new,186,,,,,,,,
,,,,,,,,29,2021-12-06_09h58.48.412,premceCat2_ses-02_part-02_label-phase2,2020.2.10,MacIntel,60,,,,,left,0.9875,4,0.2342,left,0.503,0,0,0,0,1,,,,,,,,,,,,,,,,,
,,,,,,,,29,2021-12-06_09h58.48.412,premceCat2_ses-02_part-02_label-phase2,2020.2.10,MacIntel,60,,,,,,,,,,,,,,,,0,7,7,20,1,stimuli/objects/bikehelmet.jpg,left,old,164,,,,,,,,
,,,,,,,,29,2021-12-06_09h58.48.412,premceCat2_ses-02_part-02_label-phase2,2020.2.10,MacIntel,60,,,,,left,2.8524,2,0.4811,right,1.3743,0,0,0,0,1,,,,,,,,,,,,,,,,,
,,,,,,,,29,2021-12-06_09h58.48.412,premceCat2_ses-02_part-02_label-phase2,2020.2.10,MacIntel,60,,,,,,,,,,,,,,,,0,8,8,52,1,stimuli/objects/antenna.jpg,left,old,196,,,,,,,,
,,,,,,,,29,2021-12-06_09h58.48.412,premceCat2_ses-02_part-02_label-phase2,2020.2.10,MacIntel,60,,,,,right,2.1685,1,0.5338,,,,,,,,0,9,9,89,1,stimuli/objects/saladspinner.jpg,left,old,233,,,,,,,,
,,,,,,,,29,2021-12-06_09h58.48.412,premceCat2_ses-02_part-02_label-phase2,2020.2.10,MacIntel,60,,,,,right,1.2645,2,0.8026,,,,,,,,0,10,10,35,1,stimuli/objects/stroller.jpg,right,new,179,,,,,,,,
,,,,,,,,29,2021-12-06_09h58.48.412,premceCat2_ses-02_part-02_label-phase2,2020.2.10,MacIntel,60,,,,,left,1.3549,3,0.5668,left,0.9161,0,0,0,0,1,,,,,,,,,,,,,,,,,
,,,,,,,,29,2021-12-06_09h58.48.412,premceCat2_ses-02_part-02_label-phase2,2020.2.10,MacIntel,60,,,,,,,,,,,,,,,,0,11,11,1,1,stimuli/objects/photocopier.jpg,left,old,145,,,,,,,,
,,,,,,,,29,2021-12-06_09h58.48.412,premceCat2_ses-02_part-02_label-phase2,2020.2.10,MacIntel,60,,,,,right,2.1364,3,0.7425,,,,,,,,0,12,12,87,1,stimuli/objects/wiicontroller.jpg,right,new,231,,,,,,,,
,,,,,,,,29,2021-12-06_09h58.48.412,premceCat2_ses-02_part-02_label-phase2,2020.2.10,MacIntel,60,,,,,left,1.6086,3,0.3039,left,0.6339,0,0,0,0,1,,,,,,,,,,,,,,,,,
,,,,,,,,29,2021-12-06_09h58.48.412,premceCat2_ses-02_part-02_label-phase2,2020.2.10,MacIntel,60,,,,,,,,,,,,,,,,0,13,13,122,1,stimuli/objects/hockeystick.jpg,right,new,266,,,,,,,,
,,,,,,,,29,2021-12-06_09h58.48.412,premceCat2_ses-02_part-02_label-phase2,2020.2.10,MacIntel,60,,,,,right,3.1156,2,0.8185,,,,,,,,0,14,14,66,1,stimuli/objects/heatpump.jpg,right,new,210,,,,,,,,
,,,,,,,,29,2021-12-06_09h58.48.412,premceCat2_ses-02_part-02_label-phase2,2020.2.10,MacIntel,60,,,,,right,1.3175,3,0.4379,,,,,,,,0,15,15,68,1,stimuli/objects/ladle02a.jpg,right,new,212,,,,,,,,
,,,,,,,,29,2021-12-06_09h58.48.412,premceCat2_ses-02_part-02_label-phase2,2020.2.10,MacIntel,60,,,,,right,1.3545,2,0.4696,,,,,,,,0,16,16,55,1,stimuli/objects/fonduefork01.jpg,right,new,199,,,,,,,,
,,,,,,,,29,2021-12-06_09h58.48.412,premceCat2_ses-02_part-02_label-phase2,2020.2.10,MacIntel,60,,,,,left,0.9165,4,0.2513,left,0.9448,0,0,0,0,1,,,,,,,,,,,,,,,,,
,,,,,,,,29,2021-12-06_09h58.48.412,premceCat2_ses-02_part-02_label-phase2,2020.2.10,MacIntel,60,,,,,,,,,,,,,,,,0,17,17,74,1,stimuli/objects/shinpad.jpg,left,old,218,,,,,,,,
,,,,,,,,29,2021-12-06_09h58.48.412,premceCat2_ses-02_part-02_label-phase2,2020.2.10,MacIntel,60,,,,,right,0.9228,2,0.421,,,,,,,,0,18,18,123,1,stimuli/objects/jackhammer.jpg,right,new,267,,,,,,,,
,,,,,,,,29,2021-12-06_09h58.48.412,premceCat2_ses-02_part-02_label-phase2,2020.2.10,MacIntel,60,,,,,left,0.898,4,0.0689,right,1.3215,0,0,0,0,1,,,,,,,,,,,,,,,,,
,,,,,,,,29,2021-12-06_09h58.48.412,premceCat2_ses-02_part-02_label-phase2,2020.2.10,MacIntel,60,,,,,,,,,,,,,,,,0,19,19,72,1,stimuli/objects/axe01.jpg,left,old,216,,,,,,,,
,,,,,,,,29,2021-12-06_09h58.48.412,premceCat2_ses-02_part-02_label-phase2,2020.2.10,MacIntel,60,,,,,left,0.6828,4,0.3053,left,0.3215,0,0,0,0,1,,,,,,,,,,,,,,,,,
,,,,,,,,29,2021-12-06_09h58.48.412,premceCat2_ses-02_part-02_label-phase2,2020.2.10,MacIntel,60,,,,,,,,,,,,,,,,0,20,20,126,1,stimuli/objects/badmintonracket.jpg,left,old,270,,,,,,,,
,,,,,,,,29,2021-12-06_09h58.48.412,premceCat2_ses-02_part-02_label-phase2,2020.2.10,MacIntel,60,,,,,left,2.0924,4,0.0677,left,0.8734,0,0,0,0,1,,,,,,,,,,,,,,,,,
,,,,,,,,29,2021-12-06_09h58.48.412,premceCat2_ses-02_part-02_label-phase2,2020.2.10,MacIntel,60,,,,,,,,,,,,,,,,0,21,21,63,1,stimuli/objects/woodenspoon.jpg,left,old,207,,,,,,,,
,,,,,,,,29,2021-12-06_09h58.48.412,premceCat2_ses-02_part-02_label-phase2,2020.2.10,MacIntel,60,,,,,right,1.153,4,0.1607,,,,,,,,0,22,22,9,1,stimuli/objects/alarmsystem.jpg,right,new,153,,,,,,,,
,,,,,,,,29,2021-12-06_09h58.48.412,premceCat2_ses-02_part-02_label-phase2,2020.2.10,MacIntel,60,,,,,right,1.3058,2,0.2187,,,,,,,,0,23,23,34,1,stimuli/objects/kneepad01c.jpg,right,new,178,,,,,,,,
,,,,,,,,29,2021-12-06_09h58.48.412,premceCat2_ses-02_part-02_label-phase2,2020.2.10,MacIntel,60,,,,,left,0.725,4,0.0883,right,0.4355,0,0,0,0,1,,,,,,,,,,,,,,,,,
,,,,,,,,29,2021-12-06_09h58.48.412,premceCat2_ses-02_part-02_label-phase2,2020.2.10,MacIntel,60,,,,,,,,,,,,,,,,0,24,24,92,1,stimuli/objects/leafrake.jpg,left,old,236,,,,,,,,
,,,,,,,,29,2021-12-06_09h58.48.412,premceCat2_ses-02_part-02_label-phase2,2020.2.10,MacIntel,60,,,,,left,0.9175,4,0.186,left,0.6323,0,0,0,0,1,,,,,,,,,,,,,,,,,
,,,,,,,,29,2021-12-06_09h58.48.412,premceCat2_ses-02_part-02_label-phase2,2020.2.10,MacIntel,60,,,,,,,,,,,,,,,,0,25,25,8,1,stimuli/objects/wheel01.jpg,left,old,152,,,,,,,,
,,,,,,,,29,2021-12-06_09h58.48.412,premceCat2_ses-02_part-02_label-phase2,2020.2.10,MacIntel,60,,,,,left,1.555,4,0.2005,right,0.7186,0,0,0,0,1,,,,,,,,,,,,,,,,,
,,,,,,,,29,2021-12-06_09h58.48.412,premceCat2_ses-02_part-02_label-phase2,2020.2.10,MacIntel,60,,,,,,,,,,,,,,,,0,26,26,106,1,stimuli/objects/nintendods.jpg,left,old,250,,,,,,,,
,,,,,,,,29,2021-12-06_09h58.48.412,premceCat2_ses-02_part-02_label-phase2,2020.2.10,MacIntel,60,,,,,left,1.6179,4,0.2868,left,0.8008,0,0,0,0,1,,,,,,,,,,,,,,,,,
,,,,,,,,29,2021-12-06_09h58.48.412,premceCat2_ses-02_part-02_label-phase2,2020.2.10,MacIntel,60,,,,,,,,,,,,,,,,0,27,27,14,1,stimuli/objects/boatmotor.jpg,left,old,158,,,,,,,,
,,,,,,,,29,2021-12-06_09h58.48.412,premceCat2_ses-02_part-02_label-phase2,2020.2.10,MacIntel,60,,,,,left,1.1207,4,0.678,left,1.0174,0,0,0,0,1,,,,,,,,,,,,,,,,,
,,,,,,,,29,2021-12-06_09h58.48.412,premceCat2_ses-02_part-02_label-phase2,2020.2.10,MacIntel,60,,,,,,,,,,,,,,,,0,28,28,32,1,stimuli/objects/pastaspoon.jpg,left,old,176,,,,,,,,
,,,,,,,,29,2021-12-06_09h58.48.412,premceCat2_ses-02_part-02_label-phase2,2020.2.10,MacIntel,60,,,,,left,0.7225,2,2.1261,right,0.832,0,0,0,0,1,,,,,,,,,,,,,,,,,
,,,,,,,,29,2021-12-06_09h58.48.412,premceCat2_ses-02_part-02_label-phase2,2020.2.10,MacIntel,60,,,,,,,,,,,,,,,,0,29,29,104,1,stimuli/objects/lamp04a.jpg,left,old,248,,,,,,,,
,,,,,,,,29,2021-12-06_09h58.48.412,premceCat2_ses-02_part-02_label-phase2,2020.2.10,MacIntel,60,,,,,left,1.8815,4,0.2541,right,0.3541,0,0,0,0,1,,,,,,,,,,,,,,,,,
,,,,,,,,29,2021-12-06_09h58.48.412,premceCat2_ses-02_part-02_label-phase2,2020.2.10,MacIntel,60,,,,,,,,,,,,,,,,0,30,30,18,1,stimuli/objects/cellphone.jpg,left,old,162,,,,,,,,
,,,,,,,,29,2021-12-06_09h58.48.412,premceCat2_ses-02_part-02_label-phase2,2020.2.10,MacIntel,60,,,,,left,0.8077,4,0.1446,left,0.559,0,0,0,0,1,,,,,,,,,,,,,,,,,
,,,,,,,,29,2021-12-06_09h58.48.412,premceCat2_ses-02_part-02_label-phase2,2020.2.10,MacIntel,60,,,,,,,,,,,,,,,,0,31,31,56,1,stimuli/objects/tupperware03a.jpg,left,old,200,,,,,,,,
,,,,,,,,29,2021-12-06_09h58.48.412,premceCat2_ses-02_part-02_label-phase2,2020.2.10,MacIntel,60,,,,,right,1.1422,2,0.5426,,,,,,,,0,32,32,116,1,stimuli/objects/lockingplier.jpg,right,new,260,,,,,,,,
,,,,,,,,29,2021-12-06_09h58.48.412,premceCat2_ses-02_part-02_label-phase2,2020.2.10,MacIntel,60,,,,,right,2.8348,2,0.2716,,,,,,,,0,33,33,44,1,stimuli/objects/toaster01.jpg,right,new,188,,,,,,,,
,,,,,,,,29,2021-12-06_09h58.48.412,premceCat2_ses-02_part-02_label-phase2,2020.2.10,MacIntel,60,,,,,left,0.8877,4,0.2249,left,2.2132,0,0,0,0,1,,,,,,,,,,,,,,,,,
,,,,,,,,29,2021-12-06_09h58.48.412,premceCat2_ses-02_part-02_label-phase2,2020.2.10,MacIntel,60,,,,,,,,,,,,,,,,0,34,34,139,1,stimuli/objects/toothpick02.jpg,left,old,283,,,,,,,,
,,,,,,,,29,2021-12-06_09h58.48.412,premceCat2_ses-02_part-02_label-phase2,2020.2.10,MacIntel,60,,,,,left,1.516,2,0.4337,right,0.8342,0,0,0,0,1,,,,,,,,,,,,,,,,,
,,,,,,,,29,2021-12-06_09h58.48.412,premceCat2_ses-02_part-02_label-phase2,2020.2.10,MacIntel,60,,,,,,,,,,,,,,,,0,35,35,38,1,stimuli/objects/espressomachine.jpg,left,old,182,,,,,,,,
,,,,,,,,29,2021-12-06_09h58.48.412,premceCat2_ses-02_part-02_label-phase2,2020.2.10,MacIntel,60,,,,,right,1.403,2,0.3369,,,,,,,,0,36,36,94,1,stimuli/objects/file.jpg,right,new,238,,,,,,,,
,,,,,,,,29,2021-12-06_09h58.48.412,premceCat2_ses-02_part-02_label-phase2,2020.2.10,MacIntel,60,,,,,left,1.2199,4,0.0389,left,0.4551,0,0,0,0,1,,,,,,,,,,,,,,,,,
,,,,,,,,29,2021-12-06_09h58.48.412,premceCat2_ses-02_part-02_label-phase2,2020.2.10,MacIntel,60,,,,,,,,,,,,,,,,0,37,37,115,1,stimuli/objects/towel01.jpg,left,old,259,,,,,,,,
,,,,,,,,29,2021-12-06_09h58.48.412,premceCat2_ses-02_part-02_label-phase2,2020.2.10,MacIntel,60,,,,,right,1.1637,4,0.154,,,,,,,,0,38,38,59,1,stimuli/objects/speedball.jpg,right,new,203,,,,,,,,
,,,,,,,,29,2021-12-06_09h58.48.412,premceCat2_ses-02_part-02_label-phase2,2020.2.10,MacIntel,60,,,,,right,0.9537,4,0.0062,,,,,,,,0,39,39,15,1,stimuli/objects/computermouse06.jpg,right,new,159,,,,,,,,
,,,,,,,,29,2021-12-06_09h58.48.412,premceCat2_ses-02_part-02_label-phase2,2020.2.10,MacIntel,60,,,,,right,1.1182,2,0.799,,,,,,,,0,40,40,80,1,stimuli/objects/barbecue03.jpg,right,new,224,,,,,,,,
,,,,,,,,29,2021-12-06_09h58.48.412,premceCat2_ses-02_part-02_label-phase2,2020.2.10,MacIntel,60,,,,,right,1.4879,3,0.4531,,,,,,,,0,41,41,102,1,stimuli/objects/beachumbrella01.jpg,right,new,246,,,,,,,,
,,,,,,,,29,2021-12-06_09h58.48.412,premceCat2_ses-02_part-02_label-phase2,2020.2.10,MacIntel,60,,,,,right,1.431,3,0.7545,,,,,,,,0,42,42,138,1,stimuli/objects/beermug01a.jpg,right,new,282,,,,,,,,
,,,,,,,,29,2021-12-06_09h58.48.412,premceCat2_ses-02_part-02_label-phase2,2020.2.10,MacIntel,60,,,,,left,0.8646,4,0.0351,right,1.0861,0,0,0,0,1,,,,,,,,,,,,,,,,,
,,,,,,,,29,2021-12-06_09h58.48.412,premceCat2_ses-02_part-02_label-phase2,2020.2.10,MacIntel,60,,,,,,,,,,,,,,,,0,43,43,134,1,stimuli/objects/chandelier.jpg,left,old,278,,,,,,,,
,,,,,,,,29,2021-12-06_09h58.48.412,premceCat2_ses-02_part-02_label-phase2,2020.2.10,MacIntel,60,,,,,right,1.1811,3,0.6763,,,,,,,,0,44,44,78,1,stimuli/objects/lightswitch01.jpg,right,new,222,,,,,,,,
,,,,,,,,29,2021-12-06_09h58.48.412,premceCat2_ses-02_part-02_label-phase2,2020.2.10,MacIntel,60,,,,,right,1.5507,3,0.3977,,,,,,,,0,45,45,30,1,stimuli/objects/halogenlightbulb.jpg,right,new,174,,,,,,,,
,,,,,,,,29,2021-12-06_09h58.48.412,premceCat2_ses-02_part-02_label-phase2,2020.2.10,MacIntel,60,,,,,left,1.2158,4,0.0005,right,0.6362,0,0,0,0,1,,,,,,,,,,,,,,,,,
,,,,,,,,29,2021-12-06_09h58.48.412,premceCat2_ses-02_part-02_label-phase2,2020.2.10,MacIntel,60,,,,,,,,,,,,,,,,0,46,46,37,1,stimuli/objects/carantenna.jpg,left,old,181,,,,,,,,
,,,,,,,,29,2021-12-06_09h58.48.412,premceCat2_ses-02_part-02_label-phase2,2020.2.10,MacIntel,60,,,,,right,1.0326,2,0.1317,,,,,,,,0,47,47,65,1,stimuli/objects/jigsaw.jpg,left,old,209,,,,,,,,
,,,,,,,,29,2021-12-06_09h58.48.412,premceCat2_ses-02_part-02_label-phase2,2020.2.10,MacIntel,60,,,,,right,1.5338,3,0.4368,,,,,,,,0,48,48,26,1,stimuli/objects/flashlight02b.jpg,right,new,170,,,,,,,,
,,,,,,,,29,2021-12-06_09h58.48.412,premceCat2_ses-02_part-02_label-phase2,2020.2.10,MacIntel,60,,,,,left,1.1461,4,0.2204,left,0.32,0,0,0,0,1,,,,,,,,,,,,,,,,,
,,,,,,,,29,2021-12-06_09h58.48.412,premceCat2_ses-02_part-02_label-phase2,2020.2.10,MacIntel,60,,,,,,,,,,,,,,,,0,49,49,23,1,stimuli/objects/hockeypuck.jpg,left,old,167,,,,,,,,
,,,,,,,,29,2021-12-06_09h58.48.412,premceCat2_ses-02_part-02_label-phase2,2020.2.10,MacIntel,60,,,,,left,1.0303,3,0.2026,left,0.6718,0,0,0,0,1,,,,,,,,,,,,,,,,,
,,,,,,,,29,2021-12-06_09h58.48.412,premceCat2_ses-02_part-02_label-phase2,2020.2.10,MacIntel,60,,,,,,,,,,,,,,,,0,50,50,21,1,stimuli/objects/boltcutter.jpg,left,old,165,,,,,,,,
,,,,,,,,29,2021-12-06_09h58.48.412,premceCat2_ses-02_part-02_label-phase2,2020.2.10,MacIntel,60,,,,,right,1.6865,2,0.0512,,,,,,,,0,51,51,48,1,stimuli/objects/eggslicer.jpg,right,new,192,,,,,,,,
,,,,,,,,29,2021-12-06_09h58.48.412,premceCat2_ses-02_part-02_label-phase2,2020.2.10,MacIntel,60,,,,,left,1.9471,2,0.2884,right,2.7571,0,0,0,0,1,,,,,,,,,,,,,,,,,
,,,,,,,,29,2021-12-06_09h58.48.412,premceCat2_ses-02_part-02_label-phase2,2020.2.10,MacIntel,60,,,,,,,,,,,,,,,,0,52,52,131,1,stimuli/objects/handblender.jpg,right,new,275,,,,,,,,
,,,,,,,,29,2021-12-06_09h58.48.412,premceCat2_ses-02_part-02_label-phase2,2020.2.10,MacIntel,60,,,,,right,1.2817,2,1.1033,,,,,,,,0,53,53,81,1,stimuli/objects/grill.jpg,right,new,225,,,,,,,,
,,,,,,,,29,2021-12-06_09h58.48.412,premceCat2_ses-02_part-02_label-phase2,2020.2.10,MacIntel,60,,,,,left,1.0975,4,0.1769,left,0.0846,0,0,0,0,1,,,,,,,,,,,,,,,,,
,,,,,,,,29,2021-12-06_09h58.48.412,premceCat2_ses-02_part-02_label-phase2,2020.2.10,MacIntel,60,,,,,,,,,,,,,,,,0,54,54,113,1,stimuli/objects/gluetube.jpg,left,old,257,,,,,,,,
,,,,,,,,29,2021-12-06_09h58.48.412,premceCat2_ses-02_part-02_label-phase2,2020.2.10,MacIntel,60,,,,,left,1.0871,3,0.8388,left,0.4912,0,0,0,0,1,,,,,,,,,,,,,,,,,
,,,,,,,,29,2021-12-06_09h58.48.412,premceCat2_ses-02_part-02_label-phase2,2020.2.10,MacIntel,60,,,,,,,,,,,,,,,,0,55,55,71,1,stimuli/objects/handgripper.jpg,left,old,215,,,,,,,,
,,,,,,,,29,2021-12-06_09h58.48.412,premceCat2_ses-02_part-02_label-phase2,2020.2.10,MacIntel,60,,,,,left,1.6516,4,0.1946,left,0.5202,0,0,0,0,1,,,,,,,,,,,,,,,,,
,,,,,,,,29,2021-12-06_09h58.48.412,premceCat2_ses-02_part-02_label-phase2,2020.2.10,MacIntel,60,,,,,,,,,,,,,,,,0,56,56,17,1,stimuli/objects/bikelock.jpg,left,old,161,,,,,,,,
,,,,,,,,29,2021-12-06_09h58.48.412,premceCat2_ses-02_part-02_label-phase2,2020.2.10,MacIntel,60,,,,,left,1.4353,2,0.0542,left,0.8364,0,0,0,0,1,,,,,,,,,,,,,,,,,
,,,,,,,,29,2021-12-06_09h58.48.412,premceCat2_ses-02_part-02_label-phase2,2020.2.10,MacIntel,60,,,,,,,,,,,,,,,,0,57,57,83,1,stimuli/objects/icecubetray01a.jpg,right,new,227,,,,,,,,
,,,,,,,,29,2021-12-06_09h58.48.412,premceCat2_ses-02_part-02_label-phase2,2020.2.10,MacIntel,60,,,,,right,1.3651,3,0.226,,,,,,,,0,58,58,129,1,stimuli/objects/snowblower.jpg,left,old,273,,,,,,,,
,,,,,,,,29,2021-12-06_09h58.48.412,premceCat2_ses-02_part-02_label-phase2,2020.2.10,MacIntel,60,,,,,left,1.6464,2,0.6669,right,1.651,0,0,0,0,1,,,,,,,,,,,,,,,,,
,,,,,,,,29,2021-12-06_09h58.48.412,premceCat2_ses-02_part-02_label-phase2,2020.2.10,MacIntel,60,,,,,,,,,,,,,,,,0,59,59,64,1,stimuli/objects/volleyball.jpg,left,old,208,,,,,,,,
,,,,,,,,29,2021-12-06_09h58.48.412,premceCat2_ses-02_part-02_label-phase2,2020.2.10,MacIntel,60,,,,,right,1.8027,2,0.0005,,,,,,,,0,60,60,3,1,stimuli/objects/boxingglove01.jpg,right,new,147,,,,,,,,
,,,,,,,,29,2021-12-06_09h58.48.412,premceCat2_ses-02_part-02_label-phase2,2020.2.10,MacIntel,60,,,,,right,1.0712,4,0.0006,,,,,,,,0,61,61,101,1,stimuli/objects/lifejacket.jpg,right,new,245,,,,,,,,
,,,,,,,,29,2021-12-06_09h58.48.412,premceCat2_ses-02_part-02_label-phase2,2020.2.10,MacIntel,60,,,,,left,1.1663,4,0.7753,right,1.0438,0,0,0,0,1,,,,,,,,,,,,,,,,,
,,,,,,,,29,2021-12-06_09h58.48.412,premceCat2_ses-02_part-02_label-phase2,2020.2.10,MacIntel,60,,,,,,,,,,,,,,,,0,62,62,62,1,stimuli/objects/hourglass.jpg,left,old,206,,,,,,,,
,,,,,,,,29,2021-12-06_09h58.48.412,premceCat2_ses-02_part-02_label-phase2,2020.2.10,MacIntel,60,,,,,right,2.2581,2,0.5444,,,,,,,,0,63,63,27,1,stimuli/objects/hedgeshears.jpg,left,old,171,,,,,,,,
,,,,,,,,29,2021-12-06_09h58.48.412,premceCat2_ses-02_part-02_label-phase2,2020.2.10,MacIntel,60,,,,,left,2.8871,2,0.328,left,0.4933,0,0,0,0,1,,,,,,,,,,,,,,,,,
,,,,,,,,29,2021-12-06_09h58.48.412,premceCat2_ses-02_part-02_label-phase2,2020.2.10,MacIntel,60,,,,,,,,,,,,,,,,0,64,64,118,1,stimuli/objects/gardenshears01a.jpg,left,old,262,,,,,,,,
,,,,,,,,29,2021-12-06_09h58.48.412,premceCat2_ses-02_part-02_label-phase2,2020.2.10,MacIntel,60,,,,,left,1.6097,4,0.5743,left,1.7355,0,0,0,0,1,,,,,,,,,,,,,,,,,
,,,,,,,,29,2021-12-06_09h58.48.412,premceCat2_ses-02_part-02_label-phase2,2020.2.10,MacIntel,60,,,,,,,,,,,,,,,,0,65,65,53,1,stimuli/objects/tape02a.jpg,left,old,197,,,,,,,,
,,,,,,,,29,2021-12-06_09h58.48.412,premceCat2_ses-02_part-02_label-phase2,2020.2.10,MacIntel,60,,,,,right,2.7638,2,0.0858,,,,,,,,0,66,66,114,1,stimuli/objects/drinkshaker.jpg,right,new,258,,,,,,,,
,,,,,,,,29,2021-12-06_09h58.48.412,premceCat2_ses-02_part-02_label-phase2,2020.2.10,MacIntel,60,,,,,right,1.4301,3,0.6503,,,,,,,,0,67,67,10,1,stimuli/objects/skihelmet01.jpg,left,old,154,,,,,,,,
,,,,,,,,29,2021-12-06_09h58.48.412,premceCat2_ses-02_part-02_label-phase2,2020.2.10,MacIntel,60,,,,,left,0.9859,4,0.2238,right,0.3519,0,0,0,0,1,,,,,,,,,,,,,,,,,
,,,,,,,,29,2021-12-06_09h58.48.412,premceCat2_ses-02_part-02_label-phase2,2020.2.10,MacIntel,60,,,,,,,,,,,,,,,,0,68,68,28,1,stimuli/objects/spoon01.jpg,left,old,172,,,,,,,,
,,,,,,,,29,2021-12-06_09h58.48.412,premceCat2_ses-02_part-02_label-phase2,2020.2.10,MacIntel,60,,,,,left,1.1178,4,0.2228,left,0.7213,0,0,0,0,1,,,,,,,,,,,,,,,,,
,,,,,,,,29,2021-12-06_09h58.48.412,premceCat2_ses-02_part-02_label-phase2,2020.2.10,MacIntel,60,,,,,,,,,,,,,,,,0,69,69,43,1,stimuli/objects/bowrake.jpg,right,new,187,,,,,,,,
,,,,,,,,29,2021-12-06_09h58.48.412,premceCat2_ses-02_part-02_label-phase2,2020.2.10,MacIntel,60,,,,,right,1.0851,2,0.0216,,,,,,,,0,70,70,107,1,stimuli/objects/dolly01.jpg,right,new,251,,,,,,,,
,,,,,,,,29,2021-12-06_09h58.48.412,premceCat2_ses-02_part-02_label-phase2,2020.2.10,MacIntel,60,,,,,right,1.5324,2,1.0576,,,,,,,,0,71,71,46,1,stimuli/objects/waterbottleholder.jpg,right,new,190,,,,,,,,
,,,,,,,,29,2021-12-06_09h58.48.412,premceCat2_ses-02_part-02_label-phase2,2020.2.10,MacIntel,60,,,,,right,1.5158,1,0.807,,,,,,,,0,72,72,90,1,stimuli/objects/toyhockeystick01.jpg,left,old,234,,,,,,,,
,,,,,,,,29,2021-12-06_09h58.48.412,premceCat2_ses-02_part-02_label-phase2,2020.2.10,MacIntel,60,,,,,right,1.4511,3,1.2538,,,,,,,,0,73,73,137,1,stimuli/objects/nutcracker01.jpg,right,new,281,,,,,,,,
,,,,,,,,29,2021-12-06_09h58.48.412,premceCat2_ses-02_part-02_label-phase2,2020.2.10,MacIntel,60,,,,,right,1.0207,4,0.3226,,,,,,,,0,74,74,120,1,stimuli/objects/tent.jpg,right,new,264,,,,,,,,
,,,,,,,,29,2021-12-06_09h58.48.412,premceCat2_ses-02_part-02_label-phase2,2020.2.10,MacIntel,60,,,,,right,0.8685,4,0.5424,,,,,,,,0,75,75,121,1,stimuli/objects/parachute.jpg,right,new,265,,,,,,,,
,,,,,,,,29,2021-12-06_09h58.48.412,premceCat2_ses-02_part-02_label-phase2,2020.2.10,MacIntel,60,,,,,right,1.3659,2,0.5858,,,,,,,,0,76,76,76,1,stimuli/objects/extensioncord.jpg,left,old,220,,,,,,,,
,,,,,,,,29,2021-12-06_09h58.48.412,premceCat2_ses-02_part-02_label-phase2,2020.2.10,MacIntel,60,,,,,right,1.2226,4,1.4011,,,,,,,,0,77,77,41,1,stimuli/objects/flask.jpg,right,new,185,,,,,,,,
,,,,,,,,29,2021-12-06_09h58.48.412,premceCat2_ses-02_part-02_label-phase2,2020.2.10,MacIntel,60,,,,,left,1.2996,4,0.2039,right,1.235,0,0,0,0,1,,,,,,,,,,,,,,,,,
,,,,,,,,29,2021-12-06_09h58.48.412,premceCat2_ses-02_part-02_label-phase2,2020.2.10,MacIntel,60,,,,,,,,,,,,,,,,0,78,78,119,1,stimuli/objects/cleaver01.jpg,left,old,263,,,,,,,,
,,,,,,,,29,2021-12-06_09h58.48.412,premceCat2_ses-02_part-02_label-phase2,2020.2.10,MacIntel,60,,,,,right,1.3336,2,0.7009,,,,,,,,0,79,79,142,1,stimuli/objects/needlenosepliers01.jpg,right,new,286,,,,,,,,
,,,,,,,,29,2021-12-06_09h58.48.412,premceCat2_ses-02_part-02_label-phase2,2020.2.10,MacIntel,60,,,,,right,1.082,1,1.2405,,,,,,,,0,80,80,105,1,stimuli/objects/gasburner.jpg,left,old,249,,,,,,,,
,,,,,,,,29,2021-12-06_09h58.48.412,premceCat2_ses-02_part-02_label-phase2,2020.2.10,MacIntel,60,,,,,right,1.8121,4,0.0686,,,,,,,,0,81,81,124,1,stimuli/objects/basketball01.jpg,right,new,268,,,,,,,,
,,,,,,,,29,2021-12-06_09h58.48.412,premceCat2_ses-02_part-02_label-phase2,2020.2.10,MacIntel,60,,,,,left,1.3157,4,0.6079,right,1.1672,0,0,0,0,1,,,,,,,,,,,,,,,,,
,,,,,,,,29,2021-12-06_09h58.48.412,premceCat2_ses-02_part-02_label-phase2,2020.2.10,MacIntel,60,,,,,,,,,,,,,,,,0,82,82,84,1,stimuli/objects/patioumbrella.jpg,left,old,228,,,,,,,,
,,,,,,,,29,2021-12-06_09h58.48.412,premceCat2_ses-02_part-02_label-phase2,2020.2.10,MacIntel,60,,,,,right,0.9802,4,0.4031,,,,,,,,0,83,83,24,1,stimuli/objects/monitor.jpg,right,new,168,,,,,,,,
,,,,,,,,29,2021-12-06_09h58.48.412,premceCat2_ses-02_part-02_label-phase2,2020.2.10,MacIntel,60,,,,,right,0.9033,2,0.2392,,,,,,,,0,84,84,61,1,stimuli/objects/wateringcan.jpg,left,old,205,,,,,,,,
,,,,,,,,29,2021-12-06_09h58.48.412,premceCat2_ses-02_part-02_label-phase2,2020.2.10,MacIntel,60,,,,,left,0.9338,3,0.4819,left,0.7362,0,0,0,0,1,,,,,,,,,,,,,,,,,
,,,,,,,,29,2021-12-06_09h58.48.412,premceCat2_ses-02_part-02_label-phase2,2020.2.10,MacIntel,60,,,,,,,,,,,,,,,,0,85,85,31,1,stimuli/objects/hockeygoaliemask.jpg,left,old,175,,,,,,,,
,,,,,,,,29,2021-12-06_09h58.48.412,premceCat2_ses-02_part-02_label-phase2,2020.2.10,MacIntel,60,,,,,right,2.6731,2,1.0058,,,,,,,,0,86,86,103,1,stimuli/objects/swissarmyknife01a.jpg,right,new,247,,,,,,,,
,,,,,,,,29,2021-12-06_09h58.48.412,premceCat2_ses-02_part-02_label-phase2,2020.2.10,MacIntel,60,,,,,left,1.165,4,3.3326,right,1.1899,0,0,0,0,1,,,,,,,,,,,,,,,,,
,,,,,,,,29,2021-12-06_09h58.48.412,premceCat2_ses-02_part-02_label-phase2,2020.2.10,MacIntel,60,,,,,,,,,,,,,,,,0,87,87,33,1,stimuli/objects/gps.jpg,left,old,177,,,,,,,,
,,,,,,,,29,2021-12-06_09h58.48.412,premceCat2_ses-02_part-02_label-phase2,2020.2.10,MacIntel,60,,,,,right,1.9144,2,0.518,,,,,,,,0,88,88,69,1,stimuli/objects/straw.jpg,right,new,213,,,,,,,,
,,,,,,,,29,2021-12-06_09h58.48.412,premceCat2_ses-02_part-02_label-phase2,2020.2.10,MacIntel,60,,,,,left,1.4175,4,0.1347,left,0.7982,0,0,0,0,1,,,,,,,,,,,,,,,,,
,,,,,,,,29,2021-12-06_09h58.48.412,premceCat2_ses-02_part-02_label-phase2,2020.2.10,MacIntel,60,,,,,,,,,,,,,,,,0,89,89,13,1,stimuli/objects/jumpercables.jpg,left,old,157,,,,,,,,
,,,,,,,,29,2021-12-06_09h58.48.412,premceCat2_ses-02_part-02_label-phase2,2020.2.10,MacIntel,60,,,,,left,1.6352,4,0.1667,right,0.743,0,0,0,0,1,,,,,,,,,,,,,,,,,
,,,,,,,,29,2021-12-06_09h58.48.412,premceCat2_ses-02_part-02_label-phase2,2020.2.10,MacIntel,60,,,,,,,,,,,,,,,,0,90,90,22,1,stimuli/objects/hoe.jpg,left,old,166,,,,,,,,
,,,,,,,,29,2021-12-06_09h58.48.412,premceCat2_ses-02_part-02_label-phase2,2020.2.10,MacIntel,60,,,,,right,1.3148,2,0.0004,,,,,,,,0,91,91,49,1,stimuli/objects/cakeplatter.jpg,right,new,193,,,,,,,,
,,,,,,,,29,2021-12-06_09h58.48.412,premceCat2_ses-02_part-02_label-phase2,2020.2.10,MacIntel,60,,,,,right,1.2521,4,0.1872,,,,,,,,0,92,92,60,1,stimuli/objects/kite.jpg,right,new,204,,,,,,,,
,,,,,,,,29,2021-12-06_09h58.48.412,premceCat2_ses-02_part-02_label-phase2,2020.2.10,MacIntel,60,,,,,right,1.2034,2,0.3183,,,,,,,,0,93,93,36,1,stimuli/objects/loppingshears.jpg,right,new,180,,,,,,,,
,,,,,,,,29,2021-12-06_09h58.48.412,premceCat2_ses-02_part-02_label-phase2,2020.2.10,MacIntel,60,,,,,right,1.4619,2,0.306,,,,,,,,0,94,94,0,1,stimuli/objects/smokedetector02.jpg,right,new,144,,,,,,,,
,,,,,,,,29,2021-12-06_09h58.48.412,premceCat2_ses-02_part-02_label-phase2,2020.2.10,MacIntel,60,,,,,left,0.9201,4,0.0005,right,1.1056,0,0,0,0,1,,,,,,,,,,,,,,,,,
,,,,,,,,29,2021-12-06_09h58.48.412,premceCat2_ses-02_part-02_label-phase2,2020.2.10,MacIntel,60,,,,,,,,,,,,,,,,0,95,95,79,1,stimuli/objects/bikewheel.jpg,left,old,223,,,,,,,,
,,,,,,,,29,2021-12-06_09h58.48.412,premceCat2_ses-02_part-02_label-phase2,2020.2.10,MacIntel,60,,,,,right,1.2009,2,0.4073,,,,,,,,0,96,96,135,1,stimuli/objects/mortarandpestle.jpg,right,new,279,,,,,,,,
,,,,,,,,29,2021-12-06_09h58.48.412,premceCat2_ses-02_part-02_label-phase2,2020.2.10,MacIntel,60,,,,,right,0.9481,4,0.26,,,,,,,,0,97,97,86,1,stimuli/objects/trampoline.jpg,right,new,230,,,,,,,,
,,,,,,,,29,2021-12-06_09h58.48.412,premceCat2_ses-02_part-02_label-phase2,2020.2.10,MacIntel,60,,,,,right,2.1498,2,0.3016,,,,,,,,0,98,98,108,1,stimuli/objects/crocodileclips.jpg,left,old,252,,,,,,,,
,,,,,,,,29,2021-12-06_09h58.48.412,premceCat2_ses-02_part-02_label-phase2,2020.2.10,MacIntel,60,,,,,right,1.2988,2,0.2209,,,,,,,,0,99,99,91,1,stimuli/objects/cuttingpliers02.jpg,right,new,235,,,,,,,,
,,,,,,,,29,2021-12-06_09h58.48.412,premceCat2_ses-02_part-02_label-phase2,2020.2.10,MacIntel,60,,,,,left,1.2659,4,0.2266,right,1.6549,0,0,0,0,1,,,,,,,,,,,,,,,,,
,,,,,,,,29,2021-12-06_09h58.48.412,premceCat2_ses-02_part-02_label-phase2,2020.2.10,MacIntel,60,,,,,,,,,,,,,,,,0,100,100,141,1,stimuli/objects/spatula04.jpg,left,old,285,,,,,,,,
,,,,,,,,29,2021-12-06_09h58.48.412,premceCat2_ses-02_part-02_label-phase2,2020.2.10,MacIntel,60,,,,,left,1.4273,2,0.3043,left,0.3222,0,0,0,0,1,,,,,,,,,,,,,,,,,
,,,,,,,,29,2021-12-06_09h58.48.412,premceCat2_ses-02_part-02_label-phase2,2020.2.10,MacIntel,60,,,,,,,,,,,,,,,,0,101,101,19,1,stimuli/objects/mug01.jpg,right,new,163,,,,,,,,
,,,,,,,,29,2021-12-06_09h58.48.412,premceCat2_ses-02_part-02_label-phase2,2020.2.10,MacIntel,60,,,,,left,2.0005,3,1.2235,left,0.176,0,0,0,0,1,,,,,,,,,,,,,,,,,
,,,,,,,,29,2021-12-06_09h58.48.412,premceCat2_ses-02_part-02_label-phase2,2020.2.10,MacIntel,60,,,,,,,,,,,,,,,,0,102,102,97,1,stimuli/objects/coffeepot03a.jpg,left,old,241,,,,,,,,
,,,,,,,,29,2021-12-06_09h58.48.412,premceCat2_ses-02_part-02_label-phase2,2020.2.10,MacIntel,60,,,,,right,2.3976,2,0.5365,,,,,,,,0,103,103,128,1,stimuli/objects/pot01.jpg,left,old,272,,,,,,,,
,,,,,,,,29,2021-12-06_09h58.48.412,premceCat2_ses-02_part-02_label-phase2,2020.2.10,MacIntel,60,,,,,right,1.7517,3,1.3035,,,,,,,,0,104,104,75,1,stimuli/objects/hammer01.jpg,left,old,219,,,,,,,,
,,,,,,,,29,2021-12-06_09h58.48.412,premceCat2_ses-02_part-02_label-phase2,2020.2.10,MacIntel,60,,,,,left,3.3538,3,0.9022,left,1.1714,0,0,0,0,1,,,,,,,,,,,,,,,,,
,,,,,,,,29,2021-12-06_09h58.48.412,premceCat2_ses-02_part-02_label-phase2,2020.2.10,MacIntel,60,,,,,,,,,,,,,,,,0,105,105,45,1,stimuli/objects/ellipticalmachine.jpg,left,old,189,,,,,,,,
,,,,,,,,29,2021-12-06_09h58.48.412,premceCat2_ses-02_part-02_label-phase2,2020.2.10,MacIntel,60,,,,,left,1.9682,2,0.2876,right,0.2087,0,0,0,0,1,,,,,,,,,,,,,,,,,
,,,,,,,,29,2021-12-06_09h58.48.412,premceCat2_ses-02_part-02_label-phase2,2020.2.10,MacIntel,60,,,,,,,,,,,,,,,,0,106,106,11,1,stimuli/objects/fuse.jpg,left,old,155,,,,,,,,
,,,,,,,,29,2021-12-06_09h58.48.412,premceCat2_ses-02_part-02_label-phase2,2020.2.10,MacIntel,60,,,,,left,1.6374,4,0.3547,left,0.0941,0,0,0,0,1,,,,,,,,,,,,,,,,,
,,,,,,,,29,2021-12-06_09h58.48.412,premceCat2_ses-02_part-02_label-phase2,2020.2.10,MacIntel,60,,,,,,,,,,,,,,,,0,107,107,136,1,stimuli/objects/bikepump01.jpg,left,old,280,,,,,,,,
,,,,,,,,29,2021-12-06_09h58.48.412,premceCat2_ses-02_part-02_label-phase2,2020.2.10,MacIntel,60,,,,,right,1.2015,2,0.5724,,,,,,,,0,108,108,127,1,stimuli/objects/skigoggles01.jpg,right,new,271,,,,,,,,
,,,,,,,,29,2021-12-06_09h58.48.412,premceCat2_ses-02_part-02_label-phase2,2020.2.10,MacIntel,60,,,,,left,1.4643,3,0.2414,right,0.6405,0,0,0,0,1,,,,,,,,,,,,,,,,,
,,,,,,,,29,2021-12-06_09h58.48.412,premceCat2_ses-02_part-02_label-phase2,2020.2.10,MacIntel,60,,,,,,,,,,,,,,,,0,109,109,132,1,stimuli/objects/wirestripper.jpg,right,new,276,,,,,,,,
,,,,,,,,29,2021-12-06_09h58.48.412,premceCat2_ses-02_part-02_label-phase2,2020.2.10,MacIntel,60,,,,,left,0.8602,4,0.255,right,0.6821,0,0,0,0,1,,,,,,,,,,,,,,,,,
,,,,,,,,29,2021-12-06_09h58.48.412,premceCat2_ses-02_part-02_label-phase2,2020.2.10,MacIntel,60,,,,,,,,,,,,,,,,0,110,110,117,1,stimuli/objects/podium.jpg,left,old,261,,,,,,,,
,,,,,,,,29,2021-12-06_09h58.48.412,premceCat2_ses-02_part-02_label-phase2,2020.2.10,MacIntel,60,,,,,right,1.001,4,0.1888,,,,,,,,0,111,111,95,1,stimuli/objects/tennisball01b.jpg,right,new,239,,,,,,,,
,,,,,,,,29,2021-12-06_09h58.48.412,premceCat2_ses-02_part-02_label-phase2,2020.2.10,MacIntel,60,,,,,left,0.8818,3,0.2526,left,0.7869,0,0,0,0,1,,,,,,,,,,,,,,,,,
,,,,,,,,29,2021-12-06_09h58.48.412,premceCat2_ses-02_part-02_label-phase2,2020.2.10,MacIntel,60,,,,,,,,,,,,,,,,0,112,112,58,1,stimuli/objects/swimgoggles.jpg,left,old,202,,,,,,,,
,,,,,,,,29,2021-12-06_09h58.48.412,premceCat2_ses-02_part-02_label-phase2,2020.2.10,MacIntel,60,,,,,right,0.7991,4,0.2523,,,,,,,,0,113,113,109,1,stimuli/objects/waterbottle03.jpg,left,old,253,,,,,,,,
,,,,,,,,29,2021-12-06_09h58.48.412,premceCat2_ses-02_part-02_label-phase2,2020.2.10,MacIntel,60,,,,,right,0.9504,4,0.012,,,,,,,,0,114,114,2,1,stimuli/objects/wetfloorsign.jpg,right,new,146,,,,,,,,
,,,,,,,,29,2021-12-06_09h58.48.412,premceCat2_ses-02_part-02_label-phase2,2020.2.10,MacIntel,60,,,,,right,0.9562,4,0.0671,,,,,,,,0,115,115,100,1,stimuli/objects/wheelbarrow01.jpg,left,old,244,,,,,,,,
,,,,,,,,29,2021-12-06_09h58.48.412,premceCat2_ses-02_part-02_label-phase2,2020.2.10,MacIntel,60,,,,,right,1.9029,2,0.3887,,,,,,,,0,116,116,57,1,stimuli/objects/soccerball.jpg,left,old,201,,,,,,,,
,,,,,,,,29,2021-12-06_09h58.48.412,premceCat2_ses-02_part-02_label-phase2,2020.2.10,MacIntel,60,,,,,right,0.913,4,0.187,,,,,,,,0,117,117,54,1,stimuli/objects/toyhardhat.jpg,left,old,198,,,,,,,,
,,,,,,,,29,2021-12-06_09h58.48.412,premceCat2_ses-02_part-02_label-phase2,2020.2.10,MacIntel,60,,,,,left,1.2144,4,0.0004,left,0.3993,0,0,0,0,1,,,,,,,,,,,,,,,,,
,,,,,,,,29,2021-12-06_09h58.48.412,premceCat2_ses-02_part-02_label-phase2,2020.2.10,MacIntel,60,,,,,,,,,,,,,,,,0,118,118,130,1,stimuli/objects/fan.jpg,left,old,274,,,,,,,,
,,,,,,,,29,2021-12-06_09h58.48.412,premceCat2_ses-02_part-02_label-phase2,2020.2.10,MacIntel,60,,,,,left,1.1838,2,0.166,right,0.2034,0,0,0,0,1,,,,,,,,,,,,,,,,,
,,,,,,,,29,2021-12-06_09h58.48.412,premceCat2_ses-02_part-02_label-phase2,2020.2.10,MacIntel,60,,,,,,,,,,,,,,,,0,119,119,47,1,stimuli/objects/plate01b.jpg,right,new,191,,,,,,,,
,,,,,,,,29,2021-12-06_09h58.48.412,premceCat2_ses-02_part-02_label-phase2,2020.2.10,MacIntel,60,,,,,left,1.2141,3,0.9681,left,0.3011,0,0,0,0,1,,,,,,,,,,,,,,,,,
,,,,,,,,29,2021-12-06_09h58.48.412,premceCat2_ses-02_part-02_label-phase2,2020.2.10,MacIntel,60,,,,,,,,,,,,,,,,0,120,120,25,1,stimuli/objects/jar02.jpg,left,old,169,,,,,,,,
,,,,,,,,29,2021-12-06_09h58.48.412,premceCat2_ses-02_part-02_label-phase2,2020.2.10,MacIntel,60,,,,,right,2.516,2,0.3233,,,,,,,,0,121,121,12,1,stimuli/objects/fanheater.jpg,right,new,156,,,,,,,,
,,,,,,,,29,2021-12-06_09h58.48.412,premceCat2_ses-02_part-02_label-phase2,2020.2.10,MacIntel,60,,,,,left,2.2619,4,0.4696,left,0.6035,0,0,0,0,1,,,,,,,,,,,,,,,,,
,,,,,,,,29,2021-12-06_09h58.48.412,premceCat2_ses-02_part-02_label-phase2,2020.2.10,MacIntel,60,,,,,,,,,,,,,,,,0,122,122,67,1,stimuli/objects/filmroll.jpg,left,old,211,,,,,,,,
,,,,,,,,29,2021-12-06_09h58.48.412,premceCat2_ses-02_part-02_label-phase2,2020.2.10,MacIntel,60,,,,,right,1.4007,2,0.2034,,,,,,,,0,123,123,51,1,stimuli/objects/cheeseknife01.jpg,right,new,195,,,,,,,,
,,,,,,,,29,2021-12-06_09h58.48.412,premceCat2_ses-02_part-02_label-phase2,2020.2.10,MacIntel,60,,,,,left,1.9676,3,0.5868,right,0.722,0,0,0,0,1,,,,,,,,,,,,,,,,,
,,,,,,,,29,2021-12-06_09h58.48.412,premceCat2_ses-02_part-02_label-phase2,2020.2.10,MacIntel,60,,,,,,,,,,,,,,,,0,124,124,39,1,stimuli/objects/wafflemaker.jpg,right,new,183,,,,,,,,
,,,,,,,,29,2021-12-06_09h58.48.412,premceCat2_ses-02_part-02_label-phase2,2020.2.10,MacIntel,60,,,,,right,1.7204,2,0.0923,,,,,,,,0,125,125,111,1,stimuli/objects/diaperbag.jpg,right,new,255,,,,,,,,
,,,,,,,,29,2021-12-06_09h58.48.412,premceCat2_ses-02_part-02_label-phase2,2020.2.10,MacIntel,60,,,,,left,1.3965,4,0.0004,right,0.3648,0,0,0,0,1,,,,,,,,,,,,,,,,,
,,,,,,,,29,2021-12-06_09h58.48.412,premceCat2_ses-02_part-02_label-phase2,2020.2.10,MacIntel,60,,,,,,,,,,,,,,,,0,126,126,73,1,stimuli/objects/propanetank01.jpg,left,old,217,,,,,,,,
,,,,,,,,29,2021-12-06_09h58.48.412,premceCat2_ses-02_part-02_label-phase2,2020.2.10,MacIntel,60,,,,,right,1.0657,2,0.1313,,,,,,,,0,127,127,40,1,stimuli/objects/tablesaw.jpg,right,new,184,,,,,,,,
,,,,,,,,29,2021-12-06_09h58.48.412,premceCat2_ses-02_part-02_label-phase2,2020.2.10,MacIntel,60,,,,,left,0.9679,4,0.153,left,0.2246,0,0,0,0,1,,,,,,,,,,,,,,,,,
,,,,,,,,29,2021-12-06_09h58.48.412,premceCat2_ses-02_part-02_label-phase2,2020.2.10,MacIntel,60,,,,,,,,,,,,,,,,0,128,128,7,1,stimuli/objects/dishrack.jpg,left,old,151,,,,,,,,
,,,,,,,,29,2021-12-06_09h58.48.412,premceCat2_ses-02_part-02_label-phase2,2020.2.10,MacIntel,60,,,,,right,0.941,2,0.1201,,,,,,,,0,129,129,99,1,stimuli/objects/floodlight.jpg,right,new,243,,,,,,,,
,,,,,,,,29,2021-12-06_09h58.48.412,premceCat2_ses-02_part-02_label-phase2,2020.2.10,MacIntel,60,,,,,left,1.0315,4,0.1708,right,0.106,0,0,0,0,1,,,,,,,,,,,,,,,,,
,,,,,,,,29,2021-12-06_09h58.48.412,premceCat2_ses-02_part-02_label-phase2,2020.2.10,MacIntel,60,,,,,,,,,,,,,,,,0,130,130,88,1,stimuli/objects/kiddiepool.jpg,left,old,232,,,,,,,,
,,,,,,,,29,2021-12-06_09h58.48.412,premceCat2_ses-02_part-02_label-phase2,2020.2.10,MacIntel,60,,,,,left,0.8874,4,0.1027,left,1.0025,0,0,0,0,1,,,,,,,,,,,,,,,,,
,,,,,,,,29,2021-12-06_09h58.48.412,premceCat2_ses-02_part-02_label-phase2,2020.2.10,MacIntel,60,,,,,,,,,,,,,,,,0,131,131,93,1,stimuli/objects/rope03.jpg,left,old,237,,,,,,,,
,,,,,,,,29,2021-12-06_09h58.48.412,premceCat2_ses-02_part-02_label-phase2,2020.2.10,MacIntel,60,,,,,right,0.8663,4,0.0346,,,,,,,,0,132,132,50,1,stimuli/objects/iceskate.jpg,left,old,194,,,,,,,,
,,,,,,,,29,2021-12-06_09h58.48.412,premceCat2_ses-02_part-02_label-phase2,2020.2.10,MacIntel,60,,,,,right,1.2505,2,0.1543,,,,,,,,0,133,133,6,1,stimuli/objects/solderingwire.jpg,right,new,150,,,,,,,,
,,,,,,,,29,2021-12-06_09h58.48.412,premceCat2_ses-02_part-02_label-phase2,2020.2.10,MacIntel,60,,,,,right,0.7356,3,0.1187,,,,,,,,0,134,134,98,1,stimuli/objects/cameracase01a.jpg,right,new,242,,,,,,,,
,,,,,,,,29,2021-12-06_09h58.48.412,premceCat2_ses-02_part-02_label-phase2,2020.2.10,MacIntel,60,,,,,right,1.0372,3,0.7173,,,,,,,,0,135,135,5,1,stimuli/objects/pickaxe02.jpg,right,new,149,,,,,,,,
,,,,,,,,29,2021-12-06_09h58.48.412,premceCat2_ses-02_part-02_label-phase2,2020.2.10,MacIntel,60,,,,,right,1.0667,3,0.2564,,,,,,,,0,136,136,133,1,stimuli/objects/birdie.jpg,right,new,277,,,,,,,,
,,,,,,,,29,2021-12-06_09h58.48.412,premceCat2_ses-02_part-02_label-phase2,2020.2.10,MacIntel,60,,,,,left,1.0188,4,0.2897,right,0.2673,0,0,0,0,1,,,,,,,,,,,,,,,,,
,,,,,,,,29,2021-12-06_09h58.48.412,premceCat2_ses-02_part-02_label-phase2,2020.2.10,MacIntel,60,,,,,,,,,,,,,,,,0,137,137,112,1,stimuli/objects/telephone01b.jpg,left,old,256,,,,,,,,
,,,,,,,,29,2021-12-06_09h58.48.412,premceCat2_ses-02_part-02_label-phase2,2020.2.10,MacIntel,60,,,,,left,1.7007,4,0.1373,right,0.2519,0,0,0,0,1,,,,,,,,,,,,,,,,,
,,,,,,,,29,2021-12-06_09h58.48.412,premceCat2_ses-02_part-02_label-phase2,2020.2.10,MacIntel,60,,,,,,,,,,,,,,,,0,138,138,29,1,stimuli/objects/coffeemachine.jpg,left,old,173,,,,,,,,
,,,,,,,,29,2021-12-06_09h58.48.412,premceCat2_ses-02_part-02_label-phase2,2020.2.10,MacIntel,60,,,,,left,1.8691,2,0.0164,left,0.2061,0,0,0,0,1,,,,,,,,,,,,,,,,,
,,,,,,,,29,2021-12-06_09h58.48.412,premceCat2_ses-02_part-02_label-phase2,2020.2.10,MacIntel,60,,,,,,,,,,,,,,,,0,139,139,77,1,stimuli/objects/corkscrew03a.jpg,left,old,221,,,,,,,,
,,,,,,,,29,2021-12-06_09h58.48.412,premceCat2_ses-02_part-02_label-phase2,2020.2.10,MacIntel,60,,,,,left,1.5303,4,0.0706,right,0.1227,0,0,0,0,1,,,,,,,,,,,,,,,,,
,,,,,,,,29,2021-12-06_09h58.48.412,premceCat2_ses-02_part-02_label-phase2,2020.2.10,MacIntel,60,,,,,,,,,,,,,,,,0,140,140,4,1,stimuli/objects/cassettetape01a.jpg,right,new,148,,,,,,,,
,,,,,,,,29,2021-12-06_09h58.48.412,premceCat2_ses-02_part-02_label-phase2,2020.2.10,MacIntel,60,,,,,left,1.205,4,0.169,right,0.1328,0,0,0,0,1,,,,,,,,,,,,,,,,,
,,,,,,,,29,2021-12-06_09h58.48.412,premceCat2_ses-02_part-02_label-phase2,2020.2.10,MacIntel,60,,,,,,,,,,,,,,,,0,141,141,85,1,stimuli/objects/usbcable01a.jpg,left,old,229,,,,,,,,
,,,,,,,,29,2021-12-06_09h58.48.412,premceCat2_ses-02_part-02_label-phase2,2020.2.10,MacIntel,60,,,,,right,2.2001,2,0.1533,,,,,,,,0,142,142,16,1,stimuli/objects/bottleopener01.jpg,right,new,160,,,,,,,,
,,,,,,,,29,2021-12-06_09h58.48.412,premceCat2_ses-02_part-02_label-phase2,2020.2.10,MacIntel,60,,,,,,,,,,,,,,,,,,,,,,,,,space,29.0419,0,0,0,1,1,condition_files/ImagesforRecog2_2.csv
,,,,,,,,29,2021-12-06_09h58.48.412,premceCat2_ses-02_part-02_label-phase2,2020.2.10,MacIntel,60,,,,,right,0.9474,2,0.2641,,,,,,,,0,0,0,6,1,stimuli/objects/pitcher02b.jpg,left,old,7,,,,,,,,
,,,,,,,,29,2021-12-06_09h58.48.412,premceCat2_ses-02_part-02_label-phase2,2020.2.10,MacIntel,60,,,,,left,1.0818,4,0.0004,left,0.0058,0,0,0,0,1,,,,,,,,,,,,,,,,,
,,,,,,,,29,2021-12-06_09h58.48.412,premceCat2_ses-02_part-02_label-phase2,2020.2.10,MacIntel,60,,,,,,,,,,,,,,,,0,1,1,44,1,stimuli/objects/lawnmower.jpg,left,old,45,,,,,,,,
,,,,,,,,29,2021-12-06_09h58.48.412,premceCat2_ses-02_part-02_label-phase2,2020.2.10,MacIntel,60,,,,,right,1.0995,4,0.0157,,,,,,,,0,2,2,18,1,stimuli/objects/cashregister01.jpg,right,new,19,,,,,,,,
,,,,,,,,29,2021-12-06_09h58.48.412,premceCat2_ses-02_part-02_label-phase2,2020.2.10,MacIntel,60,,,,,right,1.2516,2,0.0007,,,,,,,,0,3,3,89,1,stimuli/objects/ducttape.jpg,right,new,90,,,,,,,,
,,,,,,,,29,2021-12-06_09h58.48.412,premceCat2_ses-02_part-02_label-phase2,2020.2.10,MacIntel,60,,,,,right,0.8984,2,0.4901,,,,,,,,0,4,4,56,1,stimuli/objects/funnel.jpg,left,old,57,,,,,,,,
,,,,,,,,29,2021-12-06_09h58.48.412,premceCat2_ses-02_part-02_label-phase2,2020.2.10,MacIntel,60,,,,,left,0.8826,4,0.0715,left,0.0839,0,0,0,0,1,,,,,,,,,,,,,,,,,
,,,,,,,,29,2021-12-06_09h58.48.412,premceCat2_ses-02_part-02_label-phase2,2020.2.10,MacIntel,60,,,,,,,,,,,,,,,,0,5,5,27,1,stimuli/objects/anchor.jpg,left,old,28,,,,,,,,
,,,,,,,,29,2021-12-06_09h58.48.412,premceCat2_ses-02_part-02_label-phase2,2020.2.10,MacIntel,60,,,,,left,1.0159,4,0.0874,right,0.4227,0,0,0,0,1,,,,,,,,,,,,,,,,,
,,,,,,,,29,2021-12-06_09h58.48.412,premceCat2_ses-02_part-02_label-phase2,2020.2.10,MacIntel,60,,,,,,,,,,,,,,,,0,6,6,5,1,stimuli/objects/expansioncard.jpg,left,old,6,,,,,,,,
,,,,,,,,29,2021-12-06_09h58.48.412,premceCat2_ses-02_part-02_label-phase2,2020.2.10,MacIntel,60,,,,,right,1.2907,2,0.3951,,,,,,,,0,7,7,81,1,stimuli/objects/avcable.jpg,right,new,82,,,,,,,,
,,,,,,,,29,2021-12-06_09h58.48.412,premceCat2_ses-02_part-02_label-phase2,2020.2.10,MacIntel,60,,,,,left,0.8947,4,0.1706,right,0.2512,0,0,0,0,1,,,,,,,,,,,,,,,,,
,,,,,,,,29,2021-12-06_09h58.48.412,premceCat2_ses-02_part-02_label-phase2,2020.2.10,MacIntel,60,,,,,,,,,,,,,,,,0,8,8,95,1,stimuli/objects/floppydisk02a.jpg,left,old,96,,,,,,,,
,,,,,,,,29,2021-12-06_09h58.48.412,premceCat2_ses-02_part-02_label-phase2,2020.2.10,MacIntel,60,,,,,left,0.8954,3,1.0687,left,0.0061,0,0,0,0,1,,,,,,,,,,,,,,,,,
,,,,,,,,29,2021-12-06_09h58.48.412,premceCat2_ses-02_part-02_label-phase2,2020.2.10,MacIntel,60,,,,,,,,,,,,,,,,0,9,9,64,1,stimuli/objects/drillbit03a.jpg,left,old,65,,,,,,,,
,,,,,,,,29,2021-12-06_09h58.48.412,premceCat2_ses-02_part-02_label-phase2,2020.2.10,MacIntel,60,,,,,right,1.0148,2,0.0476,,,,,,,,0,10,10,21,1,stimuli/objects/paintbrush01.jpg,right,new,22,,,,,,,,
,,,,,,,,29,2021-12-06_09h58.48.412,premceCat2_ses-02_part-02_label-phase2,2020.2.10,MacIntel,60,,,,,left,1.9162,2,0.2571,left,0.433,0,0,0,0,1,,,,,,,,,,,,,,,,,
,,,,,,,,29,2021-12-06_09h58.48.412,premceCat2_ses-02_part-02_label-phase2,2020.2.10,MacIntel,60,,,,,,,,,,,,,,,,0,11,11,45,1,stimuli/objects/cookingpot.jpg,left,old,46,,,,,,,,
,,,,,,,,29,2021-12-06_09h58.48.412,premceCat2_ses-02_part-02_label-phase2,2020.2.10,MacIntel,60,,,,,right,1.2199,2,0.7858,,,,,,,,0,12,12,9,1,stimuli/objects/measuringtape01.jpg,right,new,10,,,,,,,,
,,,,,,,,29,2021-12-06_09h58.48.412,premceCat2_ses-02_part-02_label-phase2,2020.2.10,MacIntel,60,,,,,left,1.027,4,0.3158,left,0.2547,0,0,0,0,1,,,,,,,,,,,,,,,,,
,,,,,,,,29,2021-12-06_09h58.48.412,premceCat2_ses-02_part-02_label-phase2,2020.2.10,MacIntel,60,,,,,,,,,,,,,,,,0,13,13,74,1,stimuli/objects/snowboard.jpg,left,old,75,,,,,,,,
,,,,,,,,29,2021-12-06_09h58.48.412,premceCat2_ses-02_part-02_label-phase2,2020.2.10,MacIntel,60,,,,,right,1.2966,2,0.0358,,,,,,,,0,14,14,116,1,stimuli/objects/radio01.jpg,right,new,117,,,,,,,,
,,,,,,,,29,2021-12-06_09h58.48.412,premceCat2_ses-02_part-02_label-phase2,2020.2.10,MacIntel,60,,,,,left,0.6812,4,0.1845,right,0.9418,0,0,0,0,1,,,,,,,,,,,,,,,,,
,,,,,,,,29,2021-12-06_09h58.48.412,premceCat2_ses-02_part-02_label-phase2,2020.2.10,MacIntel,60,,,,,,,,,,,,,,,,0,15,15,69,1,stimuli/objects/filmnegative.jpg,left,old,70,,,,,,,,
,,,,,,,,29,2021-12-06_09h58.48.412,premceCat2_ses-02_part-02_label-phase2,2020.2.10,MacIntel,60,,,,,right,0.9329,3,0.5809,,,,,,,,0,16,16,133,1,stimuli/objects/icebucket.jpg,right,new,134,,,,,,,,
,,,,,,,,29,2021-12-06_09h58.48.412,premceCat2_ses-02_part-02_label-phase2,2020.2.10,MacIntel,60,,,,,right,0.7334,4,0.4321,,,,,,,,0,17,17,60,1,stimuli/objects/glass02a.jpg,right,new,61,,,,,,,,
,,,,,,,,29,2021-12-06_09h58.48.412,premceCat2_ses-02_part-02_label-phase2,2020.2.10,MacIntel,60,,,,,left,0.9,4,0.1997,left,0.9159,0,0,0,0,1,,,,,,,,,,,,,,,,,
,,,,,,,,29,2021-12-06_09h58.48.412,premceCat2_ses-02_part-02_label-phase2,2020.2.10,MacIntel,60,,,,,,,,,,,,,,,,0,18,18,62,1,stimuli/objects/potatomasher03b.jpg,left,old,63,,,,,,,,
,,,,,,,,29,2021-12-06_09h58.48.412,premceCat2_ses-02_part-02_label-phase2,2020.2.10,MacIntel,60,,,,,left,0.7532,2,0.7308,right,0.8025,0,0,0,0,1,,,,,,,,,,,,,,,,,
,,,,,,,,29,2021-12-06_09h58.48.412,premceCat2_ses-02_part-02_label-phase2,2020.2.10,MacIntel,60,,,,,,,,,,,,,,,,0,19,19,100,1,stimuli/objects/remotecontrol04.jpg,right,new,101,,,,,,,,
,,,,,,,,29,2021-12-06_09h58.48.412,premceCat2_ses-02_part-02_label-phase2,2020.2.10,MacIntel,60,,,,,right,0.9633,4,0.3347,,,,,,,,0,20,20,41,1,stimuli/objects/pylon01.jpg,right,new,42,,,,,,,,
,,,,,,,,29,2021-12-06_09h58.48.412,premceCat2_ses-02_part-02_label-phase2,2020.2.10,MacIntel,60,,,,,right,2.0494,2,0.1835,,,,,,,,0,21,21,17,1,stimuli/objects/exercisebench.jpg,right,new,18,,,,,,,,
,,,,,,,,29,2021-12-06_09h58.48.412,premceCat2_ses-02_part-02_label-phase2,2020.2.10,MacIntel,60,,,,,left,0.9872,4,0.1373,left,0.1739,0,0,0,0,1,,,,,,,,,,,,,,,,,
,,,,,,,,29,2021-12-06_09h58.48.412,premceCat2_ses-02_part-02_label-phase2,2020.2.10,MacIntel,60,,,,,,,,,,,,,,,,0,22,22,84,1,stimuli/objects/sportbag.jpg,left,old,85,,,,,,,,
,,,,,,,,29,2021-12-06_09h58.48.412,premceCat2_ses-02_part-02_label-phase2,2020.2.10,MacIntel,60,,,,,left,1.0128,4,0.3543,left,0.1225,0,0,0,0,1,,,,,,,,,,,,,,,,,
,,,,,,,,29,2021-12-06_09h58.48.412,premceCat2_ses-02_part-02_label-phase2,2020.2.10,MacIntel,60,,,,,,,,,,,,,,,,0,23,23,50,1,stimuli/objects/chisel02b.jpg,right,new,51,,,,,,,,
,,,,,,,,29,2021-12-06_09h58.48.412,premceCat2_ses-02_part-02_label-phase2,2020.2.10,MacIntel,60,,,,,left,0.9984,4,0.5502,right,0.203,0,0,0,0,1,,,,,,,,,,,,,,,,,
,,,,,,,,29,2021-12-06_09h58.48.412,premceCat2_ses-02_part-02_label-phase2,2020.2.10,MacIntel,60,,,,,,,,,,,,,,,,0,24,24,113,1,stimuli/objects/powercable.jpg,right,new,114,,,,,,,,
,,,,,,,,29,2021-12-06_09h58.48.412,premceCat2_ses-02_part-02_label-phase2,2020.2.10,MacIntel,60,,,,,right,2.0523,2,0.0131,,,,,,,,0,25,25,111,1,stimuli/objects/speaker04.jpg,right,new,112,,,,,,,,
,,,,,,,,29,2021-12-06_09h58.48.412,premceCat2_ses-02_part-02_label-phase2,2020.2.10,MacIntel,60,,,,,right,1.0867,3,0.0989,,,,,,,,0,26,26,20,1,stimuli/objects/laptop01a.jpg,right,new,21,,,,,,,,
,,,,,,,,29,2021-12-06_09h58.48.412,premceCat2_ses-02_part-02_label-phase2,2020.2.10,MacIntel,60,,,,,left,0.966,4,0.0776,right,0.5228,0,0,0,0,1,,,,,,,,,,,,,,,,,
,,,,,,,,29,2021-12-06_09h58.48.412,premceCat2_ses-02_part-02_label-phase2,2020.2.10,MacIntel,60,,,,,,,,,,,,,,,,0,27,27,105,1,stimuli/objects/lightbulb01.jpg,left,old,106,,,,,,,,
,,,,,,,,29,2021-12-06_09h58.48.412,premceCat2_ses-02_part-02_label-phase2,2020.2.10,MacIntel,60,,,,,left,0.9489,4,0.1174,left,0.1485,0,0,0,0,1,,,,,,,,,,,,,,,,,
,,,,,,,,29,2021-12-06_09h58.48.412,premceCat2_ses-02_part-02_label-phase2,2020.2.10,MacIntel,60,,,,,,,,,,,,,,,,0,28,28,99,1,stimuli/objects/paintroller01.jpg,left,old,100,,,,,,,,
,,,,,,,,29,2021-12-06_09h58.48.412,premceCat2_ses-02_part-02_label-phase2,2020.2.10,MacIntel,60,,,,,left,0.9582,4,0.1527,left,0.1544,0,0,0,0,1,,,,,,,,,,,,,,,,,
,,,,,,,,29,2021-12-06_09h58.48.412,premceCat2_ses-02_part-02_label-phase2,2020.2.10,MacIntel,60,,,,,,,,,,,,,,,,0,29,29,91,1,stimuli/objects/metalbrush.jpg,left,old,92,,,,,,,,
,,,,,,,,29,2021-12-06_09h58.48.412,premceCat2_ses-02_part-02_label-phase2,2020.2.10,MacIntel,60,,,,,left,3.5996,4,0.2605,left,0.151,0,0,0,0,1,,,,,,,,,,,,,,,,,
,,,,,,,,29,2021-12-06_09h58.48.412,premceCat2_ses-02_part-02_label-phase2,2020.2.10,MacIntel,60,,,,,,,,,,,,,,,,0,30,30,61,1,stimuli/objects/squeegee01b.jpg,left,old,62,,,,,,,,
,,,,,,,,29,2021-12-06_09h58.48.412,premceCat2_ses-02_part-02_label-phase2,2020.2.10,MacIntel,60,,,,,left,0.9011,4,0.2836,right,0.1422,0,0,0,0,1,,,,,,,,,,,,,,,,,
,,,,,,,,29,2021-12-06_09h58.48.412,premceCat2_ses-02_part-02_label-phase2,2020.2.10,MacIntel,60,,,,,,,,,,,,,,,,0,31,31,70,1,stimuli/objects/bowl02a.jpg,left,old,71,,,,,,,,
,,,,,,,,29,2021-12-06_09h58.48.412,premceCat2_ses-02_part-02_label-phase2,2020.2.10,MacIntel,60,,,,,left,0.8491,4,0.3482,right,0.2299,0,0,0,0,1,,,,,,,,,,,,,,,,,
,,,,,,,,29,2021-12-06_09h58.48.412,premceCat2_ses-02_part-02_label-phase2,2020.2.10,MacIntel,60,,,,,,,,,,,,,,,,0,32,32,0,1,stimuli/objects/electricoutlet.jpg,left,old,1,,,,,,,,
,,,,,,,,29,2021-12-06_09h58.48.412,premceCat2_ses-02_part-02_label-phase2,2020.2.10,MacIntel,60,,,,,right,1.3094,2,1.2991,,,,,,,,0,33,33,3,1,stimuli/objects/shotglass.jpg,left,old,4,,,,,,,,
,,,,,,,,29,2021-12-06_09h58.48.412,premceCat2_ses-02_part-02_label-phase2,2020.2.10,MacIntel,60,,,,,left,1.2832,4,0.2331,right,0.149,0,0,0,0,1,,,,,,,,,,,,,,,,,
,,,,,,,,29,2021-12-06_09h58.48.412,premceCat2_ses-02_part-02_label-phase2,2020.2.10,MacIntel,60,,,,,,,,,,,,,,,,0,34,34,1,1,stimuli/objects/ipad02.jpg,left,old,2,,,,,,,,
,,,,,,,,29,2021-12-06_09h58.48.412,premceCat2_ses-02_part-02_label-phase2,2020.2.10,MacIntel,60,,,,,right,0.8773,3,1.6481,,,,,,,,0,35,35,68,1,stimuli/objects/leafblower01.jpg,right,new,69,,,,,,,,
,,,,,,,,29,2021-12-06_09h58.48.412,premceCat2_ses-02_part-02_label-phase2,2020.2.10,MacIntel,60,,,,,right,1.5678,2,0.2344,,,,,,,,0,36,36,30,1,stimuli/objects/printer02.jpg,right,new,31,,,,,,,,
,,,,,,,,29,2021-12-06_09h58.48.412,premceCat2_ses-02_part-02_label-phase2,2020.2.10,MacIntel,60,,,,,right,0.9849,4,0.3872,,,,,,,,0,37,37,71,1,stimuli/objects/faxmachine.jpg,right,new,72,,,,,,,,
,,,,,,,,29,2021-12-06_09h58.48.412,premceCat2_ses-02_part-02_label-phase2,2020.2.10,MacIntel,60,,,,,right,0.8824,2,0.1002,,,,,,,,0,38,38,33,1,stimuli/objects/microwave.jpg,right,new,34,,,,,,,,
,,,,,,,,29,2021-12-06_09h58.48.412,premceCat2_ses-02_part-02_label-phase2,2020.2.10,MacIntel,60,,,,,right,0.9574,3,0.4645,,,,,,,,0,39,39,83,1,stimuli/objects/kitchenscale01a.jpg,right,new,84,,,,,,,,
,,,,,,,,29,2021-12-06_09h58.48.412,premceCat2_ses-02_part-02_label-phase2,2020.2.10,MacIntel,60,,,,,left,1.4481,4,0.3329,left,0.3,0,0,0,0,1,,,,,,,,,,,,,,,,,
,,,,,,,,29,2021-12-06_09h58.48.412,premceCat2_ses-02_part-02_label-phase2,2020.2.10,MacIntel,60,,,,,,,,,,,,,,,,0,40,40,37,1,stimuli/objects/pressurewasher.jpg,left,old,38,,,,,,,,
,,,,,,,,29,2021-12-06_09h58.48.412,premceCat2_ses-02_part-02_label-phase2,2020.2.10,MacIntel,60,,,,,right,0.7978,3,1.0621,,,,,,,,0,41,41,138,1,stimuli/objects/taperecorder.jpg,right,new,139,,,,,,,,
,,,,,,,,29,2021-12-06_09h58.48.412,premceCat2_ses-02_part-02_label-phase2,2020.2.10,MacIntel,60,,,,,left,3.3488,4,0.7853,left,0.6685,0,0,0,0,1,,,,,,,,,,,,,,,,,
,,,,,,,,29,2021-12-06_09h58.48.412,premceCat2_ses-02_part-02_label-phase2,2020.2.10,MacIntel,60,,,,,,,,,,,,,,,,0,42,42,98,1,stimuli/objects/baseball01a.jpg,left,old,99,,,,,,,,
,,,,,,,,29,2021-12-06_09h58.48.412,premceCat2_ses-02_part-02_label-phase2,2020.2.10,MacIntel,60,,,,,right,2.0475,3,1.4897,,,,,,,,0,43,43,125,1,stimuli/objects/shoulderpad.jpg,right,new,126,,,,,,,,
,,,,,,,,29,2021-12-06_09h58.48.412,premceCat2_ses-02_part-02_label-phase2,2020.2.10,MacIntel,60,,,,,right,1.4833,2,2.3796,,,,,,,,0,44,44,49,1,stimuli/objects/exercisebike.jpg,left,old,50,,,,,,,,
,,,,,,,,29,2021-12-06_09h58.48.412,premceCat2_ses-02_part-02_label-phase2,2020.2.10,MacIntel,60,,,,,right,1.0315,4,0.2043,,,,,,,,0,45,45,32,1,stimuli/objects/mitresaw.jpg,right,new,33,,,,,,,,
,,,,,,,,29,2021-12-06_09h58.48.412,premceCat2_ses-02_part-02_label-phase2,2020.2.10,MacIntel,60,,,,,right,0.963,2,0.4508,,,,,,,,0,46,46,76,1,stimuli/objects/megaphone.jpg,right,new,77,,,,,,,,
,,,,,,,,29,2021-12-06_09h58.48.412,premceCat2_ses-02_part-02_label-phase2,2020.2.10,MacIntel,60,,,,,right,1.0633,4,0.2555,,,,,,,,0,47,47,29,1,stimuli/objects/outletadapter.jpg,left,old,30,,,,,,,,
,,,,,,,,29,2021-12-06_09h58.48.412,premceCat2_ses-02_part-02_label-phase2,2020.2.10,MacIntel,60,,,,,left,3.125,3,0.1485,left,0.2668,0,0,0,0,1,,,,,,,,,,,,,,,,,
,,,,,,,,29,2021-12-06_09h58.48.412,premceCat2_ses-02_part-02_label-phase2,2020.2.10,MacIntel,60,,,,,,,,,,,,,,,,0,48,48,134,1,stimuli/objects/screwdriver04b.jpg,right,new,135,,,,,,,,
,,,,,,,,29,2021-12-06_09h58.48.412,premceCat2_ses-02_part-02_label-phase2,2020.2.10,MacIntel,60,,,,,right,2.4965,2,2.4502,,,,,,,,0,49,49,26,1,stimuli/objects/boogieboard.jpg,right,new,27,,,,,,,,
,,,,,,,,29,2021-12-06_09h58.48.412,premceCat2_ses-02_part-02_label-phase2,2020.2.10,MacIntel,60,,,,,right,1.8623,4,0.0328,,,,,,,,0,50,50,109,1,stimuli/objects/winerack.jpg,right,new,110,,,,,,,,
,,,,,,,,29,2021-12-06_09h58.48.412,premceCat2_ses-02_part-02_label-phase2,2020.2.10,MacIntel,60,,,,,right,2.412,4,10.3622,,,,,,,,0,51,51,141,1,stimuli/objects/generator.jpg,right,new,142,,,,,,,,
,,,,,,,,29,2021-12-06_09h58.48.412,premceCat2_ses-02_part-02_label-phase2,2020.2.10,MacIntel,60,,,,,left,1.0935,4,0.2642,left,0.235,0,0,0,0,1,,,,,,,,,,,,,,,,,
,,,,,,,,29,2021-12-06_09h58.48.412,premceCat2_ses-02_part-02_label-phase2,2020.2.10,MacIntel,60,,,,,,,,,,,,,,,,0,52,52,120,1,stimuli/objects/oven.jpg,left,old,121,,,,,,,,
,,,,,,,,29,2021-12-06_09h58.48.412,premceCat2_ses-02_part-02_label-phase2,2020.2.10,MacIntel,60,,,,,right,1.8685,2,0.3501,,,,,,,,0,53,53,139,1,stimuli/objects/frisbee.jpg,right,new,140,,,,,,,,
,,,,,,,,29,2021-12-06_09h58.48.412,premceCat2_ses-02_part-02_label-phase2,2020.2.10,MacIntel,60,,,,,right,1.0217,3,0.7694,,,,,,,,0,54,54,58,1,stimuli/objects/weedwacker.jpg,left,old,59,,,,,,,,
,,,,,,,,29,2021-12-06_09h58.48.412,premceCat2_ses-02_part-02_label-phase2,2020.2.10,MacIntel,60,,,,,left,1.4681,4,0.1327,right,0.1811,0,0,0,0,1,,,,,,,,,,,,,,,,,
,,,,,,,,29,2021-12-06_09h58.48.412,premceCat2_ses-02_part-02_label-phase2,2020.2.10,MacIntel,60,,,,,,,,,,,,,,,,0,55,55,79,1,stimuli/objects/fluorescentlightbulb.jpg,left,old,80,,,,,,,,
,,,,,,,,29,2021-12-06_09h58.48.412,premceCat2_ses-02_part-02_label-phase2,2020.2.10,MacIntel,60,,,,,right,2.3954,4,0.3058,,,,,,,,0,56,56,4,1,stimuli/objects/microphone01.jpg,right,new,5,,,,,,,,
,,,,,,,,29,2021-12-06_09h58.48.412,premceCat2_ses-02_part-02_label-phase2,2020.2.10,MacIntel,60,,,,,left,2.2978,4,0.2634,right,1.3474,0,0,0,0,1,,,,,,,,,,,,,,,,,
,,,,,,,,29,2021-12-06_09h58.48.412,premceCat2_ses-02_part-02_label-phase2,2020.2.10,MacIntel,60,,,,,,,,,,,,,,,,0,57,57,117,1,stimuli/objects/videotape01b.jpg,right,new,118,,,,,,,,
,,,,,,,,29,2021-12-06_09h58.48.412,premceCat2_ses-02_part-02_label-phase2,2020.2.10,MacIntel,60,,,,,left,1.4004,4,0.2671,left,0.1025,0,0,0,0,1,,,,,,,,,,,,,,,,,
,,,,,,,,29,2021-12-06_09h58.48.412,premceCat2_ses-02_part-02_label-phase2,2020.2.10,MacIntel,60,,,,,,,,,,,,,,,,0,58,58,127,1,stimuli/objects/reflector.jpg,left,old,128,,,,,,,,
,,,,,,,,29,2021-12-06_09h58.48.412,premceCat2_ses-02_part-02_label-phase2,2020.2.10,MacIntel,60,,,,,right,0.9973,2,1.5381,,,,,,,,0,59,59,39,1,stimuli/objects/sippycup.jpg,right,new,40,,,,,,,,
,,,,,,,,29,2021-12-06_09h58.48.412,premceCat2_ses-02_part-02_label-phase2,2020.2.10,MacIntel,60,,,,,right,2.181,3,1.144,,,,,,,,0,60,60,132,1,stimuli/objects/payphone.jpg,left,old,133,,,,,,,,
,,,,,,,,29,2021-12-06_09h58.48.412,premceCat2_ses-02_part-02_label-phase2,2020.2.10,MacIntel,60,,,,,left,0.7708,4,0.3522,left,0.1869,0,0,0,0,1,,,,,,,,,,,,,,,,,
,,,,,,,,29,2021-12-06_09h58.48.412,premceCat2_ses-02_part-02_label-phase2,2020.2.10,MacIntel,60,,,,,,,,,,,,,,,,0,61,61,65,1,stimuli/objects/drill01b.jpg,left,old,66,,,,,,,,
,,,,,,,,29,2021-12-06_09h58.48.412,premceCat2_ses-02_part-02_label-phase2,2020.2.10,MacIntel,60,,,,,right,2.6871,2,0.3889,,,,,,,,0,62,62,55,1,stimuli/objects/toolbox02.jpg,right,new,56,,,,,,,,
,,,,,,,,29,2021-12-06_09h58.48.412,premceCat2_ses-02_part-02_label-phase2,2020.2.10,MacIntel,60,,,,,right,0.9609,4,0.12,,,,,,,,0,63,63,86,1,stimuli/objects/toasteroven.jpg,right,new,87,,,,,,,,
,,,,,,,,29,2021-12-06_09h58.48.412,premceCat2_ses-02_part-02_label-phase2,2020.2.10,MacIntel,60,,,,,right,1.4523,4,0.1432,,,,,,,,0,64,64,54,1,stimuli/objects/pda.jpg,right,new,55,,,,,,,,
,,,,,,,,29,2021-12-06_09h58.48.412,premceCat2_ses-02_part-02_label-phase2,2020.2.10,MacIntel,60,,,,,left,1.1642,3,0.4316,left,0.3193,0,0,0,0,1,,,,,,,,,,,,,,,,,
,,,,,,,,29,2021-12-06_09h58.48.412,premceCat2_ses-02_part-02_label-phase2,2020.2.10,MacIntel,60,,,,,,,,,,,,,,,,0,65,65,123,1,stimuli/objects/thermos.jpg,left,old,124,,,,,,,,
,,,,,,,,29,2021-12-06_09h58.48.412,premceCat2_ses-02_part-02_label-phase2,2020.2.10,MacIntel,60,,,,,right,1.6279,3,0.2358,,,,,,,,0,66,66,73,1,stimuli/objects/clock01a.jpg,right,new,74,,,,,,,,
,,,,,,,,29,2021-12-06_09h58.48.412,premceCat2_ses-02_part-02_label-phase2,2020.2.10,MacIntel,60,,,,,left,0.7862,4,0.1883,right,0.1501,0,0,0,0,1,,,,,,,,,,,,,,,,,
,,,,,,,,29,2021-12-06_09h58.48.412,premceCat2_ses-02_part-02_label-phase2,2020.2.10,MacIntel,60,,,,,,,,,,,,,,,,0,67,67,101,1,stimuli/objects/vhstape.jpg,left,old,102,,,,,,,,
,,,,,,,,29,2021-12-06_09h58.48.412,premceCat2_ses-02_part-02_label-phase2,2020.2.10,MacIntel,60,,,,,left,0.82,4,1.0767,left,0.1887,0,0,0,0,1,,,,,,,,,,,,,,,,,
,,,,,,,,29,2021-12-06_09h58.48.412,premceCat2_ses-02_part-02_label-phase2,2020.2.10,MacIntel,60,,,,,,,,,,,,,,,,0,68,68,28,1,stimuli/objects/poolnet.jpg,left,old,29,,,,,,,,
,,,,,,,,29,2021-12-06_09h58.48.412,premceCat2_ses-02_part-02_label-phase2,2020.2.10,MacIntel,60,,,,,left,1.2166,4,0.0844,left,0.2039,0,0,0,0,1,,,,,,,,,,,,,,,,,
,,,,,,,,29,2021-12-06_09h58.48.412,premceCat2_ses-02_part-02_label-phase2,2020.2.10,MacIntel,60,,,,,,,,,,,,,,,,0,69,69,115,1,stimuli/objects/saw02b.jpg,left,old,116,,,,,,,,
,,,,,,,,29,2021-12-06_09h58.48.412,premceCat2_ses-02_part-02_label-phase2,2020.2.10,MacIntel,60,,,,,right,1.0653,4,0.2552,,,,,,,,0,70,70,92,1,stimuli/objects/carjack.jpg,right,new,93,,,,,,,,
,,,,,,,,29,2021-12-06_09h58.48.412,premceCat2_ses-02_part-02_label-phase2,2020.2.10,MacIntel,60,,,,,right,1.2915,2,0.1873,,,,,,,,0,71,71,82,1,stimuli/objects/snowbrush.jpg,right,new,83,,,,,,,,
,,,,,,,,29,2021-12-06_09h58.48.412,premceCat2_ses-02_part-02_label-phase2,2020.2.10,MacIntel,60,,,,,right,1.7853,1,0.4362,,,,,,,,0,72,72,12,1,stimuli/objects/garlicpress02a.jpg,right,new,13,,,,,,,,
,,,,,,,,29,2021-12-06_09h58.48.412,premceCat2_ses-02_part-02_label-phase2,2020.2.10,MacIntel,60,,,,,left,1.1495,2,0.0527,left,0.3706,0,0,0,0,1,,,,,,,,,,,,,,,,,
,,,,,,,,29,2021-12-06_09h58.48.412,premceCat2_ses-02_part-02_label-phase2,2020.2.10,MacIntel,60,,,,,,,,,,,,,,,,0,73,73,52,1,stimuli/objects/handmixer01d.jpg,left,old,53,,,,,,,,
,,,,,,,,29,2021-12-06_09h58.48.412,premceCat2_ses-02_part-02_label-phase2,2020.2.10,MacIntel,60,,,,,left,1.4206,3,1.6038,left,0.2243,0,0,0,0,1,,,,,,,,,,,,,,,,,
,,,,,,,,29,2021-12-06_09h58.48.412,premceCat2_ses-02_part-02_label-phase2,2020.2.10,MacIntel,60,,,,,,,,,,,,,,,,0,74,74,23,1,stimuli/objects/football.jpg,right,new,24,,,,,,,,
,,,,,,,,29,2021-12-06_09h58.48.412,premceCat2_ses-02_part-02_label-phase2,2020.2.10,MacIntel,60,,,,,right,1.7285,4,0.1228,,,,,,,,0,75,75,80,1,stimuli/objects/snowman.jpg,right,new,81,,,,,,,,
,,,,,,,,29,2021-12-06_09h58.48.412,premceCat2_ses-02_part-02_label-phase2,2020.2.10,MacIntel,60,,,,,right,1.1851,4,2.0567,,,,,,,,0,76,76,25,1,stimuli/objects/bowlingball.jpg,right,new,26,,,,,,,,
,,,,,,,,29,2021-12-06_09h58.48.412,premceCat2_ses-02_part-02_label-phase2,2020.2.10,MacIntel,60,,,,,left,1.4491,4,0.1384,left,0.2388,0,0,0,0,1,,,,,,,,,,,,,,,,,
,,,,,,,,29,2021-12-06_09h58.48.412,premceCat2_ses-02_part-02_label-phase2,2020.2.10,MacIntel,60,,,,,,,,,,,,,,,,0,77,77,7,1,stimuli/objects/painttray.jpg,left,old,8,,,,,,,,
,,,,,,,,29,2021-12-06_09h58.48.412,premceCat2_ses-02_part-02_label-phase2,2020.2.10,MacIntel,60,,,,,right,2.2191,4,0.1363,,,,,,,,0,78,78,108,1,stimuli/objects/metalscissors.jpg,right,new,109,,,,,,,,
,,,,,,,,29,2021-12-06_09h58.48.412,premceCat2_ses-02_part-02_label-phase2,2020.2.10,MacIntel,60,,,,,right,2.1016,2,0.0807,,,,,,,,0,79,79,129,1,stimuli/objects/peeler01.jpg,left,old,130,,,,,,,,
,,,,,,,,29,2021-12-06_09h58.48.412,premceCat2_ses-02_part-02_label-phase2,2020.2.10,MacIntel,60,,,,,left,1.0966,4,0.1059,right,0.265,0,0,0,0,1,,,,,,,,,,,,,,,,,
,,,,,,,,29,2021-12-06_09h58.48.412,premceCat2_ses-02_part-02_label-phase2,2020.2.10,MacIntel,60,,,,,,,,,,,,,,,,0,80,80,53,1,stimuli/objects/binoculars01b.jpg,right,new,54,,,,,,,,
,,,,,,,,29,2021-12-06_09h58.48.412,premceCat2_ses-02_part-02_label-phase2,2020.2.10,MacIntel,60,,,,,right,1.1041,4,0.0004,,,,,,,,0,81,81,97,1,stimuli/objects/securitycamera.jpg,left,old,98,,,,,,,,
,,,,,,,,29,2021-12-06_09h58.48.412,premceCat2_ses-02_part-02_label-phase2,2020.2.10,MacIntel,60,,,,,right,1.3685,2,0.0005,,,,,,,,0,82,82,130,1,stimuli/objects/cooler01.jpg,left,old,131,,,,,,,,
,,,,,,,,29,2021-12-06_09h58.48.412,premceCat2_ses-02_part-02_label-phase2,2020.2.10,MacIntel,60,,,,,left,0.8602,4,0.0074,left,0.0908,0,0,0,0,1,,,,,,,,,,,,,,,,,
,,,,,,,,29,2021-12-06_09h58.48.412,premceCat2_ses-02_part-02_label-phase2,2020.2.10,MacIntel,60,,,,,,,,,,,,,,,,0,83,83,77,1,stimuli/objects/satellitedish01.jpg,left,old,78,,,,,,,,
,,,,,,,,29,2021-12-06_09h58.48.412,premceCat2_ses-02_part-02_label-phase2,2020.2.10,MacIntel,60,,,,,right,1.2722,4,0.1739,,,,,,,,0,84,84,96,1,stimuli/objects/golfbag.jpg,right,new,97,,,,,,,,
,,,,,,,,29,2021-12-06_09h58.48.412,premceCat2_ses-02_part-02_label-phase2,2020.2.10,MacIntel,60,,,,,right,1.1382,2,1.2393,,,,,,,,0,85,85,2,1,stimuli/objects/ipod.jpg,left,old,3,,,,,,,,
,,,,,,,,29,2021-12-06_09h58.48.412,premceCat2_ses-02_part-02_label-phase2,2020.2.10,MacIntel,60,,,,,left,1.0548,4,0.2406,left,0.0005,0,0,0,0,1,,,,,,,,,,,,,,,,,
,,,,,,,,29,2021-12-06_09h58.48.412,premceCat2_ses-02_part-02_label-phase2,2020.2.10,MacIntel,60,,,,,,,,,,,,,,,,0,86,86,15,1,stimuli/objects/watercooler.jpg,left,old,16,,,,,,,,
,,,,,,,,29,2021-12-06_09h58.48.412,premceCat2_ses-02_part-02_label-phase2,2020.2.10,MacIntel,60,,,,,right,1.0688,2,0.084,,,,,,,,0,87,87,13,1,stimuli/objects/bastingbrush.jpg,right,new,14,,,,,,,,
,,,,,,,,29,2021-12-06_09h58.48.412,premceCat2_ses-02_part-02_label-phase2,2020.2.10,MacIntel,60,,,,,right,0.836,2,0.1939,,,,,,,,0,88,88,51,1,stimuli/objects/webcam.jpg,right,new,52,,,,,,,,
,,,,,,,,29,2021-12-06_09h58.48.412,premceCat2_ses-02_part-02_label-phase2,2020.2.10,MacIntel,60,,,,,right,1.2116,3,0.6406,,,,,,,,0,89,89,136,1,stimuli/objects/battery02b.jpg,right,new,137,,,,,,,,
,,,,,,,,29,2021-12-06_09h58.48.412,premceCat2_ses-02_part-02_label-phase2,2020.2.10,MacIntel,60,,,,,right,0.8989,1,0.3223,,,,,,,,0,90,90,42,1,stimuli/objects/snowshoe.jpg,right,new,43,,,,,,,,
,,,,,,,,29,2021-12-06_09h58.48.412,premceCat2_ses-02_part-02_label-phase2,2020.2.10,MacIntel,60,,,,,right,0.8035,4,1.405,,,,,,,,0,91,91,140,1,stimuli/objects/canoepaddle02.jpg,left,old,141,,,,,,,,
,,,,,,,,29,2021-12-06_09h58.48.412,premceCat2_ses-02_part-02_label-phase2,2020.2.10,MacIntel,60,,,,,right,1.5512,2,0.2371,,,,,,,,0,92,92,72,1,stimuli/objects/cclamp.jpg,right,new,73,,,,,,,,
,,,,,,,,29,2021-12-06_09h58.48.412,premceCat2_ses-02_part-02_label-phase2,2020.2.10,MacIntel,60,,,,,left,1.2044,4,0.1431,left,0.0659,0,0,0,0,1,,,,,,,,,,,,,,,,,
,,,,,,,,29,2021-12-06_09h58.48.412,premceCat2_ses-02_part-02_label-phase2,2020.2.10,MacIntel,60,,,,,,,,,,,,,,,,0,93,93,142,1,stimuli/objects/martiniglass01b.jpg,left,old,143,,,,,,,,
,,,,,,,,29,2021-12-06_09h58.48.412,premceCat2_ses-02_part-02_label-phase2,2020.2.10,MacIntel,60,,,,,right,1.1498,2,0.8189,,,,,,,,0,94,94,93,1,stimuli/objects/icepack.jpg,right,new,94,,,,,,,,
,,,,,,,,29,2021-12-06_09h58.48.412,premceCat2_ses-02_part-02_label-phase2,2020.2.10,MacIntel,60,,,,,left,1.1139,4,0.1884,left,0.3728,0,0,0,0,1,,,,,,,,,,,,,,,,,
,,,,,,,,29,2021-12-06_09h58.48.412,premceCat2_ses-02_part-02_label-phase2,2020.2.10,MacIntel,60,,,,,,,,,,,,,,,,0,95,95,107,1,stimuli/objects/aluminiumfoil.jpg,left,old,108,,,,,,,,
,,,,,,,,29,2021-12-06_09h58.48.412,premceCat2_ses-02_part-02_label-phase2,2020.2.10,MacIntel,60,,,,,right,0.9012,3,0.5473,,,,,,,,0,96,96,106,1,stimuli/objects/minifridge.jpg,right,new,107,,,,,,,,
,,,,,,,,29,2021-12-06_09h58.48.412,premceCat2_ses-02_part-02_label-phase2,2020.2.10,MacIntel,60,,,,,right,1.2687,4,0.3492,,,,,,,,0,97,97,112,1,stimuli/objects/gymnasticring.jpg,right,new,113,,,,,,,,
,,,,,,,,29,2021-12-06_09h58.48.412,premceCat2_ses-02_part-02_label-phase2,2020.2.10,MacIntel,60,,,,,left,1.0819,4,0.3922,left,0.0754,0,0,0,0,1,,,,,,,,,,,,,,,,,
,,,,,,,,29,2021-12-06_09h58.48.412,premceCat2_ses-02_part-02_label-phase2,2020.2.10,MacIntel,60,,,,,,,,,,,,,,,,0,98,98,78,1,stimuli/objects/butterknife.jpg,left,old,79,,,,,,,,
,,,,,,,,29,2021-12-06_09h58.48.412,premceCat2_ses-02_part-02_label-phase2,2020.2.10,MacIntel,60,,,,,right,1.1909,4,0.3555,,,,,,,,0,99,99,131,1,stimuli/objects/spotlight.jpg,right,new,132,,,,,,,,
,,,,,,,,29,2021-12-06_09h58.48.412,premceCat2_ses-02_part-02_label-phase2,2020.2.10,MacIntel,60,,,,,right,0.6856,3,0.7056,,,,,,,,0,100,100,66,1,stimuli/objects/nailgun.jpg,right,new,67,,,,,,,,
,,,,,,,,29,2021-12-06_09h58.48.412,premceCat2_ses-02_part-02_label-phase2,2020.2.10,MacIntel,60,,,,,right,0.9345,4,0.3697,,,,,,,,0,101,101,59,1,stimuli/objects/studiolight.jpg,right,new,60,,,,,,,,
,,,,,,,,29,2021-12-06_09h58.48.412,premceCat2_ses-02_part-02_label-phase2,2020.2.10,MacIntel,60,,,,,right,1.8244,4,0.3944,,,,,,,,0,102,102,128,1,stimuli/objects/tripod01.jpg,right,new,129,,,,,,,,
,,,,,,,,29,2021-12-06_09h58.48.412,premceCat2_ses-02_part-02_label-phase2,2020.2.10,MacIntel,60,,,,,right,1.8218,2,0.9552,,,,,,,,0,103,103,14,1,stimuli/objects/puttyknife.jpg,left,old,15,,,,,,,,
,,,,,,,,29,2021-12-06_09h58.48.412,premceCat2_ses-02_part-02_label-phase2,2020.2.10,MacIntel,60,,,,,right,1.6484,1,0.2506,,,,,,,,0,104,104,126,1,stimuli/objects/tableknife02.jpg,right,new,127,,,,,,,,
,,,,,,,,29,2021-12-06_09h58.48.412,premceCat2_ses-02_part-02_label-phase2,2020.2.10,MacIntel,60,,,,,right,2.1215,2,0.4021,,,,,,,,0,105,105,19,1,stimuli/objects/peppermill02b.jpg,right,new,20,,,,,,,,
,,,,,,,,29,2021-12-06_09h58.48.412,premceCat2_ses-02_part-02_label-phase2,2020.2.10,MacIntel,60,,,,,right,1.9018,2,0.3077,,,,,,,,0,106,106,31,1,stimuli/objects/gastank.jpg,left,old,32,,,,,,,,
,,,,,,,,29,2021-12-06_09h58.48.412,premceCat2_ses-02_part-02_label-phase2,2020.2.10,MacIntel,60,,,,,left,1.7209,3,0.7678,left,0.8495,0,0,0,0,1,,,,,,,,,,,,,,,,,
,,,,,,,,29,2021-12-06_09h58.48.412,premceCat2_ses-02_part-02_label-phase2,2020.2.10,MacIntel,60,,,,,,,,,,,,,,,,0,107,107,24,1,stimuli/objects/skateboard.jpg,right,new,25,,,,,,,,
,,,,,,,,29,2021-12-06_09h58.48.412,premceCat2_ses-02_part-02_label-phase2,2020.2.10,MacIntel,60,,,,,left,1.0507,4,0.3043,left,0.2729,0,0,0,0,1,,,,,,,,,,,,,,,,,
,,,,,,,,29,2021-12-06_09h58.48.412,premceCat2_ses-02_part-02_label-phase2,2020.2.10,MacIntel,60,,,,,,,,,,,,,,,,0,108,108,137,1,stimuli/objects/surfboard.jpg,left,old,138,,,,,,,,
,,,,,,,,29,2021-12-06_09h58.48.412,premceCat2_ses-02_part-02_label-phase2,2020.2.10,MacIntel,60,,,,,left,0.8155,4,1.0891,left,0.186,0,0,0,0,1,,,,,,,,,,,,,,,,,
,,,,,,,,29,2021-12-06_09h58.48.412,premceCat2_ses-02_part-02_label-phase2,2020.2.10,MacIntel,60,,,,,,,,,,,,,,,,0,109,109,103,1,stimuli/objects/cork02.jpg,left,old,104,,,,,,,,
,,,,,,,,29,2021-12-06_09h58.48.412,premceCat2_ses-02_part-02_label-phase2,2020.2.10,MacIntel,60,,,,,left,2.5388,2,0.0768,right,0.0584,0,0,0,0,1,,,,,,,,,,,,,,,,,
,,,,,,,,29,2021-12-06_09h58.48.412,premceCat2_ses-02_part-02_label-phase2,2020.2.10,MacIntel,60,,,,,,,,,,,,,,,,0,110,110,40,1,stimuli/objects/level03a.jpg,left,old,41,,,,,,,,
,,,,,,,,29,2021-12-06_09h58.48.412,premceCat2_ses-02_part-02_label-phase2,2020.2.10,MacIntel,60,,,,,right,1.7129,2,0.2364,,,,,,,,0,111,111,11,1,stimuli/objects/videocamera01a.jpg,left,old,12,,,,,,,,
,,,,,,,,29,2021-12-06_09h58.48.412,premceCat2_ses-02_part-02_label-phase2,2020.2.10,MacIntel,60,,,,,left,1.1178,4,0.0125,left,0.1717,0,0,0,0,1,,,,,,,,,,,,,,,,,
,,,,,,,,29,2021-12-06_09h58.48.412,premceCat2_ses-02_part-02_label-phase2,2020.2.10,MacIntel,60,,,,,,,,,,,,,,,,0,112,112,34,1,stimuli/objects/lifesaver.jpg,left,old,35,,,,,,,,
,,,,,,,,29,2021-12-06_09h58.48.412,premceCat2_ses-02_part-02_label-phase2,2020.2.10,MacIntel,60,,,,,right,0.9065,4,0.2673,,,,,,,,0,113,113,8,1,stimuli/objects/basketballhoop01.jpg,right,new,9,,,,,,,,
,,,,,,,,29,2021-12-06_09h58.48.412,premceCat2_ses-02_part-02_label-phase2,2020.2.10,MacIntel,60,,,,,left,0.8001,4,0.3743,left,0.0004,0,0,0,0,1,,,,,,,,,,,,,,,,,
,,,,,,,,29,2021-12-06_09h58.48.412,premceCat2_ses-02_part-02_label-phase2,2020.2.10,MacIntel,60,,,,,,,,,,,,,,,,0,114,114,67,1,stimuli/objects/fishingrod.jpg,left,old,68,,,,,,,,
,,,,,,,,29,2021-12-06_09h58.48.412,premceCat2_ses-02_part-02_label-phase2,2020.2.10,MacIntel,60,,,,,right,1.5203,2,0.6444,,,,,,,,0,115,115,94,1,stimuli/objects/electricmixer.jpg,right,new,95,,,,,,,,
,,,,,,,,29,2021-12-06_09h58.48.412,premceCat2_ses-02_part-02_label-phase2,2020.2.10,MacIntel,60,,,,,right,1.184,2,0.3063,,,,,,,,0,116,116,102,1,stimuli/objects/backpack01a.jpg,left,old,103,,,,,,,,
,,,,,,,,29,2021-12-06_09h58.48.412,premceCat2_ses-02_part-02_label-phase2,2020.2.10,MacIntel,60,,,,,right,0.9922,3,0.0349,,,,,,,,0,117,117,63,1,stimuli/objects/butterdish.jpg,right,new,64,,,,,,,,
,,,,,,,,29,2021-12-06_09h58.48.412,premceCat2_ses-02_part-02_label-phase2,2020.2.10,MacIntel,60,,,,,right,0.9154,4,0.239,,,,,,,,0,118,118,110,1,stimuli/objects/lock03a.jpg,right,new,111,,,,,,,,
,,,,,,,,29,2021-12-06_09h58.48.412,premceCat2_ses-02_part-02_label-phase2,2020.2.10,MacIntel,60,,,,,right,0.8956,4,0.2054,,,,,,,,0,119,119,122,1,stimuli/objects/desktopcomputer.jpg,left,old,123,,,,,,,,
,,,,,,,,29,2021-12-06_09h58.48.412,premceCat2_ses-02_part-02_label-phase2,2020.2.10,MacIntel,60,,,,,right,2.2976,4,0.0895,,,,,,,,0,120,120,47,1,stimuli/objects/caulking.jpg,left,old,48,,,,,,,,
,,,,,,,,29,2021-12-06_09h58.48.412,premceCat2_ses-02_part-02_label-phase2,2020.2.10,MacIntel,60,,,,,left,1.186,3,0.2261,right,0.6551,0,0,0,0,1,,,,,,,,,,,,,,,,,
,,,,,,,,29,2021-12-06_09h58.48.412,premceCat2_ses-02_part-02_label-phase2,2020.2.10,MacIntel,60,,,,,,,,,,,,,,,,0,121,121,88,1,stimuli/objects/gravyboat.jpg,left,old,89,,,,,,,,
,,,,,,,,29,2021-12-06_09h58.48.412,premceCat2_ses-02_part-02_label-phase2,2020.2.10,MacIntel,60,,,,,left,1.4375,4,0.1563,left,0.1219,0,0,0,0,1,,,,,,,,,,,,,,,,,
,,,,,,,,29,2021-12-06_09h58.48.412,premceCat2_ses-02_part-02_label-phase2,2020.2.10,MacIntel,60,,,,,,,,,,,,,,,,0,122,122,118,1,stimuli/objects/adjustablewrench01b.jpg,left,old,119,,,,,,,,
,,,,,,,,29,2021-12-06_09h58.48.412,premceCat2_ses-02_part-02_label-phase2,2020.2.10,MacIntel,60,,,,,left,1.5832,4,0.2737,right,0.5706,0,0,0,0,1,,,,,,,,,,,,,,,,,
,,,,,,,,29,2021-12-06_09h58.48.412,premceCat2_ses-02_part-02_label-phase2,2020.2.10,MacIntel,60,,,,,,,,,,,,,,,,0,123,123,114,1,stimuli/objects/tray.jpg,left,old,115,,,,,,,,
,,,,,,,,29,2021-12-06_09h58.48.412,premceCat2_ses-02_part-02_label-phase2,2020.2.10,MacIntel,60,,,,,right,1.006,3,1.6747,,,,,,,,0,124,124,43,1,stimuli/objects/punchingball.jpg,right,new,44,,,,,,,,
,,,,,,,,29,2021-12-06_09h58.48.412,premceCat2_ses-02_part-02_label-phase2,2020.2.10,MacIntel,60,,,,,right,0.9855,2,0.1689,,,,,,,,0,125,125,35,1,stimuli/objects/alarmclock01.jpg,left,old,36,,,,,,,,
,,,,,,,,29,2021-12-06_09h58.48.412,premceCat2_ses-02_part-02_label-phase2,2020.2.10,MacIntel,60,,,,,right,0.8211,2,0.0907,,,,,,,,0,126,126,121,1,stimuli/objects/ceilingspeaker.jpg,right,new,122,,,,,,,,
,,,,,,,,29,2021-12-06_09h58.48.412,premceCat2_ses-02_part-02_label-phase2,2020.2.10,MacIntel,60,,,,,right,0.822,3,0.006,,,,,,,,0,127,127,46,1,stimuli/objects/walkman.jpg,right,new,47,,,,,,,,
,,,,,,,,29,2021-12-06_09h58.48.412,premceCat2_ses-02_part-02_label-phase2,2020.2.10,MacIntel,60,,,,,right,0.9703,4,0.0806,,,,,,,,0,128,128,119,1,stimuli/objects/tongs01b.jpg,right,new,120,,,,,,,,
,,,,,,,,29,2021-12-06_09h58.48.412,premceCat2_ses-02_part-02_label-phase2,2020.2.10,MacIntel,60,,,,,left,1.8283,2,0.2211,left,0.5566,0,0,0,0,1,,,,,,,,,,,,,,,,,
,,,,,,,,29,2021-12-06_09h58.48.412,premceCat2_ses-02_part-02_label-phase2,2020.2.10,MacIntel,60,,,,,,,,,,,,,,,,0,129,129,87,1,stimuli/objects/fanblades.jpg,left,old,88,,,,,,,,
,,,,,,,,29,2021-12-06_09h58.48.412,premceCat2_ses-02_part-02_label-phase2,2020.2.10,MacIntel,60,,,,,right,1.6829,3,0.337,,,,,,,,0,130,130,22,1,stimuli/objects/umbrella04.jpg,right,new,23,,,,,,,,
,,,,,,,,29,2021-12-06_09h58.48.412,premceCat2_ses-02_part-02_label-phase2,2020.2.10,MacIntel,60,,,,,right,0.8599,3,0.7709,,,,,,,,0,131,131,16,1,stimuli/objects/knifesharpener.jpg,left,old,17,,,,,,,,
,,,,,,,,29,2021-12-06_09h58.48.412,premceCat2_ses-02_part-02_label-phase2,2020.2.10,MacIntel,60,,,,,left,1.0721,4,0.1688,left,1.1654,0,0,0,0,1,,,,,,,,,,,,,,,,,
,,,,,,,,29,2021-12-06_09h58.48.412,premceCat2_ses-02_part-02_label-phase2,2020.2.10,MacIntel,60,,,,,,,,,,,,,,,,0,132,132,135,1,stimuli/objects/stubbywrench01a.jpg,left,old,136,,,,,,,,
,,,,,,,,29,2021-12-06_09h58.48.412,premceCat2_ses-02_part-02_label-phase2,2020.2.10,MacIntel,60,,,,,right,1.0191,4,0.1196,,,,,,,,0,133,133,38,1,stimuli/objects/soundmixer.jpg,right,new,39,,,,,,,,
,,,,,,,,29,2021-12-06_09h58.48.412,premceCat2_ses-02_part-02_label-phase2,2020.2.10,MacIntel,60,,,,,right,1.1766,4,0.1492,,,,,,,,0,134,134,85,1,stimuli/objects/golfball.jpg,right,new,86,,,,,,,,
,,,,,,,,29,2021-12-06_09h58.48.412,premceCat2_ses-02_part-02_label-phase2,2020.2.10,MacIntel,60,,,,,right,1.2861,2,0.5618,,,,,,,,0,135,135,57,1,stimuli/objects/audiocablesplitter.jpg,right,new,58,,,,,,,,
,,,,,,,,29,2021-12-06_09h58.48.412,premceCat2_ses-02_part-02_label-phase2,2020.2.10,MacIntel,60,,,,,left,1.5524,4,0.6859,left,0.1096,0,0,0,0,1,,,,,,,,,,,,,,,,,
,,,,,,,,29,2021-12-06_09h58.48.412,premceCat2_ses-02_part-02_label-phase2,2020.2.10,MacIntel,60,,,,,,,,,,,,,,,,0,136,136,36,1,stimuli/objects/slidetray.jpg,left,old,37,,,,,,,,
,,,,,,,,29,2021-12-06_09h58.48.412,premceCat2_ses-02_part-02_label-phase2,2020.2.10,MacIntel,60,,,,,left,1.7606,4,0.0005,right,0.1265,0,0,0,0,1,,,,,,,,,,,,,,,,,
,,,,,,,,29,2021-12-06_09h58.48.412,premceCat2_ses-02_part-02_label-phase2,2020.2.10,MacIntel,60,,,,,,,,,,,,,,,,0,137,137,10,1,stimuli/objects/dvdplayer.jpg,left,old,11,,,,,,,,
,,,,,,,,29,2021-12-06_09h58.48.412,premceCat2_ses-02_part-02_label-phase2,2020.2.10,MacIntel,60,,,,,right,0.9213,2,1.4199,,,,,,,,0,138,138,124,1,stimuli/objects/fishinghook03.jpg,left,old,125,,,,,,,,
,,,,,,,,29,2021-12-06_09h58.48.412,premceCat2_ses-02_part-02_label-phase2,2020.2.10,MacIntel,60,,,,,left,1.1512,4,0.2396,right,0.196,0,0,0,0,1,,,,,,,,,,,,,,,,,
,,,,,,,,29,2021-12-06_09h58.48.412,premceCat2_ses-02_part-02_label-phase2,2020.2.10,MacIntel,60,,,,,,,,,,,,,,,,0,139,139,104,1,stimuli/objects/lectern01.jpg,left,old,105,,,,,,,,
,,,,,,,,29,2021-12-06_09h58.48.412,premceCat2_ses-02_part-02_label-phase2,2020.2.10,MacIntel,60,,,,,right,0.965,1,0.7062,,,,,,,,0,140,140,90,1,stimuli/objects/carlighter02.jpg,right,new,91,,,,,,,,
,,,,,,,,29,2021-12-06_09h58.48.412,premceCat2_ses-02_part-02_label-phase2,2020.2.10,MacIntel,60,,,,,right,0.6018,3,0.0438,,,,,,,,0,141,141,48,1,stimuli/objects/bottlecap.jpg,left,old,49,,,,,,,,
,,,,,,,,29,2021-12-06_09h58.48.412,premceCat2_ses-02_part-02_label-phase2,2020.2.10,MacIntel,60,,,,,right,1.9811,4,0.454,,,,,,,,0,142,142,75,1,stimuli/objects/stepladder.jpg,right,new,76,,,,,,,,
,,,,,,,,29,2021-12-06_09h58.48.412,premceCat2_ses-02_part-02_label-phase2,2020.2.10,MacIntel,60,,,,,,,,,,,,,,,,,,,,,,,,,space,2.5948,0,1,1,0,1,condition_files/ImagesforRecog2_1.csv
