instructions_loop.thisRepN,instructions_loop.thisTrialN,instructions_loop.thisN,instructions_loop.thisIndex,instructions_loop.ran,text1,text2,text3,participant,date,expName,psychopyVersion,OS,frameRate,key_resp_2.keys,key_resp_2.rt,key_resp_3.keys,key_resp_3.rt,recog_resp.keys,recog_resp.rt,conf_resp.keys,conf_resp.rt,recog_loop.thisRepN,recog_loop.thisTrialN,recog_loop.thisN,recog_loop.thisIndex,recog_loop.ran,images,corr_ans,type,order,resp_assoc.keys,resp_assoc.rt,assoc_loop.thisRepN,assoc_loop.thisTrialN,assoc_loop.thisN,assoc_loop.thisIndex,assoc_loop.ran,key_resp_break.keys,key_resp_break.rt,list_loop.thisRepN,list_loop.thisTrialN,list_loop.thisN,list_loop.thisIndex,list_loop.ran,recog_list
0,0,0,0,1,Welcome to the last phase of this experiment!,.,Please press the space bar to continue,30,2021-12-06_11h32.00.442,premceCat2_ses-02_part-02_label-phase2,2020.2.10,MacIntel,60,,,,,,,,,,,,,,,,,,,,,,,,,,,,,,,,
0,1,1,1,1,.,"In this phase, you will see some objects. 

For each object, you should indicate whether you have seen it before during the experiment.

Press LEFT ARROW for YES
Press RIGHT ARROW for NO

",Please press the space bar to continue ,30,2021-12-06_11h32.00.442,premceCat2_ses-02_part-02_label-phase2,2020.2.10,MacIntel,60,,,,,,,,,,,,,,,,,,,,,,,,,,,,,,,,
0,2,2,2,1,.,"After that, you will be asked how confident you are of your choice.

Please rate the confidence in your choice with the numbers from 1 to 4 of your keyboard. 

The numbers correspond to:

1 = Very unsure
2 = Unsure
3 = Sure
4 = Very Sure",Please press the space bar to continue,30,2021-12-06_11h32.00.442,premceCat2_ses-02_part-02_label-phase2,2020.2.10,MacIntel,60,,,,,,,,,,,,,,,,,,,,,,,,,,,,,,,,
,,,,,,,,30,2021-12-06_11h32.00.442,premceCat2_ses-02_part-02_label-phase2,2020.2.10,MacIntel,60,space,8.0631,space,7.7432,right,2.2547,4,3.8202,0,0,0,23,1,stimuli/objects/football.jpg,right,new,24,,,,,,,,,,,,,,,
,,,,,,,,30,2021-12-06_11h32.00.442,premceCat2_ses-02_part-02_label-phase2,2020.2.10,MacIntel,60,,,,,right,6.172,2,1.4296,0,1,1,18,1,stimuli/objects/cashregister01.jpg,right,new,19,,,,,,,,,,,,,,,
,,,,,,,,30,2021-12-06_11h32.00.442,premceCat2_ses-02_part-02_label-phase2,2020.2.10,MacIntel,60,,,,,right,3.4383,1,1.6358,0,2,2,41,1,stimuli/objects/pylon01.jpg,right,new,42,,,,,,,,,,,,,,,
,,,,,,,,30,2021-12-06_11h32.00.442,premceCat2_ses-02_part-02_label-phase2,2020.2.10,MacIntel,60,,,,,right,1.4251,4,0.6521,0,3,3,63,1,stimuli/objects/butterdish.jpg,right,new,64,,,,,,,,,,,,,,,
,,,,,,,,30,2021-12-06_11h32.00.442,premceCat2_ses-02_part-02_label-phase2,2020.2.10,MacIntel,60,,,,,right,1.2382,4,0.4502,0,4,4,134,1,stimuli/objects/screwdriver04b.jpg,right,new,135,,,,,,,,,,,,,,,
,,,,,,,,30,2021-12-06_11h32.00.442,premceCat2_ses-02_part-02_label-phase2,2020.2.10,MacIntel,60,,,,,right,1.1257,4,0.5621,0,5,5,94,1,stimuli/objects/electricmixer.jpg,right,new,95,,,,,,,,,,,,,,,
,,,,,,,,30,2021-12-06_11h32.00.442,premceCat2_ses-02_part-02_label-phase2,2020.2.10,MacIntel,60,,,,,right,1.3957,3,0.5827,0,6,6,6,1,stimuli/objects/saladspinner.jpg,left,old,7,,,,,,,,,,,,,,,
,,,,,,,,30,2021-12-06_11h32.00.442,premceCat2_ses-02_part-02_label-phase2,2020.2.10,MacIntel,60,,,,,left,1.091,4,0.412,,,,,,,,,,right,5.0527,0,0,0,0,1,,,,,,,,
,,,,,,,,30,2021-12-06_11h32.00.442,premceCat2_ses-02_part-02_label-phase2,2020.2.10,MacIntel,60,,,,,,,,,0,7,7,37,1,stimuli/objects/setsquare.jpg,left,old,38,,,,,,,,,,,,,,,
,,,,,,,,30,2021-12-06_11h32.00.442,premceCat2_ses-02_part-02_label-phase2,2020.2.10,MacIntel,60,,,,,left,1.4851,4,0.7599,,,,,,,,,,left,1.9437,0,0,0,0,1,,,,,,,,
,,,,,,,,30,2021-12-06_11h32.00.442,premceCat2_ses-02_part-02_label-phase2,2020.2.10,MacIntel,60,,,,,,,,,0,8,8,120,1,stimuli/objects/martiniglass01b.jpg,left,old,121,,,,,,,,,,,,,,,
,,,,,,,,30,2021-12-06_11h32.00.442,premceCat2_ses-02_part-02_label-phase2,2020.2.10,MacIntel,60,,,,,left,1.5051,4,0.7331,,,,,,,,,,right,1.126,0,0,0,0,1,,,,,,,,
,,,,,,,,30,2021-12-06_11h32.00.442,premceCat2_ses-02_part-02_label-phase2,2020.2.10,MacIntel,60,,,,,,,,,0,9,9,87,1,stimuli/objects/dvdplayer.jpg,left,old,88,,,,,,,,,,,,,,,
,,,,,,,,30,2021-12-06_11h32.00.442,premceCat2_ses-02_part-02_label-phase2,2020.2.10,MacIntel,60,,,,,left,1.1198,4,0.7282,,,,,,,,,,left,0.4954,0,0,0,0,1,,,,,,,,
,,,,,,,,30,2021-12-06_11h32.00.442,premceCat2_ses-02_part-02_label-phase2,2020.2.10,MacIntel,60,,,,,,,,,0,10,10,123,1,stimuli/objects/cowbell.jpg,left,old,124,,,,,,,,,,,,,,,
,,,,,,,,30,2021-12-06_11h32.00.442,premceCat2_ses-02_part-02_label-phase2,2020.2.10,MacIntel,60,,,,,left,1.957,4,1.2299,,,,,,,,,,right,0.7928,0,0,0,0,1,,,,,,,,
,,,,,,,,30,2021-12-06_11h32.00.442,premceCat2_ses-02_part-02_label-phase2,2020.2.10,MacIntel,60,,,,,,,,,0,11,11,44,1,stimuli/objects/level03a.jpg,left,old,45,,,,,,,,,,,,,,,
,,,,,,,,30,2021-12-06_11h32.00.442,premceCat2_ses-02_part-02_label-phase2,2020.2.10,MacIntel,60,,,,,left,1.0206,4,0.3958,,,,,,,,,,right,0.2956,0,0,0,0,1,,,,,,,,
,,,,,,,,30,2021-12-06_11h32.00.442,premceCat2_ses-02_part-02_label-phase2,2020.2.10,MacIntel,60,,,,,,,,,0,12,12,132,1,stimuli/objects/expansioncard.jpg,left,old,133,,,,,,,,,,,,,,,
,,,,,,,,30,2021-12-06_11h32.00.442,premceCat2_ses-02_part-02_label-phase2,2020.2.10,MacIntel,60,,,,,right,1.8051,3,0.5957,0,13,13,57,1,stimuli/objects/audiocablesplitter.jpg,right,new,58,,,,,,,,,,,,,,,
,,,,,,,,30,2021-12-06_11h32.00.442,premceCat2_ses-02_part-02_label-phase2,2020.2.10,MacIntel,60,,,,,left,1.7397,4,0.4294,,,,,,,,,,left,0.3504,0,0,0,0,1,,,,,,,,
,,,,,,,,30,2021-12-06_11h32.00.442,premceCat2_ses-02_part-02_label-phase2,2020.2.10,MacIntel,60,,,,,,,,,0,14,14,85,1,stimuli/objects/golfball.jpg,right,new,86,,,,,,,,,,,,,,,
,,,,,,,,30,2021-12-06_11h32.00.442,premceCat2_ses-02_part-02_label-phase2,2020.2.10,MacIntel,60,,,,,left,1.0848,4,0.8814,,,,,,,,,,right,0.3159,0,0,0,0,1,,,,,,,,
,,,,,,,,30,2021-12-06_11h32.00.442,premceCat2_ses-02_part-02_label-phase2,2020.2.10,MacIntel,60,,,,,,,,,0,15,15,58,1,stimuli/objects/rope03.jpg,left,old,59,,,,,,,,,,,,,,,
,,,,,,,,30,2021-12-06_11h32.00.442,premceCat2_ses-02_part-02_label-phase2,2020.2.10,MacIntel,60,,,,,left,0.806,4,0.6003,,,,,,,,,,right,0.2989,0,0,0,0,1,,,,,,,,
,,,,,,,,30,2021-12-06_11h32.00.442,premceCat2_ses-02_part-02_label-phase2,2020.2.10,MacIntel,60,,,,,,,,,0,16,16,97,1,stimuli/objects/satellitedish01.jpg,left,old,98,,,,,,,,,,,,,,,
,,,,,,,,30,2021-12-06_11h32.00.442,premceCat2_ses-02_part-02_label-phase2,2020.2.10,MacIntel,60,,,,,left,0.8904,4,0.56,,,,,,,,,,right,0.3289,0,0,0,0,1,,,,,,,,
,,,,,,,,30,2021-12-06_11h32.00.442,premceCat2_ses-02_part-02_label-phase2,2020.2.10,MacIntel,60,,,,,,,,,0,17,17,98,1,stimuli/objects/podium.jpg,left,old,99,,,,,,,,,,,,,,,
,,,,,,,,30,2021-12-06_11h32.00.442,premceCat2_ses-02_part-02_label-phase2,2020.2.10,MacIntel,60,,,,,right,1.1084,2,1.4952,0,18,18,49,1,stimuli/objects/canoepaddle02.jpg,left,old,50,,,,,,,,,,,,,,,
,,,,,,,,30,2021-12-06_11h32.00.442,premceCat2_ses-02_part-02_label-phase2,2020.2.10,MacIntel,60,,,,,left,0.8869,4,0.3469,,,,,,,,,,left,0.2972,0,0,0,0,1,,,,,,,,
,,,,,,,,30,2021-12-06_11h32.00.442,premceCat2_ses-02_part-02_label-phase2,2020.2.10,MacIntel,60,,,,,,,,,0,19,19,27,1,stimuli/objects/downhillski.jpg,left,old,28,,,,,,,,,,,,,,,
,,,,,,,,30,2021-12-06_11h32.00.442,premceCat2_ses-02_part-02_label-phase2,2020.2.10,MacIntel,60,,,,,left,0.8248,4,0.4393,,,,,,,,,,left,0.4778,0,0,0,0,1,,,,,,,,
,,,,,,,,30,2021-12-06_11h32.00.442,premceCat2_ses-02_part-02_label-phase2,2020.2.10,MacIntel,60,,,,,,,,,0,20,20,29,1,stimuli/objects/djmixer02.jpg,left,old,30,,,,,,,,,,,,,,,
,,,,,,,,30,2021-12-06_11h32.00.442,premceCat2_ses-02_part-02_label-phase2,2020.2.10,MacIntel,60,,,,,right,0.8724,3,2.0609,0,21,21,100,1,stimuli/objects/remotecontrol04.jpg,right,new,101,,,,,,,,,,,,,,,
,,,,,,,,30,2021-12-06_11h32.00.442,premceCat2_ses-02_part-02_label-phase2,2020.2.10,MacIntel,60,,,,,left,0.7567,4,0.4445,,,,,,,,,,right,0.3481,0,0,0,0,1,,,,,,,,
,,,,,,,,30,2021-12-06_11h32.00.442,premceCat2_ses-02_part-02_label-phase2,2020.2.10,MacIntel,60,,,,,,,,,0,22,22,31,1,stimuli/objects/ladder.jpg,left,old,32,,,,,,,,,,,,,,,
,,,,,,,,30,2021-12-06_11h32.00.442,premceCat2_ses-02_part-02_label-phase2,2020.2.10,MacIntel,60,,,,,left,1.67,4,0.9281,,,,,,,,,,left,0.2608,0,0,0,0,1,,,,,,,,
,,,,,,,,30,2021-12-06_11h32.00.442,premceCat2_ses-02_part-02_label-phase2,2020.2.10,MacIntel,60,,,,,,,,,0,23,23,8,1,stimuli/objects/basketballhoop01.jpg,right,new,9,,,,,,,,,,,,,,,
,,,,,,,,30,2021-12-06_11h32.00.442,premceCat2_ses-02_part-02_label-phase2,2020.2.10,MacIntel,60,,,,,left,0.926,4,0.3663,,,,,,,,,,left,0.26,0,0,0,0,1,,,,,,,,
,,,,,,,,30,2021-12-06_11h32.00.442,premceCat2_ses-02_part-02_label-phase2,2020.2.10,MacIntel,60,,,,,,,,,0,24,24,84,1,stimuli/objects/catchermask.jpg,left,old,85,,,,,,,,,,,,,,,
,,,,,,,,30,2021-12-06_11h32.00.442,premceCat2_ses-02_part-02_label-phase2,2020.2.10,MacIntel,60,,,,,right,1.5721,3,0.8973,0,25,25,67,1,stimuli/objects/cooler01.jpg,left,old,68,,,,,,,,,,,,,,,
,,,,,,,,30,2021-12-06_11h32.00.442,premceCat2_ses-02_part-02_label-phase2,2020.2.10,MacIntel,60,,,,,left,1.962,3,0.7811,,,,,,,,,,right,0.5318,0,0,0,0,1,,,,,,,,
,,,,,,,,30,2021-12-06_11h32.00.442,premceCat2_ses-02_part-02_label-phase2,2020.2.10,MacIntel,60,,,,,,,,,0,26,26,4,1,stimuli/objects/microphone01.jpg,right,new,5,,,,,,,,,,,,,,,
,,,,,,,,30,2021-12-06_11h32.00.442,premceCat2_ses-02_part-02_label-phase2,2020.2.10,MacIntel,60,,,,,left,0.8539,4,0.4,,,,,,,,,,left,0.514,0,0,0,0,1,,,,,,,,
,,,,,,,,30,2021-12-06_11h32.00.442,premceCat2_ses-02_part-02_label-phase2,2020.2.10,MacIntel,60,,,,,,,,,0,27,27,11,1,stimuli/objects/usbkey.jpg,left,old,12,,,,,,,,,,,,,,,
,,,,,,,,30,2021-12-06_11h32.00.442,premceCat2_ses-02_part-02_label-phase2,2020.2.10,MacIntel,60,,,,,left,2.3401,4,0.5789,,,,,,,,,,left,0.5306,0,0,0,0,1,,,,,,,,
,,,,,,,,30,2021-12-06_11h32.00.442,premceCat2_ses-02_part-02_label-phase2,2020.2.10,MacIntel,60,,,,,,,,,0,28,28,19,1,stimuli/objects/peppermill02b.jpg,right,new,20,,,,,,,,,,,,,,,
,,,,,,,,30,2021-12-06_11h32.00.442,premceCat2_ses-02_part-02_label-phase2,2020.2.10,MacIntel,60,,,,,left,1.776,4,0.5461,,,,,,,,,,right,0.4178,0,0,0,0,1,,,,,,,,
,,,,,,,,30,2021-12-06_11h32.00.442,premceCat2_ses-02_part-02_label-phase2,2020.2.10,MacIntel,60,,,,,,,,,0,29,29,40,1,stimuli/objects/sledgehammer.jpg,left,old,41,,,,,,,,,,,,,,,
,,,,,,,,30,2021-12-06_11h32.00.442,premceCat2_ses-02_part-02_label-phase2,2020.2.10,MacIntel,60,,,,,right,2.0551,2,1.0689,0,30,30,136,1,stimuli/objects/battery02b.jpg,right,new,137,,,,,,,,,,,,,,,
,,,,,,,,30,2021-12-06_11h32.00.442,premceCat2_ses-02_part-02_label-phase2,2020.2.10,MacIntel,60,,,,,left,1.3749,4,0.4123,,,,,,,,,,left,0.3266,0,0,0,0,1,,,,,,,,
,,,,,,,,30,2021-12-06_11h32.00.442,premceCat2_ses-02_part-02_label-phase2,2020.2.10,MacIntel,60,,,,,,,,,0,31,31,48,1,stimuli/objects/woodenspoon.jpg,left,old,49,,,,,,,,,,,,,,,
,,,,,,,,30,2021-12-06_11h32.00.442,premceCat2_ses-02_part-02_label-phase2,2020.2.10,MacIntel,60,,,,,right,1.3354,2,1.0328,0,32,32,103,1,stimuli/objects/oven.jpg,left,old,104,,,,,,,,,,,,,,,
,,,,,,,,30,2021-12-06_11h32.00.442,premceCat2_ses-02_part-02_label-phase2,2020.2.10,MacIntel,60,,,,,left,0.9231,4,0.8006,,,,,,,,,,left,1.5342,0,0,0,0,1,,,,,,,,
,,,,,,,,30,2021-12-06_11h32.00.442,premceCat2_ses-02_part-02_label-phase2,2020.2.10,MacIntel,60,,,,,,,,,0,33,33,130,1,stimuli/objects/bikewheel.jpg,left,old,131,,,,,,,,,,,,,,,
,,,,,,,,30,2021-12-06_11h32.00.442,premceCat2_ses-02_part-02_label-phase2,2020.2.10,MacIntel,60,,,,,left,1.5997,4,0.3258,,,,,,,,,,right,0.3156,0,0,0,0,1,,,,,,,,
,,,,,,,,30,2021-12-06_11h32.00.442,premceCat2_ses-02_part-02_label-phase2,2020.2.10,MacIntel,60,,,,,,,,,0,34,34,28,1,stimuli/objects/baseballbat.jpg,left,old,29,,,,,,,,,,,,,,,
,,,,,,,,30,2021-12-06_11h32.00.442,premceCat2_ses-02_part-02_label-phase2,2020.2.10,MacIntel,60,,,,,left,0.7729,4,0.3184,,,,,,,,,,right,0.2944,0,0,0,0,1,,,,,,,,
,,,,,,,,30,2021-12-06_11h32.00.442,premceCat2_ses-02_part-02_label-phase2,2020.2.10,MacIntel,60,,,,,,,,,0,35,35,34,1,stimuli/objects/treadmill.jpg,left,old,35,,,,,,,,,,,,,,,
,,,,,,,,30,2021-12-06_11h32.00.442,premceCat2_ses-02_part-02_label-phase2,2020.2.10,MacIntel,60,,,,,left,1.2867,4,0.6983,,,,,,,,,,left,0.2487,0,0,0,0,1,,,,,,,,
,,,,,,,,30,2021-12-06_11h32.00.442,premceCat2_ses-02_part-02_label-phase2,2020.2.10,MacIntel,60,,,,,,,,,0,36,36,92,1,stimuli/objects/carjack.jpg,right,new,93,,,,,,,,,,,,,,,
,,,,,,,,30,2021-12-06_11h32.00.442,premceCat2_ses-02_part-02_label-phase2,2020.2.10,MacIntel,60,,,,,right,1.7525,2,0.4959,0,37,37,76,1,stimuli/objects/megaphone.jpg,right,new,77,,,,,,,,,,,,,,,
,,,,,,,,30,2021-12-06_11h32.00.442,premceCat2_ses-02_part-02_label-phase2,2020.2.10,MacIntel,60,,,,,left,0.9361,4,0.4635,,,,,,,,,,right,0.2463,0,0,0,0,1,,,,,,,,
,,,,,,,,30,2021-12-06_11h32.00.442,premceCat2_ses-02_part-02_label-phase2,2020.2.10,MacIntel,60,,,,,,,,,0,38,38,122,1,stimuli/objects/atm.jpg,left,old,123,,,,,,,,,,,,,,,
,,,,,,,,30,2021-12-06_11h32.00.442,premceCat2_ses-02_part-02_label-phase2,2020.2.10,MacIntel,60,,,,,left,0.8535,4,0.3476,,,,,,,,,,left,0.2219,0,0,0,0,1,,,,,,,,
,,,,,,,,30,2021-12-06_11h32.00.442,premceCat2_ses-02_part-02_label-phase2,2020.2.10,MacIntel,60,,,,,,,,,0,39,39,74,1,stimuli/objects/baseball01a.jpg,left,old,75,,,,,,,,,,,,,,,
,,,,,,,,30,2021-12-06_11h32.00.442,premceCat2_ses-02_part-02_label-phase2,2020.2.10,MacIntel,60,,,,,right,1.0896,2,0.2625,0,40,40,71,1,stimuli/objects/faxmachine.jpg,right,new,72,,,,,,,,,,,,,,,
,,,,,,,,30,2021-12-06_11h32.00.442,premceCat2_ses-02_part-02_label-phase2,2020.2.10,MacIntel,60,,,,,left,0.9328,4,0.5281,,,,,,,,,,right,0.3115,0,0,0,0,1,,,,,,,,
,,,,,,,,30,2021-12-06_11h32.00.442,premceCat2_ses-02_part-02_label-phase2,2020.2.10,MacIntel,60,,,,,,,,,0,41,41,52,1,stimuli/objects/cookiecutter.jpg,left,old,53,,,,,,,,,,,,,,,
,,,,,,,,30,2021-12-06_11h32.00.442,premceCat2_ses-02_part-02_label-phase2,2020.2.10,MacIntel,60,,,,,left,1.2396,4,0.682,,,,,,,,,,right,0.2711,0,0,0,0,1,,,,,,,,
,,,,,,,,30,2021-12-06_11h32.00.442,premceCat2_ses-02_part-02_label-phase2,2020.2.10,MacIntel,60,,,,,,,,,0,42,42,64,1,stimuli/objects/axe01.jpg,left,old,65,,,,,,,,,,,,,,,
,,,,,,,,30,2021-12-06_11h32.00.442,premceCat2_ses-02_part-02_label-phase2,2020.2.10,MacIntel,60,,,,,right,1.1258,4,0.6304,0,43,43,125,1,stimuli/objects/shoulderpad.jpg,right,new,126,,,,,,,,,,,,,,,
,,,,,,,,30,2021-12-06_11h32.00.442,premceCat2_ses-02_part-02_label-phase2,2020.2.10,MacIntel,60,,,,,left,1.0368,4,0.3834,,,,,,,,,,right,0.1952,0,0,0,0,1,,,,,,,,
,,,,,,,,30,2021-12-06_11h32.00.442,premceCat2_ses-02_part-02_label-phase2,2020.2.10,MacIntel,60,,,,,,,,,0,44,44,142,1,stimuli/objects/funnel.jpg,left,old,143,,,,,,,,,,,,,,,
,,,,,,,,30,2021-12-06_11h32.00.442,premceCat2_ses-02_part-02_label-phase2,2020.2.10,MacIntel,60,,,,,right,1.2672,3,0.3447,0,45,45,42,1,stimuli/objects/snowshoe.jpg,right,new,43,,,,,,,,,,,,,,,
,,,,,,,,30,2021-12-06_11h32.00.442,premceCat2_ses-02_part-02_label-phase2,2020.2.10,MacIntel,60,,,,,right,1.3198,1,3.4944,0,46,46,79,1,stimuli/objects/wire.jpg,left,old,80,,,,,,,,,,,,,,,
,,,,,,,,30,2021-12-06_11h32.00.442,premceCat2_ses-02_part-02_label-phase2,2020.2.10,MacIntel,60,,,,,left,1.8515,4,0.3486,,,,,,,,,,left,0.493,0,0,0,0,1,,,,,,,,
,,,,,,,,30,2021-12-06_11h32.00.442,premceCat2_ses-02_part-02_label-phase2,2020.2.10,MacIntel,60,,,,,,,,,0,47,47,101,1,stimuli/objects/gps.jpg,left,old,102,,,,,,,,,,,,,,,
,,,,,,,,30,2021-12-06_11h32.00.442,premceCat2_ses-02_part-02_label-phase2,2020.2.10,MacIntel,60,,,,,left,1.1185,4,0.495,,,,,,,,,,right,0.2748,0,0,0,0,1,,,,,,,,
,,,,,,,,30,2021-12-06_11h32.00.442,premceCat2_ses-02_part-02_label-phase2,2020.2.10,MacIntel,60,,,,,,,,,0,48,48,89,1,stimuli/objects/ducttape.jpg,right,new,90,,,,,,,,,,,,,,,
,,,,,,,,30,2021-12-06_11h32.00.442,premceCat2_ses-02_part-02_label-phase2,2020.2.10,MacIntel,60,,,,,right,0.9607,3,0.3836,0,49,49,16,1,stimuli/objects/pressurewasher.jpg,left,old,17,,,,,,,,,,,,,,,
,,,,,,,,30,2021-12-06_11h32.00.442,premceCat2_ses-02_part-02_label-phase2,2020.2.10,MacIntel,60,,,,,right,1.5011,3,0.4814,0,50,50,7,1,stimuli/objects/jigsaw.jpg,left,old,8,,,,,,,,,,,,,,,
,,,,,,,,30,2021-12-06_11h32.00.442,premceCat2_ses-02_part-02_label-phase2,2020.2.10,MacIntel,60,,,,,left,0.9679,4,0.3123,,,,,,,,,,right,0.3066,0,0,0,0,1,,,,,,,,
,,,,,,,,30,2021-12-06_11h32.00.442,premceCat2_ses-02_part-02_label-phase2,2020.2.10,MacIntel,60,,,,,,,,,0,51,51,14,1,stimuli/objects/aircompressor.jpg,left,old,15,,,,,,,,,,,,,,,
,,,,,,,,30,2021-12-06_11h32.00.442,premceCat2_ses-02_part-02_label-phase2,2020.2.10,MacIntel,60,,,,,left,1.3726,4,0.9528,,,,,,,,,,left,0.3955,0,0,0,0,1,,,,,,,,
,,,,,,,,30,2021-12-06_11h32.00.442,premceCat2_ses-02_part-02_label-phase2,2020.2.10,MacIntel,60,,,,,,,,,0,52,52,102,1,stimuli/objects/hockeygoalieglove.jpg,left,old,103,,,,,,,,,,,,,,,
,,,,,,,,30,2021-12-06_11h32.00.442,premceCat2_ses-02_part-02_label-phase2,2020.2.10,MacIntel,60,,,,,right,0.9532,4,0.2795,0,53,53,20,1,stimuli/objects/laptop01a.jpg,right,new,21,,,,,,,,,,,,,,,
,,,,,,,,30,2021-12-06_11h32.00.442,premceCat2_ses-02_part-02_label-phase2,2020.2.10,MacIntel,60,,,,,right,2.0512,3,0.4123,0,54,54,59,1,stimuli/objects/studiolight.jpg,right,new,60,,,,,,,,,,,,,,,
,,,,,,,,30,2021-12-06_11h32.00.442,premceCat2_ses-02_part-02_label-phase2,2020.2.10,MacIntel,60,,,,,left,1.1771,4,0.3462,,,,,,,,,,left,0.3091,0,0,0,0,1,,,,,,,,
,,,,,,,,30,2021-12-06_11h32.00.442,premceCat2_ses-02_part-02_label-phase2,2020.2.10,MacIntel,60,,,,,,,,,0,55,55,3,1,stimuli/objects/bowl02a.jpg,left,old,4,,,,,,,,,,,,,,,
,,,,,,,,30,2021-12-06_11h32.00.442,premceCat2_ses-02_part-02_label-phase2,2020.2.10,MacIntel,60,,,,,left,1.3423,4,0.4067,,,,,,,,,,right,0.2956,0,0,0,0,1,,,,,,,,
,,,,,,,,30,2021-12-06_11h32.00.442,premceCat2_ses-02_part-02_label-phase2,2020.2.10,MacIntel,60,,,,,,,,,0,56,56,35,1,stimuli/objects/phonejack.jpg,left,old,36,,,,,,,,,,,,,,,
,,,,,,,,30,2021-12-06_11h32.00.442,premceCat2_ses-02_part-02_label-phase2,2020.2.10,MacIntel,60,,,,,right,1.0187,4,0.2628,0,57,57,139,1,stimuli/objects/frisbee.jpg,right,new,140,,,,,,,,,,,,,,,
,,,,,,,,30,2021-12-06_11h32.00.442,premceCat2_ses-02_part-02_label-phase2,2020.2.10,MacIntel,60,,,,,right,0.938,4,0.2945,0,58,58,129,1,stimuli/objects/gasburner.jpg,left,old,130,,,,,,,,,,,,,,,
,,,,,,,,30,2021-12-06_11h32.00.442,premceCat2_ses-02_part-02_label-phase2,2020.2.10,MacIntel,60,,,,,right,1.1376,3,0.3106,0,59,59,138,1,stimuli/objects/taperecorder.jpg,right,new,139,,,,,,,,,,,,,,,
,,,,,,,,30,2021-12-06_11h32.00.442,premceCat2_ses-02_part-02_label-phase2,2020.2.10,MacIntel,60,,,,,right,1.1047,3,0.2673,0,60,60,55,1,stimuli/objects/toolbox02.jpg,right,new,56,,,,,,,,,,,,,,,
,,,,,,,,30,2021-12-06_11h32.00.442,premceCat2_ses-02_part-02_label-phase2,2020.2.10,MacIntel,60,,,,,left,0.939,4,0.2824,,,,,,,,,,left,1.0093,0,0,0,0,1,,,,,,,,
,,,,,,,,30,2021-12-06_11h32.00.442,premceCat2_ses-02_part-02_label-phase2,2020.2.10,MacIntel,60,,,,,,,,,0,61,61,124,1,stimuli/objects/bikepump01.jpg,left,old,125,,,,,,,,,,,,,,,
,,,,,,,,30,2021-12-06_11h32.00.442,premceCat2_ses-02_part-02_label-phase2,2020.2.10,MacIntel,60,,,,,right,1.6883,3,0.7251,0,62,62,47,1,stimuli/objects/flooringstapler.jpg,left,old,48,,,,,,,,,,,,,,,
,,,,,,,,30,2021-12-06_11h32.00.442,premceCat2_ses-02_part-02_label-phase2,2020.2.10,MacIntel,60,,,,,right,1.3782,2,0.4454,0,63,63,116,1,stimuli/objects/radio01.jpg,right,new,117,,,,,,,,,,,,,,,
,,,,,,,,30,2021-12-06_11h32.00.442,premceCat2_ses-02_part-02_label-phase2,2020.2.10,MacIntel,60,,,,,left,0.9545,4,0.1779,,,,,,,,,,right,0.8623,0,0,0,0,1,,,,,,,,
,,,,,,,,30,2021-12-06_11h32.00.442,premceCat2_ses-02_part-02_label-phase2,2020.2.10,MacIntel,60,,,,,,,,,0,64,64,45,1,stimuli/objects/measuringcup01.jpg,left,old,46,,,,,,,,,,,,,,,
,,,,,,,,30,2021-12-06_11h32.00.442,premceCat2_ses-02_part-02_label-phase2,2020.2.10,MacIntel,60,,,,,left,1.2265,4,0.2647,,,,,,,,,,left,0.282,0,0,0,0,1,,,,,,,,
,,,,,,,,30,2021-12-06_11h32.00.442,premceCat2_ses-02_part-02_label-phase2,2020.2.10,MacIntel,60,,,,,,,,,0,65,65,5,1,stimuli/objects/lamp04a.jpg,left,old,6,,,,,,,,,,,,,,,
,,,,,,,,30,2021-12-06_11h32.00.442,premceCat2_ses-02_part-02_label-phase2,2020.2.10,MacIntel,60,,,,,left,0.9774,4,0.215,,,,,,,,,,right,0.266,0,0,0,0,1,,,,,,,,
,,,,,,,,30,2021-12-06_11h32.00.442,premceCat2_ses-02_part-02_label-phase2,2020.2.10,MacIntel,60,,,,,,,,,0,66,66,104,1,stimuli/objects/lightbulb01.jpg,left,old,105,,,,,,,,,,,,,,,
,,,,,,,,30,2021-12-06_11h32.00.442,premceCat2_ses-02_part-02_label-phase2,2020.2.10,MacIntel,60,,,,,left,0.9526,4,0.2638,,,,,,,,,,left,0.3018,0,0,0,0,1,,,,,,,,
,,,,,,,,30,2021-12-06_11h32.00.442,premceCat2_ses-02_part-02_label-phase2,2020.2.10,MacIntel,60,,,,,,,,,0,67,67,56,1,stimuli/objects/cookingpot.jpg,left,old,57,,,,,,,,,,,,,,,
,,,,,,,,30,2021-12-06_11h32.00.442,premceCat2_ses-02_part-02_label-phase2,2020.2.10,MacIntel,60,,,,,right,1.2702,3,1.0811,0,68,68,109,1,stimuli/objects/winerack.jpg,right,new,110,,,,,,,,,,,,,,,
,,,,,,,,30,2021-12-06_11h32.00.442,premceCat2_ses-02_part-02_label-phase2,2020.2.10,MacIntel,60,,,,,left,0.887,4,0.2752,,,,,,,,,,left,0.3003,0,0,0,0,1,,,,,,,,
,,,,,,,,30,2021-12-06_11h32.00.442,premceCat2_ses-02_part-02_label-phase2,2020.2.10,MacIntel,60,,,,,,,,,0,69,69,118,1,stimuli/objects/toyhardhat.jpg,left,old,119,,,,,,,,,,,,,,,
,,,,,,,,30,2021-12-06_11h32.00.442,premceCat2_ses-02_part-02_label-phase2,2020.2.10,MacIntel,60,,,,,left,1.2031,4,0.8652,,,,,,,,,,right,0.2712,0,0,0,0,1,,,,,,,,
,,,,,,,,30,2021-12-06_11h32.00.442,premceCat2_ses-02_part-02_label-phase2,2020.2.10,MacIntel,60,,,,,,,,,0,70,70,36,1,stimuli/objects/antenna.jpg,left,old,37,,,,,,,,,,,,,,,
,,,,,,,,30,2021-12-06_11h32.00.442,premceCat2_ses-02_part-02_label-phase2,2020.2.10,MacIntel,60,,,,,right,1.0182,3,0.1462,0,71,71,112,1,stimuli/objects/gymnasticring.jpg,right,new,113,,,,,,,,,,,,,,,
,,,,,,,,30,2021-12-06_11h32.00.442,premceCat2_ses-02_part-02_label-phase2,2020.2.10,MacIntel,60,,,,,right,1.1388,3,0.2655,0,72,72,106,1,stimuli/objects/minifridge.jpg,right,new,107,,,,,,,,,,,,,,,
,,,,,,,,30,2021-12-06_11h32.00.442,premceCat2_ses-02_part-02_label-phase2,2020.2.10,MacIntel,60,,,,,right,0.9626,4,0.394,0,73,73,83,1,stimuli/objects/kitchenscale01a.jpg,right,new,84,,,,,,,,,,,,,,,
,,,,,,,,30,2021-12-06_11h32.00.442,premceCat2_ses-02_part-02_label-phase2,2020.2.10,MacIntel,60,,,,,right,1.3037,4,0.2792,0,74,74,80,1,stimuli/objects/snowman.jpg,right,new,81,,,,,,,,,,,,,,,
,,,,,,,,30,2021-12-06_11h32.00.442,premceCat2_ses-02_part-02_label-phase2,2020.2.10,MacIntel,60,,,,,left,1.1224,3,0.6259,,,,,,,,,,left,0.8485,0,0,0,0,1,,,,,,,,
,,,,,,,,30,2021-12-06_11h32.00.442,premceCat2_ses-02_part-02_label-phase2,2020.2.10,MacIntel,60,,,,,,,,,0,75,75,93,1,stimuli/objects/icepack.jpg,right,new,94,,,,,,,,,,,,,,,
,,,,,,,,30,2021-12-06_11h32.00.442,premceCat2_ses-02_part-02_label-phase2,2020.2.10,MacIntel,60,,,,,right,1.1631,2,0.4021,0,76,76,68,1,stimuli/objects/leafblower01.jpg,right,new,69,,,,,,,,,,,,,,,
,,,,,,,,30,2021-12-06_11h32.00.442,premceCat2_ses-02_part-02_label-phase2,2020.2.10,MacIntel,60,,,,,right,1.4417,2,0.3527,0,77,77,90,1,stimuli/objects/carlighter02.jpg,right,new,91,,,,,,,,,,,,,,,
,,,,,,,,30,2021-12-06_11h32.00.442,premceCat2_ses-02_part-02_label-phase2,2020.2.10,MacIntel,60,,,,,right,0.8535,4,0.2433,0,78,78,22,1,stimuli/objects/umbrella04.jpg,right,new,23,,,,,,,,,,,,,,,
,,,,,,,,30,2021-12-06_11h32.00.442,premceCat2_ses-02_part-02_label-phase2,2020.2.10,MacIntel,60,,,,,right,1.675,4,0.3011,0,79,79,111,1,stimuli/objects/speaker04.jpg,right,new,112,,,,,,,,,,,,,,,
,,,,,,,,30,2021-12-06_11h32.00.442,premceCat2_ses-02_part-02_label-phase2,2020.2.10,MacIntel,60,,,,,right,1.0857,4,0.3347,0,80,80,9,1,stimuli/objects/measuringtape01.jpg,right,new,10,,,,,,,,,,,,,,,
,,,,,,,,30,2021-12-06_11h32.00.442,premceCat2_ses-02_part-02_label-phase2,2020.2.10,MacIntel,60,,,,,left,0.9381,4,0.9249,,,,,,,,,,right,0.183,0,0,0,0,1,,,,,,,,
,,,,,,,,30,2021-12-06_11h32.00.442,premceCat2_ses-02_part-02_label-phase2,2020.2.10,MacIntel,60,,,,,,,,,0,81,81,2,1,stimuli/objects/dvdcase01.jpg,left,old,3,,,,,,,,,,,,,,,
,,,,,,,,30,2021-12-06_11h32.00.442,premceCat2_ses-02_part-02_label-phase2,2020.2.10,MacIntel,60,,,,,right,1.4237,4,0.3483,0,82,82,24,1,stimuli/objects/skateboard.jpg,right,new,25,,,,,,,,,,,,,,,
,,,,,,,,30,2021-12-06_11h32.00.442,premceCat2_ses-02_part-02_label-phase2,2020.2.10,MacIntel,60,,,,,right,0.9417,4,0.3653,0,83,83,26,1,stimuli/objects/boogieboard.jpg,right,new,27,,,,,,,,,,,,,,,
,,,,,,,,30,2021-12-06_11h32.00.442,premceCat2_ses-02_part-02_label-phase2,2020.2.10,MacIntel,60,,,,,right,0.6339,4,0.2638,0,84,84,117,1,stimuli/objects/videotape01b.jpg,right,new,118,,,,,,,,,,,,,,,
,,,,,,,,30,2021-12-06_11h32.00.442,premceCat2_ses-02_part-02_label-phase2,2020.2.10,MacIntel,60,,,,,right,0.7872,3,0.5805,0,85,85,128,1,stimuli/objects/tripod01.jpg,right,new,129,,,,,,,,,,,,,,,
,,,,,,,,30,2021-12-06_11h32.00.442,premceCat2_ses-02_part-02_label-phase2,2020.2.10,MacIntel,60,,,,,left,1.2254,4,0.3619,,,,,,,,,,right,1.0929,0,0,0,0,1,,,,,,,,
,,,,,,,,30,2021-12-06_11h32.00.442,premceCat2_ses-02_part-02_label-phase2,2020.2.10,MacIntel,60,,,,,,,,,0,86,86,1,1,stimuli/objects/nintendods.jpg,left,old,2,,,,,,,,,,,,,,,
,,,,,,,,30,2021-12-06_11h32.00.442,premceCat2_ses-02_part-02_label-phase2,2020.2.10,MacIntel,60,,,,,right,1.6739,3,0.4254,0,87,87,38,1,stimuli/objects/soundmixer.jpg,right,new,39,,,,,,,,,,,,,,,
,,,,,,,,30,2021-12-06_11h32.00.442,premceCat2_ses-02_part-02_label-phase2,2020.2.10,MacIntel,60,,,,,left,0.8515,4,0.1704,,,,,,,,,,right,0.3115,0,0,0,0,1,,,,,,,,
,,,,,,,,30,2021-12-06_11h32.00.442,premceCat2_ses-02_part-02_label-phase2,2020.2.10,MacIntel,60,,,,,,,,,0,88,88,105,1,stimuli/objects/fanblades.jpg,left,old,106,,,,,,,,,,,,,,,
,,,,,,,,30,2021-12-06_11h32.00.442,premceCat2_ses-02_part-02_label-phase2,2020.2.10,MacIntel,60,,,,,right,1.1342,3,0.2691,0,89,89,140,1,stimuli/objects/anchor.jpg,left,old,141,,,,,,,,,,,,,,,
,,,,,,,,30,2021-12-06_11h32.00.442,premceCat2_ses-02_part-02_label-phase2,2020.2.10,MacIntel,60,,,,,right,0.9008,3,0.2295,0,90,90,78,1,stimuli/objects/handmixer01d.jpg,left,old,79,,,,,,,,,,,,,,,
,,,,,,,,30,2021-12-06_11h32.00.442,premceCat2_ses-02_part-02_label-phase2,2020.2.10,MacIntel,60,,,,,left,0.8965,4,0.2603,,,,,,,,,,left,0.2949,0,0,0,0,1,,,,,,,,
,,,,,,,,30,2021-12-06_11h32.00.442,premceCat2_ses-02_part-02_label-phase2,2020.2.10,MacIntel,60,,,,,,,,,0,91,91,107,1,stimuli/objects/waterbottle03.jpg,left,old,108,,,,,,,,,,,,,,,
,,,,,,,,30,2021-12-06_11h32.00.442,premceCat2_ses-02_part-02_label-phase2,2020.2.10,MacIntel,60,,,,,right,1.8848,3,0.3468,0,92,92,126,1,stimuli/objects/tableknife02.jpg,right,new,127,,,,,,,,,,,,,,,
,,,,,,,,30,2021-12-06_11h32.00.442,premceCat2_ses-02_part-02_label-phase2,2020.2.10,MacIntel,60,,,,,left,0.8842,4,0.482,,,,,,,,,,left,1.112,0,0,0,0,1,,,,,,,,
,,,,,,,,30,2021-12-06_11h32.00.442,premceCat2_ses-02_part-02_label-phase2,2020.2.10,MacIntel,60,,,,,,,,,0,93,93,0,1,stimuli/objects/electricoutlet.jpg,left,old,1,,,,,,,,,,,,,,,
,,,,,,,,30,2021-12-06_11h32.00.442,premceCat2_ses-02_part-02_label-phase2,2020.2.10,MacIntel,60,,,,,left,1.9498,4,0.1914,,,,,,,,,,right,0.7111,0,0,0,0,1,,,,,,,,
,,,,,,,,30,2021-12-06_11h32.00.442,premceCat2_ses-02_part-02_label-phase2,2020.2.10,MacIntel,60,,,,,,,,,0,94,94,114,1,stimuli/objects/espressomachine.jpg,left,old,115,,,,,,,,,,,,,,,
,,,,,,,,30,2021-12-06_11h32.00.442,premceCat2_ses-02_part-02_label-phase2,2020.2.10,MacIntel,60,,,,,right,1.0528,4,0.0995,0,95,95,25,1,stimuli/objects/bowlingball.jpg,right,new,26,,,,,,,,,,,,,,,
,,,,,,,,30,2021-12-06_11h32.00.442,premceCat2_ses-02_part-02_label-phase2,2020.2.10,MacIntel,60,,,,,left,1.2725,2,1.2124,,,,,,,,,,right,0.4598,0,0,0,0,1,,,,,,,,
,,,,,,,,30,2021-12-06_11h32.00.442,premceCat2_ses-02_part-02_label-phase2,2020.2.10,MacIntel,60,,,,,,,,,0,96,96,32,1,stimuli/objects/mitresaw.jpg,right,new,33,,,,,,,,,,,,,,,
,,,,,,,,30,2021-12-06_11h32.00.442,premceCat2_ses-02_part-02_label-phase2,2020.2.10,MacIntel,60,,,,,left,1.2716,4,0.2919,,,,,,,,,,left,0.3649,0,0,0,0,1,,,,,,,,
,,,,,,,,30,2021-12-06_11h32.00.442,premceCat2_ses-02_part-02_label-phase2,2020.2.10,MacIntel,60,,,,,,,,,0,97,97,95,1,stimuli/objects/lectern01.jpg,left,old,96,,,,,,,,,,,,,,,
,,,,,,,,30,2021-12-06_11h32.00.442,premceCat2_ses-02_part-02_label-phase2,2020.2.10,MacIntel,60,,,,,right,1.2742,4,0.2311,0,98,98,133,1,stimuli/objects/icebucket.jpg,right,new,134,,,,,,,,,,,,,,,
,,,,,,,,30,2021-12-06_11h32.00.442,premceCat2_ses-02_part-02_label-phase2,2020.2.10,MacIntel,60,,,,,right,0.9727,4,0.3142,0,99,99,119,1,stimuli/objects/tongs01b.jpg,right,new,120,,,,,,,,,,,,,,,
,,,,,,,,30,2021-12-06_11h32.00.442,premceCat2_ses-02_part-02_label-phase2,2020.2.10,MacIntel,60,,,,,right,1.1897,4,0.3548,0,100,100,96,1,stimuli/objects/golfbag.jpg,right,new,97,,,,,,,,,,,,,,,
,,,,,,,,30,2021-12-06_11h32.00.442,premceCat2_ses-02_part-02_label-phase2,2020.2.10,MacIntel,60,,,,,right,0.8905,4,0.2634,0,101,101,39,1,stimuli/objects/sippycup.jpg,right,new,40,,,,,,,,,,,,,,,
,,,,,,,,30,2021-12-06_11h32.00.442,premceCat2_ses-02_part-02_label-phase2,2020.2.10,MacIntel,60,,,,,right,0.9347,4,0.2968,0,102,102,113,1,stimuli/objects/powercable.jpg,right,new,114,,,,,,,,,,,,,,,
,,,,,,,,30,2021-12-06_11h32.00.442,premceCat2_ses-02_part-02_label-phase2,2020.2.10,MacIntel,60,,,,,right,0.8208,2,0.848,0,103,103,81,1,stimuli/objects/avcable.jpg,right,new,82,,,,,,,,,,,,,,,
,,,,,,,,30,2021-12-06_11h32.00.442,premceCat2_ses-02_part-02_label-phase2,2020.2.10,MacIntel,60,,,,,right,1.2469,2,0.2612,0,104,104,108,1,stimuli/objects/metalscissors.jpg,right,new,109,,,,,,,,,,,,,,,
,,,,,,,,30,2021-12-06_11h32.00.442,premceCat2_ses-02_part-02_label-phase2,2020.2.10,MacIntel,60,,,,,right,3.8247,1,0.33,0,105,105,61,1,stimuli/objects/weedwacker.jpg,left,old,62,,,,,,,,,,,,,,,
,,,,,,,,30,2021-12-06_11h32.00.442,premceCat2_ses-02_part-02_label-phase2,2020.2.10,MacIntel,60,,,,,right,1.305,2,0.4793,0,106,106,141,1,stimuli/objects/generator.jpg,right,new,142,,,,,,,,,,,,,,,
,,,,,,,,30,2021-12-06_11h32.00.442,premceCat2_ses-02_part-02_label-phase2,2020.2.10,MacIntel,60,,,,,right,1.0318,3,0.3677,0,107,107,13,1,stimuli/objects/bastingbrush.jpg,right,new,14,,,,,,,,,,,,,,,
,,,,,,,,30,2021-12-06_11h32.00.442,premceCat2_ses-02_part-02_label-phase2,2020.2.10,MacIntel,60,,,,,right,0.7359,3,0.2798,0,108,108,21,1,stimuli/objects/paintbrush01.jpg,right,new,22,,,,,,,,,,,,,,,
,,,,,,,,30,2021-12-06_11h32.00.442,premceCat2_ses-02_part-02_label-phase2,2020.2.10,MacIntel,60,,,,,left,1.1708,4,0.264,,,,,,,,,,right,0.2083,0,0,0,0,1,,,,,,,,
,,,,,,,,30,2021-12-06_11h32.00.442,premceCat2_ses-02_part-02_label-phase2,2020.2.10,MacIntel,60,,,,,,,,,0,109,109,135,1,stimuli/objects/wheelbarrow01.jpg,left,old,136,,,,,,,,,,,,,,,
,,,,,,,,30,2021-12-06_11h32.00.442,premceCat2_ses-02_part-02_label-phase2,2020.2.10,MacIntel,60,,,,,left,1.6837,4,0.2868,,,,,,,,,,left,0.2611,0,0,0,0,1,,,,,,,,
,,,,,,,,30,2021-12-06_11h32.00.442,premceCat2_ses-02_part-02_label-phase2,2020.2.10,MacIntel,60,,,,,,,,,0,110,110,127,1,stimuli/objects/hockeygoaliepad.jpg,left,old,128,,,,,,,,,,,,,,,
,,,,,,,,30,2021-12-06_11h32.00.442,premceCat2_ses-02_part-02_label-phase2,2020.2.10,MacIntel,60,,,,,right,1.1558,4,0.1808,0,111,111,110,1,stimuli/objects/lock03a.jpg,right,new,111,,,,,,,,,,,,,,,
,,,,,,,,30,2021-12-06_11h32.00.442,premceCat2_ses-02_part-02_label-phase2,2020.2.10,MacIntel,60,,,,,left,0.986,4,0.2638,,,,,,,,,,right,0.4442,0,0,0,0,1,,,,,,,,
,,,,,,,,30,2021-12-06_11h32.00.442,premceCat2_ses-02_part-02_label-phase2,2020.2.10,MacIntel,60,,,,,,,,,0,112,112,99,1,stimuli/objects/gardenshears01a.jpg,left,old,100,,,,,,,,,,,,,,,
,,,,,,,,30,2021-12-06_11h32.00.442,premceCat2_ses-02_part-02_label-phase2,2020.2.10,MacIntel,60,,,,,right,2.7201,2,0.5445,0,113,113,10,1,stimuli/objects/desktopcomputer.jpg,left,old,11,,,,,,,,,,,,,,,
,,,,,,,,30,2021-12-06_11h32.00.442,premceCat2_ses-02_part-02_label-phase2,2020.2.10,MacIntel,60,,,,,right,1.0193,3,0.4453,0,114,114,46,1,stimuli/objects/walkman.jpg,right,new,47,,,,,,,,,,,,,,,
,,,,,,,,30,2021-12-06_11h32.00.442,premceCat2_ses-02_part-02_label-phase2,2020.2.10,MacIntel,60,,,,,left,1.1706,4,0.2586,,,,,,,,,,right,0.191,0,0,0,0,1,,,,,,,,
,,,,,,,,30,2021-12-06_11h32.00.442,premceCat2_ses-02_part-02_label-phase2,2020.2.10,MacIntel,60,,,,,,,,,0,115,115,91,1,stimuli/objects/snowblower.jpg,left,old,92,,,,,,,,,,,,,,,
,,,,,,,,30,2021-12-06_11h32.00.442,premceCat2_ses-02_part-02_label-phase2,2020.2.10,MacIntel,60,,,,,left,1.2198,4,0.5665,,,,,,,,,,left,0.2781,0,0,0,0,1,,,,,,,,
,,,,,,,,30,2021-12-06_11h32.00.442,premceCat2_ses-02_part-02_label-phase2,2020.2.10,MacIntel,60,,,,,,,,,0,116,116,15,1,stimuli/objects/spicerack.jpg,left,old,16,,,,,,,,,,,,,,,
,,,,,,,,30,2021-12-06_11h32.00.442,premceCat2_ses-02_part-02_label-phase2,2020.2.10,MacIntel,60,,,,,left,1.1529,4,1.3521,,,,,,,,,,right,0.3448,0,0,0,0,1,,,,,,,,
,,,,,,,,30,2021-12-06_11h32.00.442,premceCat2_ses-02_part-02_label-phase2,2020.2.10,MacIntel,60,,,,,,,,,0,117,117,62,1,stimuli/objects/pastaspoon.jpg,left,old,63,,,,,,,,,,,,,,,
,,,,,,,,30,2021-12-06_11h32.00.442,premceCat2_ses-02_part-02_label-phase2,2020.2.10,MacIntel,60,,,,,right,1.2854,2,0.7432,0,118,118,137,1,stimuli/objects/iceskate.jpg,left,old,138,,,,,,,,,,,,,,,
,,,,,,,,30,2021-12-06_11h32.00.442,premceCat2_ses-02_part-02_label-phase2,2020.2.10,MacIntel,60,,,,,right,1.1029,3,0.2806,0,119,119,86,1,stimuli/objects/toasteroven.jpg,right,new,87,,,,,,,,,,,,,,,
,,,,,,,,30,2021-12-06_11h32.00.442,premceCat2_ses-02_part-02_label-phase2,2020.2.10,MacIntel,60,,,,,left,0.8701,4,0.2925,,,,,,,,,,right,0.2442,0,0,0,0,1,,,,,,,,
,,,,,,,,30,2021-12-06_11h32.00.442,premceCat2_ses-02_part-02_label-phase2,2020.2.10,MacIntel,60,,,,,,,,,0,120,120,115,1,stimuli/objects/boltcutter.jpg,left,old,116,,,,,,,,,,,,,,,
,,,,,,,,30,2021-12-06_11h32.00.442,premceCat2_ses-02_part-02_label-phase2,2020.2.10,MacIntel,60,,,,,right,1.1327,2,0.3114,0,121,121,17,1,stimuli/objects/exercisebench.jpg,right,new,18,,,,,,,,,,,,,,,
,,,,,,,,30,2021-12-06_11h32.00.442,premceCat2_ses-02_part-02_label-phase2,2020.2.10,MacIntel,60,,,,,right,1.2171,4,0.2308,0,122,122,50,1,stimuli/objects/chisel02b.jpg,right,new,51,,,,,,,,,,,,,,,
,,,,,,,,30,2021-12-06_11h32.00.442,premceCat2_ses-02_part-02_label-phase2,2020.2.10,MacIntel,60,,,,,right,0.7558,4,0.3075,0,123,123,131,1,stimuli/objects/spotlight.jpg,right,new,132,,,,,,,,,,,,,,,
,,,,,,,,30,2021-12-06_11h32.00.442,premceCat2_ses-02_part-02_label-phase2,2020.2.10,MacIntel,60,,,,,right,0.8059,3,0.3432,0,124,124,12,1,stimuli/objects/garlicpress02a.jpg,right,new,13,,,,,,,,,,,,,,,
,,,,,,,,30,2021-12-06_11h32.00.442,premceCat2_ses-02_part-02_label-phase2,2020.2.10,MacIntel,60,,,,,right,1.8337,4,0.2759,0,125,125,73,1,stimuli/objects/clock01a.jpg,right,new,74,,,,,,,,,,,,,,,
,,,,,,,,30,2021-12-06_11h32.00.442,premceCat2_ses-02_part-02_label-phase2,2020.2.10,MacIntel,60,,,,,right,2.6874,4,0.2107,0,126,126,121,1,stimuli/objects/ceilingspeaker.jpg,right,new,122,,,,,,,,,,,,,,,
,,,,,,,,30,2021-12-06_11h32.00.442,premceCat2_ses-02_part-02_label-phase2,2020.2.10,MacIntel,60,,,,,left,1.0092,3,0.8633,,,,,,,,,,left,1.4253,0,0,0,0,1,,,,,,,,
,,,,,,,,30,2021-12-06_11h32.00.442,premceCat2_ses-02_part-02_label-phase2,2020.2.10,MacIntel,60,,,,,,,,,0,127,127,65,1,stimuli/objects/pipewrench.jpg,left,old,66,,,,,,,,,,,,,,,
,,,,,,,,30,2021-12-06_11h32.00.442,premceCat2_ses-02_part-02_label-phase2,2020.2.10,MacIntel,60,,,,,right,1.4171,4,0.3128,0,128,128,54,1,stimuli/objects/pda.jpg,right,new,55,,,,,,,,,,,,,,,
,,,,,,,,30,2021-12-06_11h32.00.442,premceCat2_ses-02_part-02_label-phase2,2020.2.10,MacIntel,60,,,,,right,1.8526,4,0.2813,0,129,129,75,1,stimuli/objects/stepladder.jpg,right,new,76,,,,,,,,,,,,,,,
,,,,,,,,30,2021-12-06_11h32.00.442,premceCat2_ses-02_part-02_label-phase2,2020.2.10,MacIntel,60,,,,,right,0.7888,3,0.2844,0,130,130,30,1,stimuli/objects/printer02.jpg,right,new,31,,,,,,,,,,,,,,,
,,,,,,,,30,2021-12-06_11h32.00.442,premceCat2_ses-02_part-02_label-phase2,2020.2.10,MacIntel,60,,,,,left,1.225,4,0.5314,,,,,,,,,,right,1.6841,0,0,0,0,1,,,,,,,,
,,,,,,,,30,2021-12-06_11h32.00.442,premceCat2_ses-02_part-02_label-phase2,2020.2.10,MacIntel,60,,,,,,,,,0,131,131,69,1,stimuli/objects/cellphone.jpg,left,old,70,,,,,,,,,,,,,,,
,,,,,,,,30,2021-12-06_11h32.00.442,premceCat2_ses-02_part-02_label-phase2,2020.2.10,MacIntel,60,,,,,right,1.0546,3,0.2127,0,132,132,66,1,stimuli/objects/nailgun.jpg,right,new,67,,,,,,,,,,,,,,,
,,,,,,,,30,2021-12-06_11h32.00.442,premceCat2_ses-02_part-02_label-phase2,2020.2.10,MacIntel,60,,,,,right,0.9215,2,0.7147,0,133,133,72,1,stimuli/objects/cclamp.jpg,right,new,73,,,,,,,,,,,,,,,
,,,,,,,,30,2021-12-06_11h32.00.442,premceCat2_ses-02_part-02_label-phase2,2020.2.10,MacIntel,60,,,,,left,1.0352,4,0.7138,,,,,,,,,,right,0.413,0,0,0,0,1,,,,,,,,
,,,,,,,,30,2021-12-06_11h32.00.442,premceCat2_ses-02_part-02_label-phase2,2020.2.10,MacIntel,60,,,,,,,,,0,134,134,88,1,stimuli/objects/cork02.jpg,left,old,89,,,,,,,,,,,,,,,
,,,,,,,,30,2021-12-06_11h32.00.442,premceCat2_ses-02_part-02_label-phase2,2020.2.10,MacIntel,60,,,,,right,1.606,2,0.2787,0,135,135,33,1,stimuli/objects/microwave.jpg,right,new,34,,,,,,,,,,,,,,,
,,,,,,,,30,2021-12-06_11h32.00.442,premceCat2_ses-02_part-02_label-phase2,2020.2.10,MacIntel,60,,,,,right,1.1058,4,0.2954,0,136,136,82,1,stimuli/objects/snowbrush.jpg,right,new,83,,,,,,,,,,,,,,,
,,,,,,,,30,2021-12-06_11h32.00.442,premceCat2_ses-02_part-02_label-phase2,2020.2.10,MacIntel,60,,,,,right,0.9359,4,0.1803,0,137,137,43,1,stimuli/objects/punchingball.jpg,right,new,44,,,,,,,,,,,,,,,
,,,,,,,,30,2021-12-06_11h32.00.442,premceCat2_ses-02_part-02_label-phase2,2020.2.10,MacIntel,60,,,,,left,1.7039,4,0.4279,,,,,,,,,,left,1.1965,0,0,0,0,1,,,,,,,,
,,,,,,,,30,2021-12-06_11h32.00.442,premceCat2_ses-02_part-02_label-phase2,2020.2.10,MacIntel,60,,,,,,,,,0,138,138,70,1,stimuli/objects/hourglass.jpg,left,old,71,,,,,,,,,,,,,,,
,,,,,,,,30,2021-12-06_11h32.00.442,premceCat2_ses-02_part-02_label-phase2,2020.2.10,MacIntel,60,,,,,right,0.968,3,0.2163,0,139,139,51,1,stimuli/objects/webcam.jpg,right,new,52,,,,,,,,,,,,,,,
,,,,,,,,30,2021-12-06_11h32.00.442,premceCat2_ses-02_part-02_label-phase2,2020.2.10,MacIntel,60,,,,,left,2.0275,3,0.5026,,,,,,,,,,left,0.7293,0,0,0,0,1,,,,,,,,
,,,,,,,,30,2021-12-06_11h32.00.442,premceCat2_ses-02_part-02_label-phase2,2020.2.10,MacIntel,60,,,,,,,,,0,140,140,53,1,stimuli/objects/binoculars01b.jpg,right,new,54,,,,,,,,,,,,,,,
,,,,,,,,30,2021-12-06_11h32.00.442,premceCat2_ses-02_part-02_label-phase2,2020.2.10,MacIntel,60,,,,,left,1.1014,4,0.13,,,,,,,,,,right,0.3645,0,0,0,0,1,,,,,,,,
,,,,,,,,30,2021-12-06_11h32.00.442,premceCat2_ses-02_part-02_label-phase2,2020.2.10,MacIntel,60,,,,,,,,,0,141,141,77,1,stimuli/objects/photocopier.jpg,left,old,78,,,,,,,,,,,,,,,
,,,,,,,,30,2021-12-06_11h32.00.442,premceCat2_ses-02_part-02_label-phase2,2020.2.10,MacIntel,60,,,,,right,1.7057,3,0.2967,0,142,142,60,1,stimuli/objects/glass02a.jpg,right,new,61,,,,,,,,,,,,,,,
,,,,,,,,30,2021-12-06_11h32.00.442,premceCat2_ses-02_part-02_label-phase2,2020.2.10,MacIntel,60,,,,,,,,,,,,,,,,,,,,,,,,,space,34.2679,0,0,0,0,1,condition_files/ImagesforRecog3_1.csv
,,,,,,,,30,2021-12-06_11h32.00.442,premceCat2_ses-02_part-02_label-phase2,2020.2.10,MacIntel,60,,,,,left,2.352,4,0.4495,,,,,,,,,,right,0.2787,0,0,0,0,1,,,,,,,,
,,,,,,,,30,2021-12-06_11h32.00.442,premceCat2_ses-02_part-02_label-phase2,2020.2.10,MacIntel,60,,,,,,,,,0,0,0,106,1,stimuli/objects/extensioncord.jpg,left,old,250,,,,,,,,,,,,,,,
,,,,,,,,30,2021-12-06_11h32.00.442,premceCat2_ses-02_part-02_label-phase2,2020.2.10,MacIntel,60,,,,,right,1.3706,2,0.4852,0,1,1,48,1,stimuli/objects/eggslicer.jpg,right,new,192,,,,,,,,,,,,,,,
,,,,,,,,30,2021-12-06_11h32.00.442,premceCat2_ses-02_part-02_label-phase2,2020.2.10,MacIntel,60,,,,,left,2.3224,4,0.315,,,,,,,,,,left,0.2933,0,0,0,0,1,,,,,,,,
,,,,,,,,30,2021-12-06_11h32.00.442,premceCat2_ses-02_part-02_label-phase2,2020.2.10,MacIntel,60,,,,,,,,,0,2,2,54,1,stimuli/objects/stubbywrench01a.jpg,left,old,198,,,,,,,,,,,,,,,
,,,,,,,,30,2021-12-06_11h32.00.442,premceCat2_ses-02_part-02_label-phase2,2020.2.10,MacIntel,60,,,,,right,1.0995,3,1.6774,0,3,3,112,1,stimuli/objects/slidetray.jpg,left,old,256,,,,,,,,,,,,,,,
,,,,,,,,30,2021-12-06_11h32.00.442,premceCat2_ses-02_part-02_label-phase2,2020.2.10,MacIntel,60,,,,,left,0.9676,4,0.2844,,,,,,,,,,left,0.2762,0,0,0,0,1,,,,,,,,
,,,,,,,,30,2021-12-06_11h32.00.442,premceCat2_ses-02_part-02_label-phase2,2020.2.10,MacIntel,60,,,,,,,,,0,4,4,115,1,stimuli/objects/tray.jpg,left,old,259,,,,,,,,,,,,,,,
,,,,,,,,30,2021-12-06_11h32.00.442,premceCat2_ses-02_part-02_label-phase2,2020.2.10,MacIntel,60,,,,,right,1.5352,2,0.5968,0,5,5,103,1,stimuli/objects/swissarmyknife01a.jpg,right,new,247,,,,,,,,,,,,,,,
,,,,,,,,30,2021-12-06_11h32.00.442,premceCat2_ses-02_part-02_label-phase2,2020.2.10,MacIntel,60,,,,,right,1.4565,4,0.2856,0,6,6,126,1,stimuli/objects/reflector.jpg,left,old,270,,,,,,,,,,,,,,,
,,,,,,,,30,2021-12-06_11h32.00.442,premceCat2_ses-02_part-02_label-phase2,2020.2.10,MacIntel,60,,,,,right,1.4363,4,3.0452,0,7,7,59,1,stimuli/objects/speedball.jpg,right,new,203,,,,,,,,,,,,,,,
,,,,,,,,30,2021-12-06_11h32.00.442,premceCat2_ses-02_part-02_label-phase2,2020.2.10,MacIntel,60,,,,,left,2.0327,4,0.2805,,,,,,,,,,left,1.5964,0,0,0,0,1,,,,,,,,
,,,,,,,,30,2021-12-06_11h32.00.442,premceCat2_ses-02_part-02_label-phase2,2020.2.10,MacIntel,60,,,,,,,,,0,8,8,76,1,stimuli/objects/headphones02b.jpg,left,old,220,,,,,,,,,,,,,,,
,,,,,,,,30,2021-12-06_11h32.00.442,premceCat2_ses-02_part-02_label-phase2,2020.2.10,MacIntel,60,,,,,right,0.9214,2,0.2944,0,9,9,5,1,stimuli/objects/pickaxe02.jpg,right,new,149,,,,,,,,,,,,,,,
,,,,,,,,30,2021-12-06_11h32.00.442,premceCat2_ses-02_part-02_label-phase2,2020.2.10,MacIntel,60,,,,,right,1.2532,2,0.1598,0,10,10,61,1,stimuli/objects/jumpercables.jpg,left,old,205,,,,,,,,,,,,,,,
,,,,,,,,30,2021-12-06_11h32.00.442,premceCat2_ses-02_part-02_label-phase2,2020.2.10,MacIntel,60,,,,,right,1.5738,2,0.1411,0,11,11,77,1,stimuli/objects/contactlens.jpg,left,old,221,,,,,,,,,,,,,,,
,,,,,,,,30,2021-12-06_11h32.00.442,premceCat2_ses-02_part-02_label-phase2,2020.2.10,MacIntel,60,,,,,right,0.9021,3,0.5628,0,12,12,99,1,stimuli/objects/floodlight.jpg,right,new,243,,,,,,,,,,,,,,,
,,,,,,,,30,2021-12-06_11h32.00.442,premceCat2_ses-02_part-02_label-phase2,2020.2.10,MacIntel,60,,,,,right,0.8555,4,0.2646,0,13,13,39,1,stimuli/objects/wafflemaker.jpg,right,new,183,,,,,,,,,,,,,,,
,,,,,,,,30,2021-12-06_11h32.00.442,premceCat2_ses-02_part-02_label-phase2,2020.2.10,MacIntel,60,,,,,right,0.685,4,0.2851,0,14,14,6,1,stimuli/objects/solderingwire.jpg,right,new,150,,,,,,,,,,,,,,,
,,,,,,,,30,2021-12-06_11h32.00.442,premceCat2_ses-02_part-02_label-phase2,2020.2.10,MacIntel,60,,,,,left,1.5182,3,0.2961,,,,,,,,,,right,0.5575,0,0,0,0,1,,,,,,,,
,,,,,,,,30,2021-12-06_11h32.00.442,premceCat2_ses-02_part-02_label-phase2,2020.2.10,MacIntel,60,,,,,,,,,0,15,15,29,1,stimuli/objects/chandelier.jpg,left,old,173,,,,,,,,,,,,,,,
,,,,,,,,30,2021-12-06_11h32.00.442,premceCat2_ses-02_part-02_label-phase2,2020.2.10,MacIntel,60,,,,,right,1.2538,4,0.2143,0,16,16,47,1,stimuli/objects/plate01b.jpg,right,new,191,,,,,,,,,,,,,,,
,,,,,,,,30,2021-12-06_11h32.00.442,premceCat2_ses-02_part-02_label-phase2,2020.2.10,MacIntel,60,,,,,right,0.6581,4,0.1991,0,17,17,91,1,stimuli/objects/cuttingpliers02.jpg,right,new,235,,,,,,,,,,,,,,,
,,,,,,,,30,2021-12-06_11h32.00.442,premceCat2_ses-02_part-02_label-phase2,2020.2.10,MacIntel,60,,,,,right,0.9513,4,0.2271,0,18,18,10,1,stimuli/objects/skihelmet01.jpg,left,old,154,,,,,,,,,,,,,,,
,,,,,,,,30,2021-12-06_11h32.00.442,premceCat2_ses-02_part-02_label-phase2,2020.2.10,MacIntel,60,,,,,right,1.3245,2,0.1976,0,19,19,21,1,stimuli/objects/drill01b.jpg,left,old,165,,,,,,,,,,,,,,,
,,,,,,,,30,2021-12-06_11h32.00.442,premceCat2_ses-02_part-02_label-phase2,2020.2.10,MacIntel,60,,,,,right,0.7527,2,0.2468,0,20,20,2,1,stimuli/objects/wetfloorsign.jpg,right,new,146,,,,,,,,,,,,,,,
,,,,,,,,30,2021-12-06_11h32.00.442,premceCat2_ses-02_part-02_label-phase2,2020.2.10,MacIntel,60,,,,,right,1.3372,2,0.298,0,21,21,93,1,stimuli/objects/chainsaw.jpg,left,old,237,,,,,,,,,,,,,,,
,,,,,,,,30,2021-12-06_11h32.00.442,premceCat2_ses-02_part-02_label-phase2,2020.2.10,MacIntel,60,,,,,left,0.8027,4,0.2626,,,,,,,,,,left,0.1643,0,0,0,0,1,,,,,,,,
,,,,,,,,30,2021-12-06_11h32.00.442,premceCat2_ses-02_part-02_label-phase2,2020.2.10,MacIntel,60,,,,,,,,,0,22,22,114,1,stimuli/objects/drinkshaker.jpg,right,new,258,,,,,,,,,,,,,,,
,,,,,,,,30,2021-12-06_11h32.00.442,premceCat2_ses-02_part-02_label-phase2,2020.2.10,MacIntel,60,,,,,left,3.068,2,0.0396,,,,,,,,,,right,0.1995,0,0,0,0,1,,,,,,,,
,,,,,,,,30,2021-12-06_11h32.00.442,premceCat2_ses-02_part-02_label-phase2,2020.2.10,MacIntel,60,,,,,,,,,0,23,23,46,1,stimuli/objects/waterbottleholder.jpg,right,new,190,,,,,,,,,,,,,,,
,,,,,,,,30,2021-12-06_11h32.00.442,premceCat2_ses-02_part-02_label-phase2,2020.2.10,MacIntel,60,,,,,left,1.2836,3,0.2991,,,,,,,,,,left,0.3443,0,0,0,0,1,,,,,,,,
,,,,,,,,30,2021-12-06_11h32.00.442,premceCat2_ses-02_part-02_label-phase2,2020.2.10,MacIntel,60,,,,,,,,,0,24,24,134,1,stimuli/objects/carantenna.jpg,left,old,278,,,,,,,,,,,,,,,
,,,,,,,,30,2021-12-06_11h32.00.442,premceCat2_ses-02_part-02_label-phase2,2020.2.10,MacIntel,60,,,,,left,1.5018,2,0.4283,,,,,,,,,,right,0.2127,0,0,0,0,1,,,,,,,,
,,,,,,,,30,2021-12-06_11h32.00.442,premceCat2_ses-02_part-02_label-phase2,2020.2.10,MacIntel,60,,,,,,,,,0,25,25,104,1,stimuli/objects/alarmclock01.jpg,left,old,248,,,,,,,,,,,,,,,
,,,,,,,,30,2021-12-06_11h32.00.442,premceCat2_ses-02_part-02_label-phase2,2020.2.10,MacIntel,60,,,,,right,0.9174,3,0.7285,0,26,26,35,1,stimuli/objects/stroller.jpg,right,new,179,,,,,,,,,,,,,,,
,,,,,,,,30,2021-12-06_11h32.00.442,premceCat2_ses-02_part-02_label-phase2,2020.2.10,MacIntel,60,,,,,right,0.9778,3,0.2635,0,27,27,50,1,stimuli/objects/hockeygoaliemask.jpg,left,old,194,,,,,,,,,,,,,,,
,,,,,,,,30,2021-12-06_11h32.00.442,premceCat2_ses-02_part-02_label-phase2,2020.2.10,MacIntel,60,,,,,left,0.9362,4,0.3446,,,,,,,,,,right,0.195,0,0,0,0,1,,,,,,,,
,,,,,,,,30,2021-12-06_11h32.00.442,premceCat2_ses-02_part-02_label-phase2,2020.2.10,MacIntel,60,,,,,,,,,0,28,28,22,1,stimuli/objects/paintroller01.jpg,left,old,166,,,,,,,,,,,,,,,
,,,,,,,,30,2021-12-06_11h32.00.442,premceCat2_ses-02_part-02_label-phase2,2020.2.10,MacIntel,60,,,,,right,1.0047,4,0.2761,0,29,29,60,1,stimuli/objects/kite.jpg,right,new,204,,,,,,,,,,,,,,,
,,,,,,,,30,2021-12-06_11h32.00.442,premceCat2_ses-02_part-02_label-phase2,2020.2.10,MacIntel,60,,,,,right,0.7516,3,0.2286,0,30,30,73,1,stimuli/objects/baseballglove.jpg,left,old,217,,,,,,,,,,,,,,,
,,,,,,,,30,2021-12-06_11h32.00.442,premceCat2_ses-02_part-02_label-phase2,2020.2.10,MacIntel,60,,,,,left,1.0076,4,0.363,,,,,,,,,,left,0.3612,0,0,0,0,1,,,,,,,,
,,,,,,,,30,2021-12-06_11h32.00.442,premceCat2_ses-02_part-02_label-phase2,2020.2.10,MacIntel,60,,,,,,,,,0,31,31,89,1,stimuli/objects/cleaver01.jpg,left,old,233,,,,,,,,,,,,,,,
,,,,,,,,30,2021-12-06_11h32.00.442,premceCat2_ses-02_part-02_label-phase2,2020.2.10,MacIntel,60,,,,,right,1.7395,2,0.466,0,32,32,42,1,stimuli/objects/tennisracket.jpg,right,new,186,,,,,,,,,,,,,,,
,,,,,,,,30,2021-12-06_11h32.00.442,premceCat2_ses-02_part-02_label-phase2,2020.2.10,MacIntel,60,,,,,left,0.867,4,0.277,,,,,,,,,,right,0.1166,0,0,0,0,1,,,,,,,,
,,,,,,,,30,2021-12-06_11h32.00.442,premceCat2_ses-02_part-02_label-phase2,2020.2.10,MacIntel,60,,,,,,,,,0,33,33,32,1,stimuli/objects/rollingpin01a.jpg,left,old,176,,,,,,,,,,,,,,,
,,,,,,,,30,2021-12-06_11h32.00.442,premceCat2_ses-02_part-02_label-phase2,2020.2.10,MacIntel,60,,,,,right,1.2225,3,0.4946,0,34,34,9,1,stimuli/objects/alarmsystem.jpg,right,new,153,,,,,,,,,,,,,,,
,,,,,,,,30,2021-12-06_11h32.00.442,premceCat2_ses-02_part-02_label-phase2,2020.2.10,MacIntel,60,,,,,left,0.9909,3,0.3973,,,,,,,,,,right,0.2773,0,0,0,0,1,,,,,,,,
,,,,,,,,30,2021-12-06_11h32.00.442,premceCat2_ses-02_part-02_label-phase2,2020.2.10,MacIntel,60,,,,,,,,,0,35,35,56,1,stimuli/objects/thermos.jpg,left,old,200,,,,,,,,,,,,,,,
,,,,,,,,30,2021-12-06_11h32.00.442,premceCat2_ses-02_part-02_label-phase2,2020.2.10,MacIntel,60,,,,,left,1.0851,4,0.1465,,,,,,,,,,left,0.2794,0,0,0,0,1,,,,,,,,
,,,,,,,,30,2021-12-06_11h32.00.442,premceCat2_ses-02_part-02_label-phase2,2020.2.10,MacIntel,60,,,,,,,,,0,36,36,96,1,stimuli/objects/wateringcan.jpg,left,old,240,,,,,,,,,,,,,,,
,,,,,,,,30,2021-12-06_11h32.00.442,premceCat2_ses-02_part-02_label-phase2,2020.2.10,MacIntel,60,,,,,left,1.155,3,0.2482,,,,,,,,,,left,0.359,0,0,0,0,1,,,,,,,,
,,,,,,,,30,2021-12-06_11h32.00.442,premceCat2_ses-02_part-02_label-phase2,2020.2.10,MacIntel,60,,,,,,,,,0,37,37,65,1,stimuli/objects/bucket02.jpg,left,old,209,,,,,,,,,,,,,,,
,,,,,,,,30,2021-12-06_11h32.00.442,premceCat2_ses-02_part-02_label-phase2,2020.2.10,MacIntel,60,,,,,left,1.2176,4,0.4288,,,,,,,,,,right,0.0008,0,0,0,0,1,,,,,,,,
,,,,,,,,30,2021-12-06_11h32.00.442,premceCat2_ses-02_part-02_label-phase2,2020.2.10,MacIntel,60,,,,,,,,,0,38,38,45,1,stimuli/objects/charcoalbarbecue.jpg,left,old,189,,,,,,,,,,,,,,,
,,,,,,,,30,2021-12-06_11h32.00.442,premceCat2_ses-02_part-02_label-phase2,2020.2.10,MacIntel,60,,,,,left,0.8187,3,0.7286,,,,,,,,,,right,0.3948,0,0,0,0,1,,,,,,,,
,,,,,,,,30,2021-12-06_11h32.00.442,premceCat2_ses-02_part-02_label-phase2,2020.2.10,MacIntel,60,,,,,,,,,0,39,39,52,1,stimuli/objects/securitycamera.jpg,left,old,196,,,,,,,,,,,,,,,
,,,,,,,,30,2021-12-06_11h32.00.442,premceCat2_ses-02_part-02_label-phase2,2020.2.10,MacIntel,60,,,,,right,0.7432,4,0.2611,0,40,40,120,1,stimuli/objects/tent.jpg,right,new,264,,,,,,,,,,,,,,,
,,,,,,,,30,2021-12-06_11h32.00.442,premceCat2_ses-02_part-02_label-phase2,2020.2.10,MacIntel,60,,,,,left,1.0363,4,0.2503,,,,,,,,,,right,0.2286,0,0,0,0,1,,,,,,,,
,,,,,,,,30,2021-12-06_11h32.00.442,premceCat2_ses-02_part-02_label-phase2,2020.2.10,MacIntel,60,,,,,,,,,0,41,41,117,1,stimuli/objects/poolnet.jpg,left,old,261,,,,,,,,,,,,,,,
,,,,,,,,30,2021-12-06_11h32.00.442,premceCat2_ses-02_part-02_label-phase2,2020.2.10,MacIntel,60,,,,,right,0.9504,3,0.2676,0,42,42,24,1,stimuli/objects/monitor.jpg,right,new,168,,,,,,,,,,,,,,,
,,,,,,,,30,2021-12-06_11h32.00.442,premceCat2_ses-02_part-02_label-phase2,2020.2.10,MacIntel,60,,,,,left,0.856,4,0.2494,,,,,,,,,,left,0.2474,0,0,0,0,1,,,,,,,,
,,,,,,,,30,2021-12-06_11h32.00.442,premceCat2_ses-02_part-02_label-phase2,2020.2.10,MacIntel,60,,,,,,,,,0,43,43,71,1,stimuli/objects/handgripper.jpg,left,old,215,,,,,,,,,,,,,,,
,,,,,,,,30,2021-12-06_11h32.00.442,premceCat2_ses-02_part-02_label-phase2,2020.2.10,MacIntel,60,,,,,left,0.8881,4,0.1967,,,,,,,,,,right,0.1979,0,0,0,0,1,,,,,,,,
,,,,,,,,30,2021-12-06_11h32.00.442,premceCat2_ses-02_part-02_label-phase2,2020.2.10,MacIntel,60,,,,,,,,,0,44,44,94,1,stimuli/objects/file.jpg,right,new,238,,,,,,,,,,,,,,,
,,,,,,,,30,2021-12-06_11h32.00.442,premceCat2_ses-02_part-02_label-phase2,2020.2.10,MacIntel,60,,,,,left,0.9894,4,0.4652,,,,,,,,,,left,0.2964,0,0,0,0,1,,,,,,,,
,,,,,,,,30,2021-12-06_11h32.00.442,premceCat2_ses-02_part-02_label-phase2,2020.2.10,MacIntel,60,,,,,,,,,0,45,45,84,1,stimuli/objects/patioumbrella.jpg,left,old,228,,,,,,,,,,,,,,,
,,,,,,,,30,2021-12-06_11h32.00.442,premceCat2_ses-02_part-02_label-phase2,2020.2.10,MacIntel,60,,,,,left,0.7204,2,1.1129,,,,,,,,,,right,0.2621,0,0,0,0,1,,,,,,,,
,,,,,,,,30,2021-12-06_11h32.00.442,premceCat2_ses-02_part-02_label-phase2,2020.2.10,MacIntel,60,,,,,,,,,0,46,46,68,1,stimuli/objects/ladle02a.jpg,right,new,212,,,,,,,,,,,,,,,
,,,,,,,,30,2021-12-06_11h32.00.442,premceCat2_ses-02_part-02_label-phase2,2020.2.10,MacIntel,60,,,,,left,1.2868,3,0.7862,,,,,,,,,,right,0.8448,0,0,0,0,1,,,,,,,,
,,,,,,,,30,2021-12-06_11h32.00.442,premceCat2_ses-02_part-02_label-phase2,2020.2.10,MacIntel,60,,,,,,,,,0,47,47,70,1,stimuli/objects/shovel01.jpg,right,new,214,,,,,,,,,,,,,,,
,,,,,,,,30,2021-12-06_11h32.00.442,premceCat2_ses-02_part-02_label-phase2,2020.2.10,MacIntel,60,,,,,right,1.2462,3,0.2614,0,48,48,0,1,stimuli/objects/smokedetector02.jpg,right,new,144,,,,,,,,,,,,,,,
,,,,,,,,30,2021-12-06_11h32.00.442,premceCat2_ses-02_part-02_label-phase2,2020.2.10,MacIntel,60,,,,,right,0.9329,3,0.2337,0,49,49,37,1,stimuli/objects/computerkeyboard02.jpg,left,old,181,,,,,,,,,,,,,,,
,,,,,,,,30,2021-12-06_11h32.00.442,premceCat2_ses-02_part-02_label-phase2,2020.2.10,MacIntel,60,,,,,left,1.0511,4,0.2601,,,,,,,,,,left,0.3425,0,0,0,0,1,,,,,,,,
,,,,,,,,30,2021-12-06_11h32.00.442,premceCat2_ses-02_part-02_label-phase2,2020.2.10,MacIntel,60,,,,,,,,,0,50,50,17,1,stimuli/objects/backpack01a.jpg,left,old,161,,,,,,,,,,,,,,,
,,,,,,,,30,2021-12-06_11h32.00.442,premceCat2_ses-02_part-02_label-phase2,2020.2.10,MacIntel,60,,,,,left,0.8851,4,0.297,,,,,,,,,,right,0.2115,0,0,0,0,1,,,,,,,,
,,,,,,,,30,2021-12-06_11h32.00.442,premceCat2_ses-02_part-02_label-phase2,2020.2.10,MacIntel,60,,,,,,,,,0,51,51,85,1,stimuli/objects/filmnegative.jpg,left,old,229,,,,,,,,,,,,,,,
,,,,,,,,30,2021-12-06_11h32.00.442,premceCat2_ses-02_part-02_label-phase2,2020.2.10,MacIntel,60,,,,,right,0.9523,4,0.2958,0,52,52,138,1,stimuli/objects/beermug01a.jpg,right,new,282,,,,,,,,,,,,,,,
,,,,,,,,30,2021-12-06_11h32.00.442,premceCat2_ses-02_part-02_label-phase2,2020.2.10,MacIntel,60,,,,,left,0.9988,4,0.2088,,,,,,,,,,left,1.7424,0,0,0,0,1,,,,,,,,
,,,,,,,,30,2021-12-06_11h32.00.442,premceCat2_ses-02_part-02_label-phase2,2020.2.10,MacIntel,60,,,,,,,,,0,53,53,11,1,stimuli/objects/vhstape.jpg,left,old,155,,,,,,,,,,,,,,,
,,,,,,,,30,2021-12-06_11h32.00.442,premceCat2_ses-02_part-02_label-phase2,2020.2.10,MacIntel,60,,,,,left,1.082,4,0.129,,,,,,,,,,left,0.3434,0,0,0,0,1,,,,,,,,
,,,,,,,,30,2021-12-06_11h32.00.442,premceCat2_ses-02_part-02_label-phase2,2020.2.10,MacIntel,60,,,,,,,,,0,54,54,130,1,stimuli/objects/fuse.jpg,left,old,274,,,,,,,,,,,,,,,
,,,,,,,,30,2021-12-06_11h32.00.442,premceCat2_ses-02_part-02_label-phase2,2020.2.10,MacIntel,60,,,,,right,1.8675,2,0.5613,0,55,55,128,1,stimuli/objects/spoon01.jpg,left,old,272,,,,,,,,,,,,,,,
,,,,,,,,30,2021-12-06_11h32.00.442,premceCat2_ses-02_part-02_label-phase2,2020.2.10,MacIntel,60,,,,,left,1.154,2,1.1421,,,,,,,,,,right,0.1945,0,0,0,0,1,,,,,,,,
,,,,,,,,30,2021-12-06_11h32.00.442,premceCat2_ses-02_part-02_label-phase2,2020.2.10,MacIntel,60,,,,,,,,,0,56,56,41,1,stimuli/objects/flask.jpg,right,new,185,,,,,,,,,,,,,,,
,,,,,,,,30,2021-12-06_11h32.00.442,premceCat2_ses-02_part-02_label-phase2,2020.2.10,MacIntel,60,,,,,right,2.2347,2,0.457,0,57,57,122,1,stimuli/objects/hockeystick.jpg,right,new,266,,,,,,,,,,,,,,,
,,,,,,,,30,2021-12-06_11h32.00.442,premceCat2_ses-02_part-02_label-phase2,2020.2.10,MacIntel,60,,,,,right,1.2497,3,0.3183,0,58,58,111,1,stimuli/objects/diaperbag.jpg,right,new,255,,,,,,,,,,,,,,,
,,,,,,,,30,2021-12-06_11h32.00.442,premceCat2_ses-02_part-02_label-phase2,2020.2.10,MacIntel,60,,,,,left,1.0822,4,0.3797,,,,,,,,,,left,0.3093,0,0,0,0,1,,,,,,,,
,,,,,,,,30,2021-12-06_11h32.00.442,premceCat2_ses-02_part-02_label-phase2,2020.2.10,MacIntel,60,,,,,,,,,0,59,59,79,1,stimuli/objects/boatmotor.jpg,left,old,223,,,,,,,,,,,,,,,
,,,,,,,,30,2021-12-06_11h32.00.442,premceCat2_ses-02_part-02_label-phase2,2020.2.10,MacIntel,60,,,,,left,1.8314,3,0.3112,,,,,,,,,,left,0.2777,0,0,0,0,1,,,,,,,,
,,,,,,,,30,2021-12-06_11h32.00.442,premceCat2_ses-02_part-02_label-phase2,2020.2.10,MacIntel,60,,,,,,,,,0,60,60,140,1,stimuli/objects/wineglass01.jpg,right,new,284,,,,,,,,,,,,,,,
,,,,,,,,30,2021-12-06_11h32.00.442,premceCat2_ses-02_part-02_label-phase2,2020.2.10,MacIntel,60,,,,,left,0.8205,4,0.9614,,,,,,,,,,right,0.45,0,0,0,0,1,,,,,,,,
,,,,,,,,30,2021-12-06_11h32.00.442,premceCat2_ses-02_part-02_label-phase2,2020.2.10,MacIntel,60,,,,,,,,,0,61,61,33,1,stimuli/objects/ipod.jpg,left,old,177,,,,,,,,,,,,,,,
,,,,,,,,30,2021-12-06_11h32.00.442,premceCat2_ses-02_part-02_label-phase2,2020.2.10,MacIntel,60,,,,,left,1.6505,3,0.2535,,,,,,,,,,right,0.2445,0,0,0,0,1,,,,,,,,
,,,,,,,,30,2021-12-06_11h32.00.442,premceCat2_ses-02_part-02_label-phase2,2020.2.10,MacIntel,60,,,,,,,,,0,62,62,27,1,stimuli/objects/saw02b.jpg,left,old,171,,,,,,,,,,,,,,,
,,,,,,,,30,2021-12-06_11h32.00.442,premceCat2_ses-02_part-02_label-phase2,2020.2.10,MacIntel,60,,,,,left,1.2693,3,0.2996,,,,,,,,,,right,0.2456,0,0,0,0,1,,,,,,,,
,,,,,,,,30,2021-12-06_11h32.00.442,premceCat2_ses-02_part-02_label-phase2,2020.2.10,MacIntel,60,,,,,,,,,0,63,63,51,1,stimuli/objects/cheeseknife01.jpg,right,new,195,,,,,,,,,,,,,,,
,,,,,,,,30,2021-12-06_11h32.00.442,premceCat2_ses-02_part-02_label-phase2,2020.2.10,MacIntel,60,,,,,right,1.3486,2,0.8124,0,64,64,15,1,stimuli/objects/computermouse06.jpg,right,new,159,,,,,,,,,,,,,,,
,,,,,,,,30,2021-12-06_11h32.00.442,premceCat2_ses-02_part-02_label-phase2,2020.2.10,MacIntel,60,,,,,left,1.2066,4,0.2285,,,,,,,,,,right,0.1603,0,0,0,0,1,,,,,,,,
,,,,,,,,30,2021-12-06_11h32.00.442,premceCat2_ses-02_part-02_label-phase2,2020.2.10,MacIntel,60,,,,,,,,,0,65,65,142,1,stimuli/objects/needlenosepliers01.jpg,right,new,286,,,,,,,,,,,,,,,
,,,,,,,,30,2021-12-06_11h32.00.442,premceCat2_ses-02_part-02_label-phase2,2020.2.10,MacIntel,60,,,,,right,0.8394,3,0.2459,0,66,66,90,1,stimuli/objects/toyhockeystick01.jpg,left,old,234,,,,,,,,,,,,,,,
,,,,,,,,30,2021-12-06_11h32.00.442,premceCat2_ses-02_part-02_label-phase2,2020.2.10,MacIntel,60,,,,,right,1.1183,3,0.26,0,67,67,135,1,stimuli/objects/mortarandpestle.jpg,right,new,279,,,,,,,,,,,,,,,
,,,,,,,,30,2021-12-06_11h32.00.442,premceCat2_ses-02_part-02_label-phase2,2020.2.10,MacIntel,60,,,,,right,0.8217,4,0.3599,0,68,68,101,1,stimuli/objects/lifejacket.jpg,right,new,245,,,,,,,,,,,,,,,
,,,,,,,,30,2021-12-06_11h32.00.442,premceCat2_ses-02_part-02_label-phase2,2020.2.10,MacIntel,60,,,,,right,0.9005,4,0.4449,0,69,69,81,1,stimuli/objects/grill.jpg,right,new,225,,,,,,,,,,,,,,,
,,,,,,,,30,2021-12-06_11h32.00.442,premceCat2_ses-02_part-02_label-phase2,2020.2.10,MacIntel,60,,,,,left,1.0572,4,0.3488,,,,,,,,,,left,0.1456,0,0,0,0,1,,,,,,,,
,,,,,,,,30,2021-12-06_11h32.00.442,premceCat2_ses-02_part-02_label-phase2,2020.2.10,MacIntel,60,,,,,,,,,0,70,70,57,1,stimuli/objects/swimgoggles.jpg,left,old,201,,,,,,,,,,,,,,,
,,,,,,,,30,2021-12-06_11h32.00.442,premceCat2_ses-02_part-02_label-phase2,2020.2.10,MacIntel,60,,,,,right,1.4494,2,0.2992,0,71,71,44,1,stimuli/objects/toaster01.jpg,right,new,188,,,,,,,,,,,,,,,
,,,,,,,,30,2021-12-06_11h32.00.442,premceCat2_ses-02_part-02_label-phase2,2020.2.10,MacIntel,60,,,,,right,1.3322,2,0.476,0,72,72,30,1,stimuli/objects/halogenlightbulb.jpg,right,new,174,,,,,,,,,,,,,,,
,,,,,,,,30,2021-12-06_11h32.00.442,premceCat2_ses-02_part-02_label-phase2,2020.2.10,MacIntel,60,,,,,left,1.0046,4,0.2188,,,,,,,,,,right,0.3328,0,0,0,0,1,,,,,,,,
,,,,,,,,30,2021-12-06_11h32.00.442,premceCat2_ses-02_part-02_label-phase2,2020.2.10,MacIntel,60,,,,,,,,,0,73,73,124,1,stimuli/objects/basketball01.jpg,right,new,268,,,,,,,,,,,,,,,
,,,,,,,,30,2021-12-06_11h32.00.442,premceCat2_ses-02_part-02_label-phase2,2020.2.10,MacIntel,60,,,,,right,2.0081,4,0.3445,0,74,74,100,1,stimuli/objects/caulking.jpg,left,old,244,,,,,,,,,,,,,,,
,,,,,,,,30,2021-12-06_11h32.00.442,premceCat2_ses-02_part-02_label-phase2,2020.2.10,MacIntel,60,,,,,right,0.8422,4,0.2115,0,75,75,34,1,stimuli/objects/kneepad01c.jpg,right,new,178,,,,,,,,,,,,,,,
,,,,,,,,30,2021-12-06_11h32.00.442,premceCat2_ses-02_part-02_label-phase2,2020.2.10,MacIntel,60,,,,,right,0.6875,4,0.2114,0,76,76,40,1,stimuli/objects/tablesaw.jpg,right,new,184,,,,,,,,,,,,,,,
,,,,,,,,30,2021-12-06_11h32.00.442,premceCat2_ses-02_part-02_label-phase2,2020.2.10,MacIntel,60,,,,,right,1.0201,3,0.2514,0,77,77,49,1,stimuli/objects/cakeplatter.jpg,right,new,193,,,,,,,,,,,,,,,
,,,,,,,,30,2021-12-06_11h32.00.442,premceCat2_ses-02_part-02_label-phase2,2020.2.10,MacIntel,60,,,,,right,1.0439,2,0.4684,0,78,78,133,1,stimuli/objects/birdie.jpg,right,new,277,,,,,,,,,,,,,,,
,,,,,,,,30,2021-12-06_11h32.00.442,premceCat2_ses-02_part-02_label-phase2,2020.2.10,MacIntel,60,,,,,right,0.9071,2,0.3145,0,79,79,55,1,stimuli/objects/fonduefork01.jpg,right,new,199,,,,,,,,,,,,,,,
,,,,,,,,30,2021-12-06_11h32.00.442,premceCat2_ses-02_part-02_label-phase2,2020.2.10,MacIntel,60,,,,,right,0.8219,2,0.1511,0,80,80,78,1,stimuli/objects/lightswitch01.jpg,right,new,222,,,,,,,,,,,,,,,
,,,,,,,,30,2021-12-06_11h32.00.442,premceCat2_ses-02_part-02_label-phase2,2020.2.10,MacIntel,60,,,,,right,0.9766,3,0.1904,0,81,81,23,1,stimuli/objects/snowboard.jpg,left,old,167,,,,,,,,,,,,,,,
,,,,,,,,30,2021-12-06_11h32.00.442,premceCat2_ses-02_part-02_label-phase2,2020.2.10,MacIntel,60,,,,,right,1.4039,4,0.2997,0,82,82,18,1,stimuli/objects/fluorescentlightbulb.jpg,left,old,162,,,,,,,,,,,,,,,
,,,,,,,,30,2021-12-06_11h32.00.442,premceCat2_ses-02_part-02_label-phase2,2020.2.10,MacIntel,60,,,,,right,0.7036,3,0.279,0,83,83,107,1,stimuli/objects/dolly01.jpg,right,new,251,,,,,,,,,,,,,,,
,,,,,,,,30,2021-12-06_11h32.00.442,premceCat2_ses-02_part-02_label-phase2,2020.2.10,MacIntel,60,,,,,left,1.3895,4,0.3267,,,,,,,,,,right,0.2916,0,0,0,0,1,,,,,,,,
,,,,,,,,30,2021-12-06_11h32.00.442,premceCat2_ses-02_part-02_label-phase2,2020.2.10,MacIntel,60,,,,,,,,,0,84,84,136,1,stimuli/objects/hockeypuck.jpg,left,old,280,,,,,,,,,,,,,,,
,,,,,,,,30,2021-12-06_11h32.00.442,premceCat2_ses-02_part-02_label-phase2,2020.2.10,MacIntel,60,,,,,left,1.3875,4,0.2443,,,,,,,,,,left,0.2981,0,0,0,0,1,,,,,,,,
,,,,,,,,30,2021-12-06_11h32.00.442,premceCat2_ses-02_part-02_label-phase2,2020.2.10,MacIntel,60,,,,,,,,,0,85,85,28,1,stimuli/objects/canister.jpg,left,old,172,,,,,,,,,,,,,,,
,,,,,,,,30,2021-12-06_11h32.00.442,premceCat2_ses-02_part-02_label-phase2,2020.2.10,MacIntel,60,,,,,left,1.4197,2,0.3257,,,,,,,,,,left,0.8811,0,0,0,0,1,,,,,,,,
,,,,,,,,30,2021-12-06_11h32.00.442,premceCat2_ses-02_part-02_label-phase2,2020.2.10,MacIntel,60,,,,,,,,,0,86,86,74,1,stimuli/objects/shinpad.jpg,left,old,218,,,,,,,,,,,,,,,
,,,,,,,,30,2021-12-06_11h32.00.442,premceCat2_ses-02_part-02_label-phase2,2020.2.10,MacIntel,60,,,,,right,1.1533,1,0.3609,0,87,87,86,1,stimuli/objects/trampoline.jpg,right,new,230,,,,,,,,,,,,,,,
,,,,,,,,30,2021-12-06_11h32.00.442,premceCat2_ses-02_part-02_label-phase2,2020.2.10,MacIntel,60,,,,,left,1.0864,4,0.2333,,,,,,,,,,right,0.2079,0,0,0,0,1,,,,,,,,
,,,,,,,,30,2021-12-06_11h32.00.442,premceCat2_ses-02_part-02_label-phase2,2020.2.10,MacIntel,60,,,,,,,,,0,88,88,8,1,stimuli/objects/hammer01.jpg,left,old,152,,,,,,,,,,,,,,,
,,,,,,,,30,2021-12-06_11h32.00.442,premceCat2_ses-02_part-02_label-phase2,2020.2.10,MacIntel,60,,,,,right,1.3534,4,0.6493,0,89,89,82,1,stimuli/objects/shopvac.jpg,right,new,226,,,,,,,,,,,,,,,
,,,,,,,,30,2021-12-06_11h32.00.442,premceCat2_ses-02_part-02_label-phase2,2020.2.10,MacIntel,60,,,,,right,0.7848,4,0.4792,0,90,90,116,1,stimuli/objects/lockingplier.jpg,right,new,260,,,,,,,,,,,,,,,
,,,,,,,,30,2021-12-06_11h32.00.442,premceCat2_ses-02_part-02_label-phase2,2020.2.10,MacIntel,60,,,,,right,1.6687,1,0.3242,0,91,91,43,1,stimuli/objects/bowrake.jpg,right,new,187,,,,,,,,,,,,,,,
,,,,,,,,30,2021-12-06_11h32.00.442,premceCat2_ses-02_part-02_label-phase2,2020.2.10,MacIntel,60,,,,,right,0.8762,2,0.4363,0,92,92,132,1,stimuli/objects/wirestripper.jpg,right,new,276,,,,,,,,,,,,,,,
,,,,,,,,30,2021-12-06_11h32.00.442,premceCat2_ses-02_part-02_label-phase2,2020.2.10,MacIntel,60,,,,,left,1.3867,4,0.2984,,,,,,,,,,right,0.3096,0,0,0,0,1,,,,,,,,
,,,,,,,,30,2021-12-06_11h32.00.442,premceCat2_ses-02_part-02_label-phase2,2020.2.10,MacIntel,60,,,,,,,,,0,93,93,125,1,stimuli/objects/sewingmachine01a.jpg,left,old,269,,,,,,,,,,,,,,,
,,,,,,,,30,2021-12-06_11h32.00.442,premceCat2_ses-02_part-02_label-phase2,2020.2.10,MacIntel,60,,,,,left,1.2567,4,0.2656,,,,,,,,,,right,0.1946,0,0,0,0,1,,,,,,,,
,,,,,,,,30,2021-12-06_11h32.00.442,premceCat2_ses-02_part-02_label-phase2,2020.2.10,MacIntel,60,,,,,,,,,0,94,94,53,1,stimuli/objects/metalbrush.jpg,left,old,197,,,,,,,,,,,,,,,
,,,,,,,,30,2021-12-06_11h32.00.442,premceCat2_ses-02_part-02_label-phase2,2020.2.10,MacIntel,60,,,,,left,1.5362,4,0.2597,,,,,,,,,,left,0.2495,0,0,0,0,1,,,,,,,,
,,,,,,,,30,2021-12-06_11h32.00.442,premceCat2_ses-02_part-02_label-phase2,2020.2.10,MacIntel,60,,,,,,,,,0,95,95,7,1,stimuli/objects/butterknife.jpg,left,old,151,,,,,,,,,,,,,,,
,,,,,,,,30,2021-12-06_11h32.00.442,premceCat2_ses-02_part-02_label-phase2,2020.2.10,MacIntel,60,,,,,right,1.5925,3,0.2955,0,96,96,16,1,stimuli/objects/bottleopener01.jpg,right,new,160,,,,,,,,,,,,,,,
,,,,,,,,30,2021-12-06_11h32.00.442,premceCat2_ses-02_part-02_label-phase2,2020.2.10,MacIntel,60,,,,,right,1.2689,3,0.2922,0,97,97,4,1,stimuli/objects/cassettetape01a.jpg,right,new,148,,,,,,,,,,,,,,,
,,,,,,,,30,2021-12-06_11h32.00.442,premceCat2_ses-02_part-02_label-phase2,2020.2.10,MacIntel,60,,,,,left,1.1678,4,0.2469,,,,,,,,,,left,0.2263,0,0,0,0,1,,,,,,,,
,,,,,,,,30,2021-12-06_11h32.00.442,premceCat2_ses-02_part-02_label-phase2,2020.2.10,MacIntel,60,,,,,,,,,0,98,98,139,1,stimuli/objects/corkscrew03a.jpg,left,old,283,,,,,,,,,,,,,,,
,,,,,,,,30,2021-12-06_11h32.00.442,premceCat2_ses-02_part-02_label-phase2,2020.2.10,MacIntel,60,,,,,left,2.233,2,0.1738,,,,,,,,,,right,0.3126,0,0,0,0,1,,,,,,,,
,,,,,,,,30,2021-12-06_11h32.00.442,premceCat2_ses-02_part-02_label-phase2,2020.2.10,MacIntel,60,,,,,,,,,0,99,99,14,1,stimuli/objects/fishingrod.jpg,left,old,158,,,,,,,,,,,,,,,
,,,,,,,,30,2021-12-06_11h32.00.442,premceCat2_ses-02_part-02_label-phase2,2020.2.10,MacIntel,60,,,,,left,1.2377,2,0.3453,,,,,,,,,,right,0.2652,0,0,0,0,1,,,,,,,,
,,,,,,,,30,2021-12-06_11h32.00.442,premceCat2_ses-02_part-02_label-phase2,2020.2.10,MacIntel,60,,,,,,,,,0,100,100,12,1,stimuli/objects/fanheater.jpg,right,new,156,,,,,,,,,,,,,,,
,,,,,,,,30,2021-12-06_11h32.00.442,premceCat2_ses-02_part-02_label-phase2,2020.2.10,MacIntel,60,,,,,right,1.3381,4,0.5143,0,101,101,58,1,stimuli/objects/volleyball.jpg,left,old,202,,,,,,,,,,,,,,,
,,,,,,,,30,2021-12-06_11h32.00.442,premceCat2_ses-02_part-02_label-phase2,2020.2.10,MacIntel,60,,,,,right,0.7561,2,0.3793,0,102,102,36,1,stimuli/objects/loppingshears.jpg,right,new,180,,,,,,,,,,,,,,,
,,,,,,,,30,2021-12-06_11h32.00.442,premceCat2_ses-02_part-02_label-phase2,2020.2.10,MacIntel,60,,,,,left,1.0196,3,0.576,,,,,,,,,,left,0.2077,0,0,0,0,1,,,,,,,,
,,,,,,,,30,2021-12-06_11h32.00.442,premceCat2_ses-02_part-02_label-phase2,2020.2.10,MacIntel,60,,,,,,,,,0,103,103,64,1,stimuli/objects/surfboard.jpg,left,old,208,,,,,,,,,,,,,,,
,,,,,,,,30,2021-12-06_11h32.00.442,premceCat2_ses-02_part-02_label-phase2,2020.2.10,MacIntel,60,,,,,left,1.5679,1,0.2692,,,,,,,,,,right,0.2134,0,0,0,0,1,,,,,,,,
,,,,,,,,30,2021-12-06_11h32.00.442,premceCat2_ses-02_part-02_label-phase2,2020.2.10,MacIntel,60,,,,,,,,,0,104,104,105,1,stimuli/objects/pitcher02b.jpg,left,old,249,,,,,,,,,,,,,,,
,,,,,,,,30,2021-12-06_11h32.00.442,premceCat2_ses-02_part-02_label-phase2,2020.2.10,MacIntel,60,,,,,left,1.7991,3,0.9958,,,,,,,,,,right,0.3819,0,0,0,0,1,,,,,,,,
,,,,,,,,30,2021-12-06_11h32.00.442,premceCat2_ses-02_part-02_label-phase2,2020.2.10,MacIntel,60,,,,,,,,,0,105,105,88,1,stimuli/objects/magneticcompass.jpg,left,old,232,,,,,,,,,,,,,,,
,,,,,,,,30,2021-12-06_11h32.00.442,premceCat2_ses-02_part-02_label-phase2,2020.2.10,MacIntel,60,,,,,left,1.337,4,1.0283,,,,,,,,,,right,0.211,0,0,0,0,1,,,,,,,,
,,,,,,,,30,2021-12-06_11h32.00.442,premceCat2_ses-02_part-02_label-phase2,2020.2.10,MacIntel,60,,,,,,,,,0,106,106,13,1,stimuli/objects/bungeecord02.jpg,left,old,157,,,,,,,,,,,,,,,
,,,,,,,,30,2021-12-06_11h32.00.442,premceCat2_ses-02_part-02_label-phase2,2020.2.10,MacIntel,60,,,,,left,1.3407,4,0.1814,,,,,,,,,,right,0.2443,0,0,0,0,1,,,,,,,,
,,,,,,,,30,2021-12-06_11h32.00.442,premceCat2_ses-02_part-02_label-phase2,2020.2.10,MacIntel,60,,,,,,,,,0,107,107,72,1,stimuli/objects/wheel01.jpg,left,old,216,,,,,,,,,,,,,,,
,,,,,,,,30,2021-12-06_11h32.00.442,premceCat2_ses-02_part-02_label-phase2,2020.2.10,MacIntel,60,,,,,right,0.9029,2,0.3281,0,108,108,127,1,stimuli/objects/skigoggles01.jpg,right,new,271,,,,,,,,,,,,,,,
,,,,,,,,30,2021-12-06_11h32.00.442,premceCat2_ses-02_part-02_label-phase2,2020.2.10,MacIntel,60,,,,,right,1.4372,4,0.2895,0,109,109,102,1,stimuli/objects/beachumbrella01.jpg,right,new,246,,,,,,,,,,,,,,,
,,,,,,,,30,2021-12-06_11h32.00.442,premceCat2_ses-02_part-02_label-phase2,2020.2.10,MacIntel,60,,,,,right,0.7607,4,0.3614,0,110,110,69,1,stimuli/objects/straw.jpg,right,new,213,,,,,,,,,,,,,,,
,,,,,,,,30,2021-12-06_11h32.00.442,premceCat2_ses-02_part-02_label-phase2,2020.2.10,MacIntel,60,,,,,right,0.7854,4,0.2618,0,111,111,98,1,stimuli/objects/cameracase01a.jpg,right,new,242,,,,,,,,,,,,,,,
,,,,,,,,30,2021-12-06_11h32.00.442,premceCat2_ses-02_part-02_label-phase2,2020.2.10,MacIntel,60,,,,,left,1.1201,4,0.2781,,,,,,,,,,left,0.2827,0,0,0,0,1,,,,,,,,
,,,,,,,,30,2021-12-06_11h32.00.442,premceCat2_ses-02_part-02_label-phase2,2020.2.10,MacIntel,60,,,,,,,,,0,112,112,119,1,stimuli/objects/muffintray01.jpg,left,old,263,,,,,,,,,,,,,,,
,,,,,,,,30,2021-12-06_11h32.00.442,premceCat2_ses-02_part-02_label-phase2,2020.2.10,MacIntel,60,,,,,right,1.0859,2,0.2962,0,113,113,118,1,stimuli/objects/pliers02b.jpg,left,old,262,,,,,,,,,,,,,,,
,,,,,,,,30,2021-12-06_11h32.00.442,premceCat2_ses-02_part-02_label-phase2,2020.2.10,MacIntel,60,,,,,left,1.205,4,0.2622,,,,,,,,,,right,0.2132,0,0,0,0,1,,,,,,,,
,,,,,,,,30,2021-12-06_11h32.00.442,premceCat2_ses-02_part-02_label-phase2,2020.2.10,MacIntel,60,,,,,,,,,0,114,114,109,1,stimuli/objects/toothpick02.jpg,left,old,253,,,,,,,,,,,,,,,
,,,,,,,,30,2021-12-06_11h32.00.442,premceCat2_ses-02_part-02_label-phase2,2020.2.10,MacIntel,60,,,,,left,1.6527,4,0.2951,,,,,,,,,,right,1.177,0,0,0,0,1,,,,,,,,
,,,,,,,,30,2021-12-06_11h32.00.442,premceCat2_ses-02_part-02_label-phase2,2020.2.10,MacIntel,60,,,,,,,,,0,115,115,25,1,stimuli/objects/shotglass.jpg,left,old,169,,,,,,,,,,,,,,,
,,,,,,,,30,2021-12-06_11h32.00.442,premceCat2_ses-02_part-02_label-phase2,2020.2.10,MacIntel,60,,,,,right,1.3681,2,0.2441,0,116,116,92,1,stimuli/objects/snowshovel.jpg,left,old,236,,,,,,,,,,,,,,,
,,,,,,,,30,2021-12-06_11h32.00.442,premceCat2_ses-02_part-02_label-phase2,2020.2.10,MacIntel,60,,,,,right,0.7214,2,0.2105,0,117,117,131,1,stimuli/objects/handblender.jpg,right,new,275,,,,,,,,,,,,,,,
,,,,,,,,30,2021-12-06_11h32.00.442,premceCat2_ses-02_part-02_label-phase2,2020.2.10,MacIntel,60,,,,,left,1.107,4,0.0378,,,,,,,,,,left,0.3671,0,0,0,0,1,,,,,,,,
,,,,,,,,30,2021-12-06_11h32.00.442,premceCat2_ses-02_part-02_label-phase2,2020.2.10,MacIntel,60,,,,,,,,,0,118,118,63,1,stimuli/objects/towel01.jpg,left,old,207,,,,,,,,,,,,,,,
,,,,,,,,30,2021-12-06_11h32.00.442,premceCat2_ses-02_part-02_label-phase2,2020.2.10,MacIntel,60,,,,,right,1.4523,2,0.3279,0,119,119,31,1,stimuli/objects/soccerball.jpg,left,old,175,,,,,,,,,,,,,,,
,,,,,,,,30,2021-12-06_11h32.00.442,premceCat2_ses-02_part-02_label-phase2,2020.2.10,MacIntel,60,,,,,left,1.5405,2,0.3786,,,,,,,,,,right,0.2094,0,0,0,0,1,,,,,,,,
,,,,,,,,30,2021-12-06_11h32.00.442,premceCat2_ses-02_part-02_label-phase2,2020.2.10,MacIntel,60,,,,,,,,,0,120,120,129,1,stimuli/objects/hoe.jpg,left,old,273,,,,,,,,,,,,,,,
,,,,,,,,30,2021-12-06_11h32.00.442,premceCat2_ses-02_part-02_label-phase2,2020.2.10,MacIntel,60,,,,,right,1.8064,2,0.2442,0,121,121,137,1,stimuli/objects/nutcracker01.jpg,right,new,281,,,,,,,,,,,,,,,
,,,,,,,,30,2021-12-06_11h32.00.442,premceCat2_ses-02_part-02_label-phase2,2020.2.10,MacIntel,60,,,,,right,0.87,3,0.2982,0,122,122,95,1,stimuli/objects/tennisball01b.jpg,right,new,239,,,,,,,,,,,,,,,
,,,,,,,,30,2021-12-06_11h32.00.442,premceCat2_ses-02_part-02_label-phase2,2020.2.10,MacIntel,60,,,,,left,1.3689,4,0.3067,,,,,,,,,,left,0.2436,0,0,0,0,1,,,,,,,,
,,,,,,,,30,2021-12-06_11h32.00.442,premceCat2_ses-02_part-02_label-phase2,2020.2.10,MacIntel,60,,,,,,,,,0,123,123,110,1,stimuli/objects/skiboot01a.jpg,left,old,254,,,,,,,,,,,,,,,
,,,,,,,,30,2021-12-06_11h32.00.442,premceCat2_ses-02_part-02_label-phase2,2020.2.10,MacIntel,60,,,,,right,1.2084,1,0.4086,0,124,124,97,1,stimuli/objects/tupperware03a.jpg,left,old,241,,,,,,,,,,,,,,,
,,,,,,,,30,2021-12-06_11h32.00.442,premceCat2_ses-02_part-02_label-phase2,2020.2.10,MacIntel,60,,,,,right,1.6228,2,0.8815,0,125,125,123,1,stimuli/objects/jackhammer.jpg,right,new,267,,,,,,,,,,,,,,,
,,,,,,,,30,2021-12-06_11h32.00.442,premceCat2_ses-02_part-02_label-phase2,2020.2.10,MacIntel,60,,,,,right,1.0821,4,0.4346,0,126,126,83,1,stimuli/objects/icecubetray01a.jpg,right,new,227,,,,,,,,,,,,,,,
,,,,,,,,30,2021-12-06_11h32.00.442,premceCat2_ses-02_part-02_label-phase2,2020.2.10,MacIntel,60,,,,,left,1.6494,3,0.2789,,,,,,,,,,right,0.3273,0,0,0,0,1,,,,,,,,
,,,,,,,,30,2021-12-06_11h32.00.442,premceCat2_ses-02_part-02_label-phase2,2020.2.10,MacIntel,60,,,,,,,,,0,127,127,141,1,stimuli/objects/travelmug.jpg,left,old,285,,,,,,,,,,,,,,,
,,,,,,,,30,2021-12-06_11h32.00.442,premceCat2_ses-02_part-02_label-phase2,2020.2.10,MacIntel,60,,,,,right,1.501,2,0.4127,0,128,128,67,1,stimuli/objects/fan.jpg,left,old,211,,,,,,,,,,,,,,,
,,,,,,,,30,2021-12-06_11h32.00.442,premceCat2_ses-02_part-02_label-phase2,2020.2.10,MacIntel,60,,,,,left,1.1533,4,0.2578,,,,,,,,,,right,0.1448,0,0,0,0,1,,,,,,,,
,,,,,,,,30,2021-12-06_11h32.00.442,premceCat2_ses-02_part-02_label-phase2,2020.2.10,MacIntel,60,,,,,,,,,0,129,129,108,1,stimuli/objects/telephone01b.jpg,left,old,252,,,,,,,,,,,,,,,
,,,,,,,,30,2021-12-06_11h32.00.442,premceCat2_ses-02_part-02_label-phase2,2020.2.10,MacIntel,60,,,,,left,1.5222,2,0.2458,,,,,,,,,,left,0.2302,0,0,0,0,1,,,,,,,,
,,,,,,,,30,2021-12-06_11h32.00.442,premceCat2_ses-02_part-02_label-phase2,2020.2.10,MacIntel,60,,,,,,,,,0,130,130,3,1,stimuli/objects/boxingglove01.jpg,right,new,147,,,,,,,,,,,,,,,
,,,,,,,,30,2021-12-06_11h32.00.442,premceCat2_ses-02_part-02_label-phase2,2020.2.10,MacIntel,60,,,,,left,1.919,2,0.3,,,,,,,,,,right,0.1805,0,0,0,0,1,,,,,,,,
,,,,,,,,30,2021-12-06_11h32.00.442,premceCat2_ses-02_part-02_label-phase2,2020.2.10,MacIntel,60,,,,,,,,,0,131,131,113,1,stimuli/objects/hedgeshears.jpg,left,old,257,,,,,,,,,,,,,,,
,,,,,,,,30,2021-12-06_11h32.00.442,premceCat2_ses-02_part-02_label-phase2,2020.2.10,MacIntel,60,,,,,left,0.841,2,0.8763,,,,,,,,,,left,0.1805,0,0,0,0,1,,,,,,,,
,,,,,,,,30,2021-12-06_11h32.00.442,premceCat2_ses-02_part-02_label-phase2,2020.2.10,MacIntel,60,,,,,,,,,0,132,132,20,1,stimuli/objects/bikehelmet.jpg,left,old,164,,,,,,,,,,,,,,,
,,,,,,,,30,2021-12-06_11h32.00.442,premceCat2_ses-02_part-02_label-phase2,2020.2.10,MacIntel,60,,,,,left,1.6853,4,0.2416,,,,,,,,,,right,0.1844,0,0,0,0,1,,,,,,,,
,,,,,,,,30,2021-12-06_11h32.00.442,premceCat2_ses-02_part-02_label-phase2,2020.2.10,MacIntel,60,,,,,,,,,0,133,133,75,1,stimuli/objects/mallet01b.jpg,left,old,219,,,,,,,,,,,,,,,
,,,,,,,,30,2021-12-06_11h32.00.442,premceCat2_ses-02_part-02_label-phase2,2020.2.10,MacIntel,60,,,,,left,1.7047,4,0.1924,,,,,,,,,,right,0.2679,0,0,0,0,1,,,,,,,,
,,,,,,,,30,2021-12-06_11h32.00.442,premceCat2_ses-02_part-02_label-phase2,2020.2.10,MacIntel,60,,,,,,,,,0,134,134,62,1,stimuli/objects/pot01.jpg,left,old,206,,,,,,,,,,,,,,,
,,,,,,,,30,2021-12-06_11h32.00.442,premceCat2_ses-02_part-02_label-phase2,2020.2.10,MacIntel,60,,,,,left,1.4555,3,0.6118,,,,,,,,,,right,0.396,0,0,0,0,1,,,,,,,,
,,,,,,,,30,2021-12-06_11h32.00.442,premceCat2_ses-02_part-02_label-phase2,2020.2.10,MacIntel,60,,,,,,,,,0,135,135,80,1,stimuli/objects/barbecue03.jpg,right,new,224,,,,,,,,,,,,,,,
,,,,,,,,30,2021-12-06_11h32.00.442,premceCat2_ses-02_part-02_label-phase2,2020.2.10,MacIntel,60,,,,,right,1.6706,4,0.1838,0,136,136,66,1,stimuli/objects/heatpump.jpg,right,new,210,,,,,,,,,,,,,,,
,,,,,,,,30,2021-12-06_11h32.00.442,premceCat2_ses-02_part-02_label-phase2,2020.2.10,MacIntel,60,,,,,right,0.8205,4,0.328,0,137,137,121,1,stimuli/objects/parachute.jpg,right,new,265,,,,,,,,,,,,,,,
,,,,,,,,30,2021-12-06_11h32.00.442,premceCat2_ses-02_part-02_label-phase2,2020.2.10,MacIntel,60,,,,,right,1.1013,3,0.2291,0,138,138,1,1,stimuli/objects/crocodileclips.jpg,left,old,145,,,,,,,,,,,,,,,
,,,,,,,,30,2021-12-06_11h32.00.442,premceCat2_ses-02_part-02_label-phase2,2020.2.10,MacIntel,60,,,,,right,0.957,4,0.2794,0,139,139,19,1,stimuli/objects/mug01.jpg,right,new,163,,,,,,,,,,,,,,,
,,,,,,,,30,2021-12-06_11h32.00.442,premceCat2_ses-02_part-02_label-phase2,2020.2.10,MacIntel,60,,,,,left,0.8199,4,0.1751,,,,,,,,,,left,0.3687,0,0,0,0,1,,,,,,,,
,,,,,,,,30,2021-12-06_11h32.00.442,premceCat2_ses-02_part-02_label-phase2,2020.2.10,MacIntel,60,,,,,,,,,0,140,140,38,1,stimuli/objects/breadknife.jpg,left,old,182,,,,,,,,,,,,,,,
,,,,,,,,30,2021-12-06_11h32.00.442,premceCat2_ses-02_part-02_label-phase2,2020.2.10,MacIntel,60,,,,,right,1.156,4,0.2257,0,141,141,87,1,stimuli/objects/wiicontroller.jpg,right,new,231,,,,,,,,,,,,,,,
,,,,,,,,30,2021-12-06_11h32.00.442,premceCat2_ses-02_part-02_label-phase2,2020.2.10,MacIntel,60,,,,,right,1.0549,4,0.2128,0,142,142,26,1,stimuli/objects/flashlight02b.jpg,right,new,170,,,,,,,,,,,,,,,
,,,,,,,,30,2021-12-06_11h32.00.442,premceCat2_ses-02_part-02_label-phase2,2020.2.10,MacIntel,60,,,,,,,,,,,,,,,,,,,,,,,,,space,5.0535,0,1,1,1,1,condition_files/ImagesforRecog3_2.csv
