"SubNum","character","response","respCat","corrCat","accuracy","cumAcc","cumAccBlock","cumAccbyChar","RT","trialNum","trialNbychar","listN","NfromChange","befAft","iCP","trialCond","image"
"1","m5","2","Hand labour tool & accessory","Hand labour tool & accessory","1","1","1","1","0.731","1","1","0","1","0","beforeCP","1","handrake01a.jpg"
"1","m5","2","Electronic device & accessory","Hand labour tool & accessory","0","0.5","0.5","0.5","2.421","2","2","0","2","0","afterCP","1","jumpingjack.jpg"
"1","m2","3","Outdoor activity & sport item","Outdoor activity & sport item","1","0.666666666666667","0.666666666666667","1","1.023","3","1","0","3","0","beforeCP","1","racquetballracket.jpg"
"1","m2","1","Electronic device & accessory","Outdoor activity & sport item","0","0.5","0.5","0.5","1.485","4","2","0","4","0","afterCP","1","racquetballracket.jpg"
"1","m2","1","Outdoor activity & sport item","Outdoor activity & sport item","1","0.6","0.6","0.666666666666667","1.005","5","3","0","5","0","beforeCP","1","crosscountryski.jpg"
"1","m2","1","Outdoor activity & sport item","Outdoor activity & sport item","1","0.666666666666667","0.666666666666667","0.75","0.451","6","4","0","6","0","beforeCP","1","crosscountryski.jpg"
"1","m5","2","Electronic device & accessory","Hand labour tool & accessory","0","0.571428571428571","0.571428571428571","0.333333333333333","0.92","7","3","0","7","0","beforeCP","1","jumpingjack.jpg"
"1","m5","2","Hand labour tool & accessory","Hand labour tool & accessory","1","0.625","0.625","0.5","0.581","8","4","0","8","1","beforeCP","1","pitchfork.jpg"
"1","m5","1","Kitchen & utensil","Hand labour tool & accessory","0","0.555555555555556","0.555555555555556","0.4","0.676","9","5","0","9","1","beforeCP","1","gavel.jpg"
"1","m2","4","Hand labour tool & accessory","Outdoor activity & sport item","0","0.5","0.5","0.6","0.895","10","5","0","10","1","afterCP","1","bicycle.jpg"
"1","m2","2","Outdoor activity & sport item","Outdoor activity & sport item","1","0.545454545454545","0.545454545454545","0.666666666666667","0.812","11","6","0","11","1","afterCP","1","racquetballracket.jpg"
"1","m2","1","Hand labour tool & accessory","Outdoor activity & sport item","0","0.5","0.5","0.571428571428571","0.904","12","7","0","12","1","afterCP","1","rollerblade.jpg"
"1","m5","3","Electronic device & accessory","Hand labour tool & accessory","0","0.461538461538462","0.461538461538462","0.333333333333333","1.583","13","6","0","13","1","afterCP","1","hedgetrimmer.jpg"
"1","m5","1","Hand labour tool & accessory","Hand labour tool & accessory","1","0.5","0.5","0.428571428571429","0.552","14","7","0","14","1","afterCP","1","jumpingjack.jpg"
"1","m2","2","Outdoor activity & sport item","Outdoor activity & sport item","1","1","1","1","0.518","15","1","2","2","0","beforeCP","1","swimgoggles.jpg"
"1","m5","2","Hand labour tool & accessory","Hand labour tool & accessory","1","1","1","1","0.913","16","1","2","4","0","beforeCP","1","adjustablewrench01b.jpg"
"1","m2","1","Hand labour tool & accessory","Outdoor activity & sport item","0","0.666666666666667","0.666666666666667","0.5","1.119","17","2","2","6","0","beforeCP","1","patioumbrella.jpg"
"1","m2","1","Outdoor activity & sport item","Outdoor activity & sport item","1","0.75","0.75","0.666666666666667","0.738","18","3","2","9","0","beforeCP","1","baseball01a.jpg"
"1","m2","4","Outdoor activity & sport item","Outdoor activity & sport item","1","0.8","0.8","0.75","0.978","19","4","2","10","0","beforeCP","1","bikehelmet.jpg"
"1","m2","2","Outdoor activity & sport item","Outdoor activity & sport item","1","0.833333333333333","0.833333333333333","0.8","0.954","20","5","2","11","0","beforeCP","1","canoepaddle02.jpg"
"1","m5","1","Electronic device & accessory","Hand labour tool & accessory","0","0.714285714285714","0.714285714285714","0.5","0.583","21","2","2","12","0","beforeCP","1","leafrake.jpg"
"1","m5","2","Hand labour tool & accessory","Hand labour tool & accessory","1","0.75","0.75","0.666666666666667","1.262","22","3","2","13","0","beforeCP","1","lawnmower.jpg"
"1","m2","2","Outdoor activity & sport item","Outdoor activity & sport item","1","0.777777777777778","0.777777777777778","0.833333333333333","1.416","23","6","2","14","0","beforeCP","1","reflector.jpg"
"1","m5","3","Hand labour tool & accessory","Hand labour tool & accessory","1","0.8","0.8","0.75","1.069","24","4","2","17","0","beforeCP","1","pliers02b.jpg"
"1","m2","3","Kitchen & utensil","Outdoor activity & sport item","0","0.727272727272727","0.727272727272727","0.714285714285714","1.099","25","7","2","19","0","beforeCP","1","boatmotor.jpg"
"1","m5","1","Hand labour tool & accessory","Hand labour tool & accessory","1","0.75","0.75","0.8","0.653","26","5","2","20","0","beforeCP","1","drillbit03a.jpg"
"1","m2","3","Outdoor activity & sport item","Outdoor activity & sport item","1","0.769230769230769","0.769230769230769","0.75","0.596","27","8","2","21","0","beforeCP","1","lifesaver.jpg"
"1","m5","1","Electronic device & accessory","Hand labour tool & accessory","0","0.714285714285714","0.714285714285714","0.666666666666667","0.56","28","6","2","22","0","beforeCP","1","tape02a.jpg"
"1","m2","2","Kitchen & utensil","Outdoor activity & sport item","0","0.666666666666667","0.666666666666667","0.666666666666667","0.838","29","9","2","23","0","beforeCP","1","ellipticalmachine.jpg"
"1","m5","3","Hand labour tool & accessory","Hand labour tool & accessory","1","0.6875","0.6875","0.714285714285714","0.606","30","7","2","24","0","beforeCP","1","wheelbarrow01.jpg"
"1","m5","1","Hand labour tool & accessory","Hand labour tool & accessory","1","0.705882352941176","0.705882352941176","0.75","0.552","31","8","2","26","1","beforeCP","1","boltcutter.jpg"
"1","m5","2","Hand labour tool & accessory","Hand labour tool & accessory","1","0.722222222222222","0.722222222222222","0.777777777777778","0.651","32","9","2","27","1","beforeCP","1","gluetube.jpg"
"1","m2","3","Electronic device & accessory","Outdoor activity & sport item","0","0.684210526315789","0.684210526315789","0.6","0.758","33","10","2","28","1","beforeCP","1","volleyball.jpg"
"1","m2","3","Outdoor activity & sport item","Outdoor activity & sport item","1","0.7","0.7","0.636363636363636","1.592","34","11","2","29","1","beforeCP","1","sportbag.jpg"
"1","m2","2","Outdoor activity & sport item","Outdoor activity & sport item","1","0.714285714285714","0.714285714285714","0.666666666666667","0.601","35","12","2","30","1","beforeCP","1","hockeygoaliemask.jpg"
"1","m5","4","Hand labour tool & accessory","Hand labour tool & accessory","1","0.727272727272727","0.727272727272727","0.8","0.832","36","10","2","31","1","beforeCP","1","pressurewasher.jpg"
"1","m5","1","Hand labour tool & accessory","Hand labour tool & accessory","1","0.739130434782609","0.739130434782609","0.818181818181818","0.78","37","11","2","32","1","beforeCP","1","saw02b.jpg"
"1","m5","2","Hand labour tool & accessory","Hand labour tool & accessory","1","0.75","0.75","0.833333333333333","0.641","38","12","2","34","1","beforeCP","1","wheel01.jpg"
"1","m5","2","Hand labour tool & accessory","Hand labour tool & accessory","1","0.76","0.76","0.846153846153846","0.675","39","13","2","35","1","beforeCP","1","puttyknife.jpg"
"1","m2","4","Hand labour tool & accessory","Outdoor activity & sport item","0","0.730769230769231","0.730769230769231","0.615384615384615","1.569","40","13","2","37","1","beforeCP","1","exercisebike.jpg"
"1","m2","2","Outdoor activity & sport item","Outdoor activity & sport item","1","0.740740740740741","0.740740740740741","0.642857142857143","0.824","41","14","2","38","1","beforeCP","1","bikelock.jpg"
"1","m2","1","Outdoor activity & sport item","Outdoor activity & sport item","1","0.75","0.75","0.666666666666667","1.024","42","15","2","39","1","beforeCP","1","bikepump01.jpg"
"1","m2","2","Outdoor activity & sport item","Outdoor activity & sport item","1","0.758620689655172","0.758620689655172","0.6875","1.359","43","16","2","40","1","beforeCP","1","propanetank01.jpg"
"1","m5","4","Hand labour tool & accessory","Hand labour tool & accessory","1","0.766666666666667","0.766666666666667","0.857142857142857","0.994","44","14","2","41","1","beforeCP","1","metalbrush.jpg"
"1","m5","2","Hand labour tool & accessory","Hand labour tool & accessory","1","0.774193548387097","0.774193548387097","0.866666666666667","0.702","45","15","2","43","1","beforeCP","1","weedwacker.jpg"
"1","m2","3","Outdoor activity & sport item","Outdoor activity & sport item","1","0.78125","0.78125","0.705882352941176","0.744","46","17","2","44","1","beforeCP","1","toyhockeystick01.jpg"
"1","m5","4","Hand labour tool & accessory","Hand labour tool & accessory","1","0.787878787878788","0.787878787878788","0.875","1.11","47","16","2","45","1","beforeCP","1","hedgeshears.jpg"
"1","m5","2","Hand labour tool & accessory","Hand labour tool & accessory","1","0.794117647058823","0.794117647058823","0.882352941176471","0.664","48","17","2","46","1","beforeCP","1","caulking.jpg"
"1","m2","4","Outdoor activity & sport item","Outdoor activity & sport item","1","0.8","0.8","0.722222222222222","0.848","49","18","2","47","1","beforeCP","1","soccerball.jpg"
"1","m5","1","Hand labour tool & accessory","Hand labour tool & accessory","1","0.805555555555555","0.805555555555555","0.888888888888889","0.76","50","18","2","48","1","beforeCP","1","axe01.jpg"
"1","m5","3","Electronic device & accessory","Kitchen & utensil","0","0.783783783783784","0","0","0.768","51","1","3","1","0","afterCP","1","toothpick02.jpg"
"1","m5","2","Kitchen & utensil","Kitchen & utensil","1","0.789473684210526","0.5","0.5","0.835","52","2","3","2","0","afterCP","1","woodenspoon.jpg"
"1","m5","2","Outdoor activity & sport item","Kitchen & utensil","0","0.769230769230769","0.333333333333333","0.333333333333333","0.896","53","3","3","4","0","afterCP","1","gravyboat.jpg"
"1","m2","3","Outdoor activity & sport item","Electronic device & accessory","0","0.75","0.25","0","0.975","54","1","3","5","0","afterCP","1","videocamera01a.jpg"
"1","m5","2","Kitchen & utensil","Kitchen & utensil","1","0.75609756097561","0.4","0.5","0.707","55","4","3","6","0","afterCP","1","coffeepot03a.jpg"
"1","m2","1","Electronic device & accessory","Electronic device & accessory","1","0.761904761904762","0.5","0.5","0.913","56","2","3","7","0","afterCP","1","filmnegative.jpg"
"1","m5","3","Kitchen & utensil","Kitchen & utensil","1","0.767441860465116","0.571428571428571","0.6","0.902","57","5","3","8","0","beforeCP","1","dishrack.jpg"
"1","m5","3","Kitchen & utensil","Kitchen & utensil","1","0.772727272727273","0.625","0.666666666666667","0.761","58","6","3","10","0","beforeCP","1","spatula04.jpg"
"1","m2","1","Outdoor activity & sport item","Electronic device & accessory","0","0.755555555555556","0.555555555555556","0.333333333333333","1.483","59","3","3","12","0","beforeCP","1","usbcable01a.jpg"
"1","m2","4","Electronic device & accessory","Electronic device & accessory","1","0.760869565217391","0.6","0.5","1.151","60","4","3","13","0","beforeCP","1","antenna.jpg"
"1","m2","4","Electronic device & accessory","Electronic device & accessory","1","0.765957446808511","0.636363636363636","0.6","0.906","61","5","3","15","0","beforeCP","1","ipad02.jpg"
"1","m2","4","Electronic device & accessory","Electronic device & accessory","1","0.770833333333333","0.666666666666667","0.666666666666667","1.269","62","6","3","16","0","beforeCP","1","fanblades.jpg"
"1","m2","2","Electronic device & accessory","Electronic device & accessory","1","0.775510204081633","0.692307692307692","0.714285714285714","0.915","63","7","3","18","0","beforeCP","1","payphone.jpg"
"1","m5","4","Kitchen & utensil","Kitchen & utensil","1","0.78","0.714285714285714","0.714285714285714","1.088","64","7","3","19","0","beforeCP","1","martiniglass01b.jpg"
"1","m2","2","Outdoor activity & sport item","Electronic device & accessory","0","0.764705882352941","0.666666666666667","0.625","0.895","65","8","3","20","0","beforeCP","1","satellitedish01.jpg"
"1","m2","1","Electronic device & accessory","Electronic device & accessory","1","0.769230769230769","0.6875","0.666666666666667","0.547","66","9","3","21","0","beforeCP","1","electricoutlet.jpg"
"1","m5","2","Kitchen & utensil","Kitchen & utensil","1","0.773584905660377","0.705882352941176","0.75","0.93","67","8","3","22","0","beforeCP","1","handmixer01d.jpg"
"1","m5","4","Kitchen & utensil","Kitchen & utensil","1","0.777777777777778","0.722222222222222","0.777777777777778","1.471","68","9","3","23","0","beforeCP","1","pitcher02b.jpg"
"1","m2","1","Electronic device & accessory","Electronic device & accessory","1","0.781818181818182","0.736842105263158","0.7","0.77","69","10","3","24","0","beforeCP","1","nintendods.jpg"
"1","m5","4","Kitchen & utensil","Kitchen & utensil","1","0.785714285714286","0.75","0.8","0.963","70","10","3","25","1","beforeCP","1","shotglass.jpg"
"1","m2","4","Kitchen & utensil","Electronic device & accessory","0","0.771929824561403","0.714285714285714","0.636363636363636","0.987","71","11","3","27","1","beforeCP","1","cellphone.jpg"
"1","m2","4","Electronic device & accessory","Electronic device & accessory","1","0.775862068965517","0.727272727272727","0.666666666666667","1.37","72","12","3","28","1","beforeCP","1","vhstape.jpg"
"1","m5","1","Electronic device & accessory","Kitchen & utensil","0","0.76271186440678","0.695652173913043","0.727272727272727","0.787","73","11","3","31","1","beforeCP","1","butterknife.jpg"
"1","m2","3","Outdoor activity & sport item","Electronic device & accessory","0","0.75","0.666666666666667","0.615384615384615","1.196","74","13","3","32","1","beforeCP","1","gps.jpg"
"1","m5","2","Electronic device & accessory","Kitchen & utensil","0","0.737704918032787","0.64","0.666666666666667","0.719","75","12","3","34","1","beforeCP","1","waterbottle03.jpg"
"1","m5","2","Kitchen & utensil","Kitchen & utensil","1","0.741935483870968","0.653846153846154","0.692307692307692","0.543","76","13","3","35","1","beforeCP","1","peeler01.jpg"
"1","m2","1","Electronic device & accessory","Electronic device & accessory","1","0.746031746031746","0.666666666666667","0.642857142857143","0.413","77","14","3","36","1","beforeCP","1","dvdplayer.jpg"
"1","m5","2","Kitchen & utensil","Kitchen & utensil","1","0.75","0.678571428571428","0.714285714285714","0.674","78","14","3","37","1","beforeCP","1","tupperware03a.jpg"
"1","m5","3","Kitchen & utensil","Kitchen & utensil","1","0.753846153846154","0.689655172413793","0.733333333333333","0.933","79","15","3","38","1","beforeCP","1","espressomachine.jpg"
"1","m5","2","Electronic device & accessory","Kitchen & utensil","0","0.742424242424242","0.666666666666667","0.6875","0.712","80","16","3","39","1","beforeCP","1","bowl02a.jpg"
"1","m5","2","Kitchen & utensil","Kitchen & utensil","1","0.746268656716418","0.67741935483871","0.705882352941176","1.118","81","17","3","40","1","beforeCP","1","towel01.jpg"
"1","m2","3","Electronic device & accessory","Electronic device & accessory","1","0.75","0.6875","0.666666666666667","0.842","82","15","3","42","1","beforeCP","1","lightbulb01.jpg"
"1","m2","4","Electronic device & accessory","Electronic device & accessory","1","0.753623188405797","0.696969696969697","0.6875","0.904","83","16","3","43","1","beforeCP","1","outletadapter.jpg"
"1","m2","1","Electronic device & accessory","Electronic device & accessory","1","0.757142857142857","0.705882352941176","0.705882352941176","1.011","84","17","3","44","1","beforeCP","1","securitycamera.jpg"
"1","m5","2","Kitchen & utensil","Kitchen & utensil","1","0.76056338028169","0.714285714285714","0.722222222222222","0.686","85","18","3","45","1","beforeCP","1","funnel.jpg"
"1","m2","2","Outdoor activity & sport item","Electronic device & accessory","0","0.75","0.694444444444444","0.666666666666667","1.015","86","18","3","48","1","beforeCP","1","expansioncard.jpg"
"1","m2","2","Electronic device & accessory","Kitchen & utensil","0","0.73972602739726","0","0","1.303","87","1","4","2","0","afterCP","1","gasburner.jpg"
"1","m2","1","Hand labour tool & accessory","Kitchen & utensil","0","0.72972972972973","0","0","1.247","88","2","4","3","0","afterCP","1","cork02.jpg"
"1","m2","2","Kitchen & utensil","Kitchen & utensil","1","0.733333333333333","0.333333333333333","0.333333333333333","1.161","89","3","4","4","0","afterCP","1","hourglass.jpg"
"1","m2","1","Kitchen & utensil","Kitchen & utensil","1","0.736842105263158","0.5","0.5","0.613","90","4","4","5","0","afterCP","1","cleaver01.jpg"
"1","m5","2","Outdoor activity & sport item","Hand labour tool & accessory","0","0.727272727272727","0.4","0","0.646","91","1","4","6","0","afterCP","1","mallet01b.jpg"
"1","m5","2","Hand labour tool & accessory","Hand labour tool & accessory","1","0.730769230769231","0.5","0.5","0.734","92","2","4","7","0","afterCP","1","hoe.jpg"
"1","m2","3","Kitchen & utensil","Kitchen & utensil","1","0.734177215189873","0.571428571428571","0.6","1.004","93","5","4","9","0","beforeCP","1","cookingpot.jpg"
"1","m2","1","Electronic device & accessory","Kitchen & utensil","0","0.725","0.5","0.5","0.569","94","6","4","11","0","afterCP","1","tray.jpg"
"1","m5","4","Hand labour tool & accessory","Hand labour tool & accessory","1","0.728395061728395","0.555555555555556","0.666666666666667","0.783","95","3","4","12","0","beforeCP","1","jumpercables.jpg"
"1","m5","4","Hand labour tool & accessory","Hand labour tool & accessory","1","0.731707317073171","0.6","0.75","0.796","96","4","4","13","0","beforeCP","1","squeegee01b.jpg"
"1","m5","3","Hand labour tool & accessory","Hand labour tool & accessory","1","0.734939759036145","0.636363636363636","0.8","0.893","97","5","4","14","0","beforeCP","1","painttray.jpg"
"1","m5","3","Outdoor activity & sport item","Hand labour tool & accessory","0","0.726190476190476","0.583333333333333","0.666666666666667","1.064","98","6","4","17","0","beforeCP","1","rope03.jpg"
"1","m2","2","Hand labour tool & accessory","Kitchen & utensil","0","0.717647058823529","0.538461538461539","0.428571428571429","0.765","99","7","4","19","0","afterCP","1","watercooler.jpg"
"1","m5","4","Hand labour tool & accessory","Hand labour tool & accessory","1","0.720930232558139","0.571428571428571","0.714285714285714","1.01","100","7","4","20","0","beforeCP","1","hammer01.jpg"
"1","m5","3","Hand labour tool & accessory","Hand labour tool & accessory","1","0.724137931034483","0.6","0.75","1.049","101","8","4","21","0","beforeCP","1","jigsaw.jpg"
"1","m5","1","Hand labour tool & accessory","Hand labour tool & accessory","1","0.727272727272727","0.625","0.777777777777778","0.618","102","9","4","22","0","beforeCP","1","level03a.jpg"
"1","m5","3","Hand labour tool & accessory","Hand labour tool & accessory","1","0.730337078651685","0.647058823529412","0.8","0.54","103","10","4","23","0","beforeCP","1","toyhardhat.jpg"
"1","m2","1","Outdoor activity & sport item","Kitchen & utensil","0","0.722222222222222","0.611111111111111","0.375","1.158","104","8","4","24","0","beforeCP","1","jar02.jpg"
"1","m5","1","Hand labour tool & accessory","Hand labour tool & accessory","1","0.725274725274725","0.631578947368421","0.818181818181818","0.939","105","11","4","25","1","beforeCP","1","drill01b.jpg"
"1","m2","3","Kitchen & utensil","Kitchen & utensil","1","0.728260869565217","0.65","0.444444444444444","0.997","106","9","4","28","1","beforeCP","1","saladspinner.jpg"
"1","m5","2","Hand labour tool & accessory","Hand labour tool & accessory","1","0.731182795698925","0.666666666666667","0.833333333333333","0.968","107","12","4","29","1","beforeCP","1","knifesharpener.jpg"
"1","m2","4","Kitchen & utensil","Kitchen & utensil","1","0.734042553191489","0.681818181818182","0.5","1.356","108","10","4","31","1","beforeCP","1","thermos.jpg"
"1","m2","3","Outdoor activity & sport item","Kitchen & utensil","0","0.726315789473684","0.652173913043478","0.454545454545455","0.835","109","11","4","32","1","beforeCP","1","aluminiumfoil.jpg"
"1","m5","3","Hand labour tool & accessory","Hand labour tool & accessory","1","0.729166666666667","0.666666666666667","0.846153846153846","0.869","110","13","4","33","1","beforeCP","1","wateringcan.jpg"
"1","m5","2","Hand labour tool & accessory","Hand labour tool & accessory","1","0.731958762886598","0.68","0.857142857142857","0.893","111","14","4","34","1","beforeCP","1","gardenshears01a.jpg"
"1","m2","1","Kitchen & utensil","Kitchen & utensil","1","0.73469387755102","0.692307692307692","0.5","1","112","12","4","35","1","beforeCP","1","spoon01.jpg"
"1","m2","3","Kitchen & utensil","Kitchen & utensil","1","0.737373737373737","0.703703703703704","0.538461538461539","1.068","113","13","4","36","1","beforeCP","1","corkscrew03a.jpg"
"1","m2","1","Hand labour tool & accessory","Kitchen & utensil","0","0.73","0.678571428571428","0.5","0.833","114","14","4","37","1","beforeCP","1","bottlecap.jpg"
"1","m2","4","Kitchen & utensil","Kitchen & utensil","1","0.732673267326733","0.689655172413793","0.533333333333333","0.819","115","15","4","38","1","beforeCP","1","pot01.jpg"
"1","m5","1","Hand labour tool & accessory","Hand labour tool & accessory","1","0.735294117647059","0.7","0.866666666666667","0.647","116","15","4","39","1","beforeCP","1","gastank.jpg"
"1","m5","1","Hand labour tool & accessory","Hand labour tool & accessory","1","0.737864077669903","0.709677419354839","0.875","0.523","117","16","4","40","1","beforeCP","1","stubbywrench01a.jpg"
"1","m2","1","Kitchen & utensil","Kitchen & utensil","1","0.740384615384615","0.71875","0.5625","1.175","118","16","4","41","1","beforeCP","1","potatomasher03b.jpg"
"1","m2","3","Kitchen & utensil","Kitchen & utensil","1","0.742857142857143","0.727272727272727","0.588235294117647","0.907","119","17","4","43","1","beforeCP","1","oven.jpg"
"1","m5","4","Electronic device & accessory","Hand labour tool & accessory","0","0.735849056603774","0.705882352941176","0.823529411764706","0.99","120","17","4","45","1","beforeCP","1","snowblower.jpg"
"1","m5","3","Outdoor activity & sport item","Hand labour tool & accessory","0","0.728971962616822","0.685714285714286","0.777777777777778","1.415","121","18","4","46","1","beforeCP","1","paintroller01.jpg"
"1","m2","3","Electronic device & accessory","Kitchen & utensil","0","0.722222222222222","0.666666666666667","0.555555555555556","0.926","122","18","4","47","1","beforeCP","1","pastaspoon.jpg"
"1","m2","1","Kitchen & utensil","Outdoor activity & sport item","0","0.715596330275229","0","0","1.044","123","1","5","1","0","afterCP","1","badmintonracket.jpg"
"1","m2","1","Electronic device & accessory","Outdoor activity & sport item","0","0.709090909090909","0","0","0.696","124","2","5","3","0","afterCP","1","shinpad.jpg"
"1","m2","4","Electronic device & accessory","Outdoor activity & sport item","0","0.702702702702703","0","0","1.113","125","3","5","4","0","afterCP","1","surfboard.jpg"
"1","m5","4","Hand labour tool & accessory","Electronic device & accessory","0","0.696428571428571","0","0","0.804","126","1","5","5","0","afterCP","1","alarmclock01.jpg"
"1","m5","4","Electronic device & accessory","Electronic device & accessory","1","0.699115044247788","0.2","0.5","1.049","127","2","5","8","0","afterCP","1","fan.jpg"
"1","m2","3","Hand labour tool & accessory","Outdoor activity & sport item","0","0.692982456140351","0.166666666666667","0","0.916","128","4","5","9","0","afterCP","1","podium.jpg"
"1","m2","3","Outdoor activity & sport item","Outdoor activity & sport item","1","0.695652173913043","0.285714285714286","0.2","1.017","129","5","5","10","0","afterCP","1","iceskate.jpg"
"1","m5","3","Hand labour tool & accessory","Electronic device & accessory","0","0.689655172413793","0.25","0.333333333333333","0.602","130","3","5","11","0","afterCP","1","filmroll.jpg"
"1","m5","3","Electronic device & accessory","Electronic device & accessory","1","0.692307692307692","0.333333333333333","0.5","1.341","131","4","5","13","0","afterCP","1","chandelier.jpg"
"1","m2","4","Outdoor activity & sport item","Outdoor activity & sport item","1","0.694915254237288","0.4","0.333333333333333","0.972","132","6","5","14","0","afterCP","1","cooler01.jpg"
"1","m5","1","Electronic device & accessory","Electronic device & accessory","1","0.697478991596639","0.454545454545455","0.6","0.801","133","5","5","15","0","afterCP","1","lectern01.jpg"
"1","m2","4","Outdoor activity & sport item","Outdoor activity & sport item","1","0.7","0.5","0.428571428571429","0.834","134","7","5","16","0","afterCP","1","fishinghook03.jpg"
"1","m5","3","Electronic device & accessory","Electronic device & accessory","1","0.702479338842975","0.538461538461539","0.666666666666667","1.131","135","6","5","17","0","afterCP","1","coffeemachine.jpg"
"1","m2","1","Outdoor activity & sport item","Outdoor activity & sport item","1","0.704918032786885","0.571428571428571","0.5","0.608","136","8","5","18","0","beforeCP","1","kiddiepool.jpg"
"1","m2","3","Outdoor activity & sport item","Outdoor activity & sport item","1","0.707317073170732","0.6","0.555555555555556","1.327","137","9","5","19","0","beforeCP","1","snowboard.jpg"
"1","m2","3","Electronic device & accessory","Outdoor activity & sport item","0","0.701612903225806","0.5625","0.5","1.307","138","10","5","20","0","beforeCP","1","handgripper.jpg"
"1","m2","2","Outdoor activity & sport item","Outdoor activity & sport item","1","0.704","0.588235294117647","0.545454545454545","0.609","139","11","5","21","0","beforeCP","1","hockeypuck.jpg"
"1","m2","1","Outdoor activity & sport item","Outdoor activity & sport item","1","0.706349206349206","0.611111111111111","0.583333333333333","0.805","140","12","5","23","0","beforeCP","1","backpack01a.jpg"
"1","m5","4","Electronic device & accessory","Electronic device & accessory","1","0.708661417322835","0.631578947368421","0.714285714285714","1.073","141","7","5","26","1","beforeCP","1","crocodileclips.jpg"
"1","m5","3","Hand labour tool & accessory","Electronic device & accessory","0","0.703125","0.6","0.625","1.161","142","8","5","28","1","beforeCP","1","fluorescentlightbulb.jpg"
"1","m5","3","Outdoor activity & sport item","Electronic device & accessory","0","0.697674418604651","0.571428571428571","0.555555555555556","0.983","143","9","5","31","1","beforeCP","1","ipod.jpg"
"1","m5","4","Electronic device & accessory","Electronic device & accessory","1","0.7","0.590909090909091","0.6","1.05","144","10","5","32","1","beforeCP","1","telephone01b.jpg"
"1","m5","3","Electronic device & accessory","Electronic device & accessory","1","0.702290076335878","0.608695652173913","0.636363636363636","0.904","145","11","5","33","1","beforeCP","1","slidetray.jpg"
"1","m5","4","Electronic device & accessory","Electronic device & accessory","1","0.704545454545455","0.625","0.666666666666667","0.933","146","12","5","34","1","beforeCP","1","photocopier.jpg"
"1","m5","3","Electronic device & accessory","Electronic device & accessory","1","0.706766917293233","0.64","0.692307692307692","0.864","147","13","5","35","1","beforeCP","1","desktopcomputer.jpg"
"1","m2","3","Outdoor activity & sport item","Outdoor activity & sport item","1","0.708955223880597","0.653846153846154","0.615384615384615","0.901","148","13","5","36","1","beforeCP","1","bikewheel.jpg"
"1","m5","3","Electronic device & accessory","Electronic device & accessory","1","0.711111111111111","0.666666666666667","0.714285714285714","0.923","149","14","5","37","1","beforeCP","1","fuse.jpg"
"1","m2","3","Outdoor activity & sport item","Outdoor activity & sport item","1","0.713235294117647","0.678571428571428","0.642857142857143","0.679","150","14","5","38","1","beforeCP","1","poolnet.jpg"
"1","m5","3","Electronic device & accessory","Electronic device & accessory","1","0.715328467153285","0.689655172413793","0.733333333333333","1.072","151","15","5","39","1","beforeCP","1","floppydisk02a.jpg"
"1","m2","2","Outdoor activity & sport item","Outdoor activity & sport item","1","0.717391304347826","0.7","0.666666666666667","0.957","152","15","5","40","1","beforeCP","1","hockeygoaliepad.jpg"
"1","m2","1","Outdoor activity & sport item","Outdoor activity & sport item","1","0.719424460431655","0.709677419354839","0.6875","1.027","153","16","5","41","1","beforeCP","1","skihelmet01.jpg"
"1","m2","2","Outdoor activity & sport item","Outdoor activity & sport item","1","0.721428571428571","0.71875","0.705882352941176","0.739","154","17","5","42","1","beforeCP","1","anchor.jpg"
"1","m5","1","Electronic device & accessory","Electronic device & accessory","1","0.723404255319149","0.727272727272727","0.75","0.91","155","16","5","43","1","beforeCP","1","carantenna.jpg"
"1","m2","4","Outdoor activity & sport item","Outdoor activity & sport item","1","0.725352112676056","0.735294117647059","0.722222222222222","0.803","156","18","5","44","1","beforeCP","1","fishingrod.jpg"
"1","m5","1","Electronic device & accessory","Electronic device & accessory","1","0.727272727272727","0.742857142857143","0.764705882352941","0.652","157","17","5","45","1","beforeCP","1","lamp04a.jpg"
"1","m5","4","Electronic device & accessory","Electronic device & accessory","1","0.729166666666667","0.75","0.777777777777778","0.932","158","18","5","46","1","beforeCP","1","extensioncord.jpg"
"2","m5","2","Hand labour tool & accessory","Hand labour tool & accessory","1","1","1","1","1.431","1","1","0","1","0","beforeCP","1","handrake01a.jpg"
"2","m5","4","Hand labour tool & accessory","Hand labour tool & accessory","1","1","1","1","2.615","2","2","0","2","0","beforeCP","1","jumpingjack.jpg"
"2","m2","3","Outdoor activity & sport item","Outdoor activity & sport item","1","1","1","1","1.338","3","1","0","3","0","beforeCP","1","racquetballracket.jpg"
"2","m2","4","Outdoor activity & sport item","Outdoor activity & sport item","1","1","1","1","1.232","4","2","0","4","0","beforeCP","1","racquetballracket.jpg"
"2","m2","1","Outdoor activity & sport item","Outdoor activity & sport item","1","1","1","1","1.42","5","3","0","5","0","beforeCP","1","crosscountryski.jpg"
"2","m2","1","Outdoor activity & sport item","Outdoor activity & sport item","1","1","1","1","0.787","6","4","0","6","0","beforeCP","1","crosscountryski.jpg"
"2","m5","4","Kitchen & utensil","Hand labour tool & accessory","0","0.857142857142857","0.857142857142857","0.666666666666667","2.188","7","3","0","7","0","beforeCP","1","jumpingjack.jpg"
"2","m5","4","Kitchen & utensil","Hand labour tool & accessory","0","0.75","0.75","0.5","1.181","8","4","0","8","1","beforeCP","1","pitchfork.jpg"
"2","m5","1","Kitchen & utensil","Hand labour tool & accessory","0","0.666666666666667","0.666666666666667","0.4","2.142","9","5","0","9","1","beforeCP","1","gavel.jpg"
"2","m2","1","Outdoor activity & sport item","Outdoor activity & sport item","1","0.7","0.7","1","1.492","10","5","0","10","1","beforeCP","1","bicycle.jpg"
"2","m2","2","Outdoor activity & sport item","Outdoor activity & sport item","1","0.727272727272727","0.727272727272727","1","1.599","11","6","0","11","1","beforeCP","1","racquetballracket.jpg"
"2","m2","2","Outdoor activity & sport item","Outdoor activity & sport item","1","0.75","0.75","1","1.304","12","7","0","12","1","beforeCP","1","rollerblade.jpg"
"2","m5","1","Hand labour tool & accessory","Hand labour tool & accessory","1","0.769230769230769","0.769230769230769","0.5","1.774","13","6","0","13","1","beforeCP","1","hedgetrimmer.jpg"
"2","m5","1","Hand labour tool & accessory","Hand labour tool & accessory","1","0.785714285714286","0.785714285714286","0.571428571428571","3.194","14","7","0","14","1","beforeCP","1","jumpingjack.jpg"
"2","m2","2","Outdoor activity & sport item","Outdoor activity & sport item","1","1","1","1","1.481","15","1","2","2","0","beforeCP","1","volleyball.jpg"
"2","m5","1","Kitchen & utensil","Hand labour tool & accessory","0","0.5","0.5","0","1.199","16","1","2","4","0","afterCP","1","toyhardhat.jpg"
"2","m2","2","Electronic device & accessory","Outdoor activity & sport item","0","0.333333333333333","0.333333333333333","0.5","1.161","17","2","2","6","0","afterCP","1","patioumbrella.jpg"
"2","m2","4","Electronic device & accessory","Outdoor activity & sport item","0","0.25","0.25","0.333333333333333","1.98","18","3","2","9","0","afterCP","1","podium.jpg"
"2","m2","4","Outdoor activity & sport item","Outdoor activity & sport item","1","0.4","0.4","0.5","1.096","19","4","2","10","0","afterCP","1","bikehelmet.jpg"
"2","m2","2","Outdoor activity & sport item","Outdoor activity & sport item","1","0.5","0.5","0.6","1.41","20","5","2","11","0","afterCP","1","anchor.jpg"
"2","m5","4","Kitchen & utensil","Hand labour tool & accessory","0","0.428571428571429","0.428571428571429","0","1.684","21","2","2","12","0","afterCP","1","snowshovel.jpg"
"2","m5","2","Hand labour tool & accessory","Hand labour tool & accessory","1","0.5","0.5","0.333333333333333","1.811","22","3","2","13","0","afterCP","1","level03a.jpg"
"2","m2","2","Outdoor activity & sport item","Outdoor activity & sport item","1","0.555555555555556","0.555555555555556","0.666666666666667","1.611","23","6","2","14","0","beforeCP","1","hockeygoaliepad.jpg"
"2","m5","3","Hand labour tool & accessory","Hand labour tool & accessory","1","0.6","0.6","0.5","1.301","24","4","2","17","0","beforeCP","1","sewingmachine01a.jpg"
"2","m2","2","Outdoor activity & sport item","Outdoor activity & sport item","1","0.636363636363636","0.636363636363636","0.714285714285714","1.566","25","7","2","19","0","beforeCP","1","fishingrod.jpg"
"2","m5","3","Kitchen & utensil","Hand labour tool & accessory","0","0.583333333333333","0.583333333333333","0.4","1.151","26","5","2","20","0","beforeCP","1","axe01.jpg"
"2","m2","3","Outdoor activity & sport item","Outdoor activity & sport item","1","0.615384615384615","0.615384615384615","0.75","1.044","27","8","2","21","0","beforeCP","1","treadmill.jpg"
"2","m5","1","Electronic device & accessory","Hand labour tool & accessory","0","0.571428571428571","0.571428571428571","0.333333333333333","2.163","28","6","2","22","0","beforeCP","1","metalbrush.jpg"
"2","m2","4","Outdoor activity & sport item","Outdoor activity & sport item","1","0.6","0.6","0.777777777777778","1.725","29","9","2","23","0","beforeCP","1","charcoalbarbecue.jpg"
"2","m5","3","Hand labour tool & accessory","Hand labour tool & accessory","1","0.625","0.625","0.428571428571429","2.81","30","7","2","24","0","beforeCP","1","caulking.jpg"
"2","m5","3","Electronic device & accessory","Hand labour tool & accessory","0","0.588235294117647","0.588235294117647","0.375","1.639","31","8","2","26","1","beforeCP","1","drill01b.jpg"
"2","m5","2","Hand labour tool & accessory","Hand labour tool & accessory","1","0.611111111111111","0.611111111111111","0.444444444444444","1.067","32","9","2","27","1","beforeCP","1","hedgeshears.jpg"
"2","m2","4","Outdoor activity & sport item","Outdoor activity & sport item","1","0.631578947368421","0.631578947368421","0.8","0.893","33","10","2","28","1","beforeCP","1","surfboard.jpg"
"2","m2","3","Outdoor activity & sport item","Outdoor activity & sport item","1","0.65","0.65","0.818181818181818","1.391","34","11","2","29","1","beforeCP","1","catchermask.jpg"
"2","m2","2","Outdoor activity & sport item","Outdoor activity & sport item","1","0.666666666666667","0.666666666666667","0.833333333333333","1.156","35","12","2","30","1","beforeCP","1","soccerball.jpg"
"2","m5","4","Hand labour tool & accessory","Hand labour tool & accessory","1","0.681818181818182","0.681818181818182","0.5","1.527","36","10","2","31","1","beforeCP","1","setsquare.jpg"
"2","m5","1","Hand labour tool & accessory","Hand labour tool & accessory","1","0.695652173913043","0.695652173913043","0.545454545454545","1.407","37","11","2","32","1","beforeCP","1","boltcutter.jpg"
"2","m5","2","Hand labour tool & accessory","Hand labour tool & accessory","1","0.708333333333333","0.708333333333333","0.583333333333333","0.849","38","12","2","34","1","beforeCP","1","hammer01.jpg"
"2","m5","2","Hand labour tool & accessory","Hand labour tool & accessory","1","0.72","0.72","0.615384615384615","1.35","39","13","2","35","1","beforeCP","1","aircompressor.jpg"
"2","m2","1","Outdoor activity & sport item","Outdoor activity & sport item","1","0.730769230769231","0.730769230769231","0.846153846153846","1.119","40","13","2","37","1","beforeCP","1","canoepaddle02.jpg"
"2","m2","2","Outdoor activity & sport item","Outdoor activity & sport item","1","0.740740740740741","0.740740740740741","0.857142857142857","1.584","41","14","2","38","1","beforeCP","1","backpack01a.jpg"
"2","m2","1","Outdoor activity & sport item","Outdoor activity & sport item","1","0.75","0.75","0.866666666666667","1.172","42","15","2","39","1","beforeCP","1","hockeypuck.jpg"
"2","m2","2","Outdoor activity & sport item","Outdoor activity & sport item","1","0.758620689655172","0.758620689655172","0.875","1.208","43","16","2","40","1","beforeCP","1","baseballglove.jpg"
"2","m5","4","Hand labour tool & accessory","Hand labour tool & accessory","1","0.766666666666667","0.766666666666667","0.642857142857143","1.271","44","14","2","41","1","beforeCP","1","snowblower.jpg"
"2","m5","2","Hand labour tool & accessory","Hand labour tool & accessory","1","0.774193548387097","0.774193548387097","0.666666666666667","1.439","45","15","2","43","1","beforeCP","1","rope03.jpg"
"2","m2","3","Outdoor activity & sport item","Outdoor activity & sport item","1","0.78125","0.78125","0.882352941176471","1.014","46","17","2","44","1","beforeCP","1","toyhockeystick01.jpg"
"2","m5","4","Hand labour tool & accessory","Hand labour tool & accessory","1","0.787878787878788","0.787878787878788","0.6875","2.026","47","16","2","45","1","beforeCP","1","saw02b.jpg"
"2","m5","2","Hand labour tool & accessory","Hand labour tool & accessory","1","0.794117647058823","0.794117647058823","0.705882352941176","1.212","48","17","2","46","1","beforeCP","1","flooringstapler.jpg"
"2","m2","4","Outdoor activity & sport item","Outdoor activity & sport item","1","0.8","0.8","0.888888888888889","0.944","49","18","2","47","1","beforeCP","1","swimgoggles.jpg"
"2","m5","1","Hand labour tool & accessory","Hand labour tool & accessory","1","0.805555555555555","0.805555555555555","0.722222222222222","1.08","50","18","2","48","1","beforeCP","1","wheel01.jpg"
"2","m5","2","Hand labour tool & accessory","Kitchen & utensil","0","0.783783783783784","0","0","1.572","51","1","3","1","0","afterCP","1","corkscrew03a.jpg"
"2","m5","2","Kitchen & utensil","Kitchen & utensil","1","0.789473684210526","0.5","0.5","1.412","52","2","3","2","0","afterCP","1","towel01.jpg"
"2","m5","2","Outdoor activity & sport item","Kitchen & utensil","0","0.769230769230769","0.333333333333333","0.333333333333333","1.131","53","3","3","4","0","afterCP","1","cork02.jpg"
"2","m2","3","Outdoor activity & sport item","Electronic device & accessory","0","0.75","0.25","0","0.831","54","1","3","5","0","afterCP","1","usbkey.jpg"
"2","m5","2","Kitchen & utensil","Kitchen & utensil","1","0.75609756097561","0.4","0.5","1.57","55","4","3","6","0","afterCP","1","tupperware03a.jpg"
"2","m2","4","Outdoor activity & sport item","Electronic device & accessory","0","0.738095238095238","0.333333333333333","0","2.228","56","2","3","7","0","afterCP","1","cellphone.jpg"
"2","m5","3","Kitchen & utensil","Kitchen & utensil","1","0.744186046511628","0.428571428571429","0.6","0.848","57","5","3","8","0","afterCP","1","butterknife.jpg"
"2","m5","3","Kitchen & utensil","Kitchen & utensil","1","0.75","0.5","0.666666666666667","0.842","58","6","3","10","0","afterCP","1","travelmug.jpg"
"2","m2","1","Outdoor activity & sport item","Electronic device & accessory","0","0.733333333333333","0.444444444444444","0","1.845","59","3","3","12","0","afterCP","1","filmnegative.jpg"
"2","m2","4","Electronic device & accessory","Electronic device & accessory","1","0.739130434782609","0.5","0.25","1.987","60","4","3","13","0","afterCP","1","securitycamera.jpg"
"2","m2","4","Electronic device & accessory","Electronic device & accessory","1","0.74468085106383","0.545454545454545","0.4","0.88","61","5","3","15","0","afterCP","1","nintendods.jpg"
"2","m2","4","Electronic device & accessory","Electronic device & accessory","1","0.75","0.583333333333333","0.5","0.875","62","6","3","16","0","beforeCP","1","dvdplayer.jpg"
"2","m2","3","Hand labour tool & accessory","Electronic device & accessory","0","0.73469387755102","0.538461538461539","0.428571428571429","2.495","63","7","3","18","0","afterCP","1","expansioncard.jpg"
"2","m5","4","Kitchen & utensil","Kitchen & utensil","1","0.74","0.571428571428571","0.714285714285714","1.333","64","7","3","19","0","beforeCP","1","funnel.jpg"
"2","m2","4","Electronic device & accessory","Electronic device & accessory","1","0.745098039215686","0.6","0.5","1.909","65","8","3","20","0","beforeCP","1","photocopier.jpg"
"2","m2","1","Electronic device & accessory","Electronic device & accessory","1","0.75","0.625","0.555555555555556","1.365","66","9","3","21","0","beforeCP","1","electricoutlet.jpg"
"2","m5","2","Kitchen & utensil","Kitchen & utensil","1","0.754716981132075","0.647058823529412","0.75","1.079","67","8","3","22","0","beforeCP","1","cookiecutter.jpg"
"2","m5","4","Kitchen & utensil","Kitchen & utensil","1","0.759259259259259","0.666666666666667","0.777777777777778","1.461","68","9","3","23","0","beforeCP","1","saladspinner.jpg"
"2","m2","1","Electronic device & accessory","Electronic device & accessory","1","0.763636363636364","0.684210526315789","0.6","1.466","69","10","3","24","0","beforeCP","1","extensioncord.jpg"
"2","m5","4","Kitchen & utensil","Kitchen & utensil","1","0.767857142857143","0.7","0.8","1.313","70","10","3","25","1","beforeCP","1","bowl02a.jpg"
"2","m2","2","Electronic device & accessory","Electronic device & accessory","1","0.771929824561403","0.714285714285714","0.636363636363636","0.911","71","11","3","27","1","beforeCP","1","fluorescentlightbulb.jpg"
"2","m2","4","Electronic device & accessory","Electronic device & accessory","1","0.775862068965517","0.727272727272727","0.666666666666667","1.243","72","12","3","28","1","beforeCP","1","gps.jpg"
"2","m5","2","Outdoor activity & sport item","Kitchen & utensil","0","0.76271186440678","0.695652173913043","0.727272727272727","1.233","73","11","3","31","1","beforeCP","1","handmixer01d.jpg"
"2","m2","1","Electronic device & accessory","Electronic device & accessory","1","0.766666666666667","0.708333333333333","0.692307692307692","2.88","74","13","3","32","1","beforeCP","1","ipod.jpg"
"2","m5","2","Electronic device & accessory","Kitchen & utensil","0","0.754098360655738","0.68","0.666666666666667","1.239","75","12","3","34","1","beforeCP","1","toothpick02.jpg"
"2","m5","4","Hand labour tool & accessory","Kitchen & utensil","0","0.741935483870968","0.653846153846154","0.615384615384615","0.843","76","13","3","35","1","beforeCP","1","gasburner.jpg"
"2","m2","1","Electronic device & accessory","Electronic device & accessory","1","0.746031746031746","0.666666666666667","0.714285714285714","1.36","77","14","3","36","1","beforeCP","1","desktopcomputer.jpg"
"2","m5","2","Kitchen & utensil","Kitchen & utensil","1","0.75","0.678571428571428","0.642857142857143","1.21","78","14","3","37","1","beforeCP","1","thermos.jpg"
"2","m5","3","Kitchen & utensil","Kitchen & utensil","1","0.753846153846154","0.689655172413793","0.666666666666667","1.172","79","15","3","38","1","beforeCP","1","breadknife.jpg"
"2","m5","4","Kitchen & utensil","Kitchen & utensil","1","0.757575757575758","0.7","0.6875","1.578","80","16","3","39","1","beforeCP","1","hourglass.jpg"
"2","m5","2","Kitchen & utensil","Kitchen & utensil","1","0.761194029850746","0.709677419354839","0.705882352941176","1.208","81","17","3","40","1","beforeCP","1","tray.jpg"
"2","m2","3","Electronic device & accessory","Electronic device & accessory","1","0.764705882352941","0.71875","0.733333333333333","1.566","82","15","3","42","1","beforeCP","1","fanblades.jpg"
"2","m2","4","Electronic device & accessory","Electronic device & accessory","1","0.768115942028985","0.727272727272727","0.75","1.223","83","16","3","43","1","beforeCP","1","djmixer02.jpg"
"2","m2","1","Electronic device & accessory","Electronic device & accessory","1","0.771428571428571","0.735294117647059","0.764705882352941","1.403","84","17","3","44","1","beforeCP","1","satellitedish01.jpg"
"2","m5","2","Kitchen & utensil","Kitchen & utensil","1","0.774647887323944","0.742857142857143","0.722222222222222","1.212","85","18","3","45","1","beforeCP","1","cookingpot.jpg"
"2","m2","3","Electronic device & accessory","Electronic device & accessory","1","0.777777777777778","0.75","0.777777777777778","1.341","86","18","3","48","1","beforeCP","1","lamp04a.jpg"
"2","m2","2","Electronic device & accessory","Kitchen & utensil","0","0.767123287671233","0","0","1.088","87","1","4","2","0","afterCP","1","pitcher02b.jpg"
"2","m2","2","Electronic device & accessory","Kitchen & utensil","0","0.756756756756757","0","0","1.043","88","2","4","3","0","afterCP","1","oven.jpg"
"2","m2","3","Electronic device & accessory","Kitchen & utensil","0","0.746666666666667","0","0","1.072","89","3","4","4","0","afterCP","1","pot01.jpg"
"2","m2","3","Electronic device & accessory","Kitchen & utensil","0","0.736842105263158","0","0","1.406","90","4","4","5","0","afterCP","1","muffintray01.jpg"
"2","m5","1","Kitchen & utensil","Hand labour tool & accessory","0","0.727272727272727","0","0","1.315","91","1","4","6","0","afterCP","1","wateringcan.jpg"
"2","m5","4","Kitchen & utensil","Hand labour tool & accessory","0","0.717948717948718","0","0","1.581","92","2","4","7","0","afterCP","1","paintroller01.jpg"
"2","m2","2","Electronic device & accessory","Kitchen & utensil","0","0.708860759493671","0","0","3.533","93","5","4","9","0","afterCP","1","measuringcup01.jpg"
"2","m2","1","Electronic device & accessory","Kitchen & utensil","0","0.7","0","0","1.394","94","6","4","11","0","afterCP","1","espressomachine.jpg"
"2","m5","3","Kitchen & utensil","Hand labour tool & accessory","0","0.691358024691358","0","0","0.961","95","3","4","12","0","afterCP","1","bungeecord02.jpg"
"2","m5","3","Outdoor activity & sport item","Hand labour tool & accessory","0","0.682926829268293","0","0","1.212","96","4","4","13","0","afterCP","1","weedwacker.jpg"
"2","m5","2","Electronic device & accessory","Hand labour tool & accessory","0","0.674698795180723","0","0","1.907","97","5","4","14","0","afterCP","1","jigsaw.jpg"
"2","m5","3","Outdoor activity & sport item","Hand labour tool & accessory","0","0.666666666666667","0","0","1.216","98","6","4","17","0","afterCP","1","chainsaw.jpg"
"2","m2","1","Electronic device & accessory","Kitchen & utensil","0","0.658823529411765","0","0","1.664","99","7","4","19","0","afterCP","1","spicerack.jpg"
"2","m5","2","Outdoor activity & sport item","Hand labour tool & accessory","0","0.651162790697674","0","0","1.324","100","7","4","20","0","afterCP","1","mallet01b.jpg"
"2","m5","3","Hand labour tool & accessory","Hand labour tool & accessory","1","0.655172413793103","0.0666666666666667","0.125","1.08","101","8","4","21","0","afterCP","1","bucket02.jpg"
"2","m5","1","Hand labour tool & accessory","Hand labour tool & accessory","1","0.659090909090909","0.125","0.222222222222222","1.343","102","9","4","22","0","afterCP","1","sledgehammer.jpg"
"2","m5","3","Hand labour tool & accessory","Hand labour tool & accessory","1","0.662921348314607","0.176470588235294","0.3","1.612","103","10","4","23","0","afterCP","1","stubbywrench01a.jpg"
"2","m2","4","Electronic device & accessory","Kitchen & utensil","0","0.655555555555556","0.166666666666667","0","1.112","104","8","4","24","0","afterCP","1","shotglass.jpg"
"2","m5","1","Hand labour tool & accessory","Hand labour tool & accessory","1","0.659340659340659","0.210526315789474","0.363636363636364","1.232","105","11","4","25","1","afterCP","1","pipewrench.jpg"
"2","m2","3","Kitchen & utensil","Kitchen & utensil","1","0.66304347826087","0.25","0.111111111111111","1.679","106","9","4","28","1","afterCP","1","cleaver01.jpg"
"2","m5","2","Hand labour tool & accessory","Hand labour tool & accessory","1","0.666666666666667","0.285714285714286","0.416666666666667","0.945","107","12","4","29","1","afterCP","1","pressurewasher.jpg"
"2","m2","2","Outdoor activity & sport item","Kitchen & utensil","0","0.659574468085106","0.272727272727273","0.1","1.268","108","10","4","31","1","afterCP","1","cowbell.jpg"
"2","m2","3","Outdoor activity & sport item","Kitchen & utensil","0","0.652631578947368","0.260869565217391","0.0909090909090909","1.196","109","11","4","32","1","afterCP","1","waterbottle03.jpg"
"2","m5","3","Hand labour tool & accessory","Hand labour tool & accessory","1","0.65625","0.291666666666667","0.461538461538462","2.054","110","13","4","33","1","afterCP","1","jumpercables.jpg"
"2","m5","3","Electronic device & accessory","Hand labour tool & accessory","0","0.649484536082474","0.28","0.428571428571429","1.192","111","14","4","34","1","afterCP","1","pliers02b.jpg"
"2","m2","1","Kitchen & utensil","Kitchen & utensil","1","0.653061224489796","0.307692307692308","0.166666666666667","1.857","112","12","4","35","1","afterCP","1","canister.jpg"
"2","m2","3","Kitchen & utensil","Kitchen & utensil","1","0.656565656565657","0.333333333333333","0.230769230769231","1.179","113","13","4","36","1","afterCP","1","contactlens.jpg"
"2","m2","3","Kitchen & utensil","Kitchen & utensil","1","0.66","0.357142857142857","0.285714285714286","0.78","114","14","4","37","1","afterCP","1","woodenspoon.jpg"
"2","m2","4","Kitchen & utensil","Kitchen & utensil","1","0.663366336633663","0.379310344827586","0.333333333333333","1.467","115","15","4","38","1","afterCP","1","spoon01.jpg"
"2","m5","3","Electronic device & accessory","Hand labour tool & accessory","0","0.656862745098039","0.366666666666667","0.4","1.309","116","15","4","39","1","afterCP","1","ladder.jpg"
"2","m5","2","Outdoor activity & sport item","Hand labour tool & accessory","0","0.650485436893204","0.354838709677419","0.375","1.284","117","16","4","40","1","afterCP","1","wheelbarrow01.jpg"
"2","m2","1","Kitchen & utensil","Kitchen & utensil","1","0.653846153846154","0.375","0.375","1.39","118","16","4","41","1","afterCP","1","pastaspoon.jpg"
"2","m2","3","Kitchen & utensil","Kitchen & utensil","1","0.657142857142857","0.393939393939394","0.411764705882353","0.98","119","17","4","43","1","afterCP","1","martiniglass01b.jpg"
"2","m5","2","Hand labour tool & accessory","Hand labour tool & accessory","1","0.660377358490566","0.411764705882353","0.411764705882353","0.907","120","17","4","45","1","afterCP","1","hoe.jpg"
"2","m5","4","Hand labour tool & accessory","Hand labour tool & accessory","1","0.663551401869159","0.428571428571429","0.444444444444444","1.771","121","18","4","46","1","afterCP","1","gardenshears01a.jpg"
"2","m2","4","Hand labour tool & accessory","Kitchen & utensil","0","0.657407407407407","0.416666666666667","0.388888888888889","0.985","122","18","4","47","1","afterCP","1","rollingpin01a.jpg"
"2","m2","1","Kitchen & utensil","Outdoor activity & sport item","0","0.651376146788991","0","0","0.995","123","1","5","1","0","afterCP","1","reflector.jpg"
"2","m2","1","Electronic device & accessory","Outdoor activity & sport item","0","0.645454545454545","0","0","1.525","124","2","5","3","0","afterCP","1","shinpad.jpg"
"2","m2","2","Outdoor activity & sport item","Outdoor activity & sport item","1","0.648648648648649","0.333333333333333","0.333333333333333","1.005","125","3","5","4","0","afterCP","1","iceskate.jpg"
"2","m5","4","Hand labour tool & accessory","Electronic device & accessory","0","0.642857142857143","0.25","0","0.938","126","1","5","5","0","afterCP","1","phonejack.jpg"
"2","m5","4","Electronic device & accessory","Electronic device & accessory","1","0.646017699115044","0.4","0.5","1.05","127","2","5","8","0","afterCP","1","fuse.jpg"
"2","m2","4","Outdoor activity & sport item","Outdoor activity & sport item","1","0.649122807017544","0.5","0.5","1.705","128","4","5","9","0","afterCP","1","poolnet.jpg"
"2","m2","3","Outdoor activity & sport item","Outdoor activity & sport item","1","0.652173913043478","0.571428571428571","0.6","1.61","129","5","5","10","0","beforeCP","1","hockeygoaliemask.jpg"
"2","m5","2","Electronic device & accessory","Electronic device & accessory","1","0.655172413793103","0.625","0.666666666666667","1.249","130","3","5","11","0","beforeCP","1","fan.jpg"
"2","m5","3","Electronic device & accessory","Electronic device & accessory","1","0.658119658119658","0.666666666666667","0.75","1.051","131","4","5","13","0","beforeCP","1","carantenna.jpg"
"2","m2","4","Outdoor activity & sport item","Outdoor activity & sport item","1","0.661016949152542","0.7","0.666666666666667","1.03","132","6","5","14","0","beforeCP","1","bikewheel.jpg"
"2","m5","1","Electronic device & accessory","Electronic device & accessory","1","0.663865546218487","0.727272727272727","0.8","1.177","133","5","5","15","0","beforeCP","1","lightbulb01.jpg"
"2","m2","4","Outdoor activity & sport item","Outdoor activity & sport item","1","0.666666666666667","0.75","0.714285714285714","0.828","134","7","5","16","0","beforeCP","1","bikepump01.jpg"
"2","m5","3","Electronic device & accessory","Electronic device & accessory","1","0.669421487603306","0.769230769230769","0.833333333333333","1.49","135","6","5","17","0","beforeCP","1","chandelier.jpg"
"2","m2","1","Outdoor activity & sport item","Outdoor activity & sport item","1","0.672131147540984","0.785714285714286","0.75","1.124","136","8","5","18","0","beforeCP","1","magneticcompass.jpg"
"2","m2","3","Outdoor activity & sport item","Outdoor activity & sport item","1","0.67479674796748","0.8","0.777777777777778","1.105","137","9","5","19","0","beforeCP","1","baseball01a.jpg"
"2","m2","2","Outdoor activity & sport item","Outdoor activity & sport item","1","0.67741935483871","0.8125","0.8","1.016","138","10","5","20","0","beforeCP","1","handgripper.jpg"
"2","m2","2","Outdoor activity & sport item","Outdoor activity & sport item","1","0.68","0.823529411764706","0.818181818181818","0.885","139","11","5","21","0","beforeCP","1","snowboard.jpg"
"2","m2","1","Outdoor activity & sport item","Outdoor activity & sport item","1","0.682539682539683","0.833333333333333","0.833333333333333","1.068","140","12","5","23","0","beforeCP","1","hockeygoalieglove.jpg"
"2","m5","1","Outdoor activity & sport item","Electronic device & accessory","0","0.677165354330709","0.789473684210526","0.714285714285714","1.243","141","7","5","26","1","beforeCP","1","telephone01b.jpg"
"2","m5","4","Electronic device & accessory","Electronic device & accessory","1","0.6796875","0.8","0.75","1.315","142","8","5","28","1","beforeCP","1","wire.jpg"
"2","m5","3","Outdoor activity & sport item","Electronic device & accessory","0","0.674418604651163","0.761904761904762","0.666666666666667","1.328","143","9","5","31","1","beforeCP","1","dvdcase01.jpg"
"2","m5","3","Outdoor activity & sport item","Electronic device & accessory","0","0.669230769230769","0.727272727272727","0.6","1.637","144","10","5","32","1","beforeCP","1","slidetray.jpg"
"2","m5","4","Hand labour tool & accessory","Electronic device & accessory","0","0.66412213740458","0.695652173913043","0.545454545454545","0.917","145","11","5","33","1","beforeCP","1","antenna.jpg"
"2","m5","4","Electronic device & accessory","Electronic device & accessory","1","0.666666666666667","0.708333333333333","0.583333333333333","1.625","146","12","5","34","1","beforeCP","1","crocodileclips.jpg"
"2","m5","3","Electronic device & accessory","Electronic device & accessory","1","0.669172932330827","0.72","0.615384615384615","1.331","147","13","5","35","1","beforeCP","1","atm.jpg"
"2","m2","3","Outdoor activity & sport item","Outdoor activity & sport item","1","0.671641791044776","0.730769230769231","0.846153846153846","1.494","148","13","5","36","1","beforeCP","1","boatmotor.jpg"
"2","m5","3","Electronic device & accessory","Electronic device & accessory","1","0.674074074074074","0.740740740740741","0.642857142857143","1.611","149","14","5","37","1","beforeCP","1","vhstape.jpg"
"2","m2","3","Outdoor activity & sport item","Outdoor activity & sport item","1","0.676470588235294","0.75","0.857142857142857","0.982","150","14","5","38","1","beforeCP","1","baseballbat.jpg"
"2","m5","3","Electronic device & accessory","Electronic device & accessory","1","0.678832116788321","0.758620689655172","0.666666666666667","1.067","151","15","5","39","1","beforeCP","1","lectern01.jpg"
"2","m2","2","Outdoor activity & sport item","Outdoor activity & sport item","1","0.681159420289855","0.766666666666667","0.866666666666667","1.21","152","15","5","40","1","beforeCP","1","skiboot01a.jpg"
"2","m2","1","Outdoor activity & sport item","Outdoor activity & sport item","1","0.683453237410072","0.774193548387097","0.875","2.491","153","16","5","41","1","beforeCP","1","skihelmet01.jpg"
"2","m2","2","Outdoor activity & sport item","Outdoor activity & sport item","1","0.685714285714286","0.78125","0.882352941176471","1.128","154","17","5","42","1","beforeCP","1","downhillski.jpg"
"2","m5","1","Electronic device & accessory","Electronic device & accessory","1","0.687943262411348","0.787878787878788","0.6875","2.758","155","16","5","43","1","beforeCP","1","computerkeyboard02.jpg"
"2","m2","4","Outdoor activity & sport item","Outdoor activity & sport item","1","0.690140845070423","0.794117647058823","0.888888888888889","1.445","156","18","5","44","1","beforeCP","1","cooler01.jpg"
"2","m5","1","Electronic device & accessory","Electronic device & accessory","1","0.692307692307692","0.8","0.705882352941176","1.079","157","17","5","45","1","beforeCP","1","alarmclock01.jpg"
"2","m5","4","Electronic device & accessory","Electronic device & accessory","1","0.694444444444444","0.805555555555555","0.722222222222222","1.088","158","18","5","46","1","beforeCP","1","headphones02b.jpg"
"3","m5","3","Kitchen & utensil","Hand labour tool & accessory","0","0","0","0","1.63043","1","1","0","1","0","afterCP","1","handrake01a.jpg"
"3","m5","1","Outdoor activity & sport item","Hand labour tool & accessory","0","0","0","0","1.10759","2","2","0","2","0","afterCP","1","jumpingjack.jpg"
"3","m2","3","Outdoor activity & sport item","Outdoor activity & sport item","1","0.333333333333333","0.333333333333333","1","1.35243","3","1","0","3","0","afterCP","1","racquetballracket.jpg"
"3","m2","4","Outdoor activity & sport item","Outdoor activity & sport item","1","0.5","0.5","1","1.150265","4","2","0","4","0","afterCP","1","racquetballracket.jpg"
"3","m2","1","Outdoor activity & sport item","Outdoor activity & sport item","1","0.6","0.6","1","0.93082","5","3","0","5","0","beforeCP","1","crosscountryski.jpg"
"3","m2","1","Outdoor activity & sport item","Outdoor activity & sport item","1","0.666666666666667","0.666666666666667","1","0.87912","6","4","0","6","0","beforeCP","1","crosscountryski.jpg"
"3","m5","3","Hand labour tool & accessory","Hand labour tool & accessory","1","0.714285714285714","0.714285714285714","0.333333333333333","0.646245","7","3","0","7","0","beforeCP","1","jumpingjack.jpg"
"3","m5","2","Hand labour tool & accessory","Hand labour tool & accessory","1","0.75","0.75","0.5","0.997365","8","4","0","8","1","beforeCP","1","pitchfork.jpg"
"3","m5","4","Hand labour tool & accessory","Hand labour tool & accessory","1","0.777777777777778","0.777777777777778","0.6","1.56555","9","5","0","9","1","beforeCP","1","gavel.jpg"
"3","m2","1","Outdoor activity & sport item","Outdoor activity & sport item","1","0.8","0.8","1","0.947965","10","5","0","10","1","beforeCP","1","bicycle.jpg"
"3","m2","2","Outdoor activity & sport item","Outdoor activity & sport item","1","0.818181818181818","0.818181818181818","1","0.792515","11","6","0","11","1","beforeCP","1","racquetballracket.jpg"
"3","m2","2","Outdoor activity & sport item","Outdoor activity & sport item","1","0.833333333333333","0.833333333333333","1","1.56288","12","7","0","12","1","beforeCP","1","rollerblade.jpg"
"3","m5","1","Hand labour tool & accessory","Hand labour tool & accessory","1","0.846153846153846","0.846153846153846","0.666666666666667","1.185385","13","6","0","13","1","beforeCP","1","hedgetrimmer.jpg"
"3","m5","3","Electronic device & accessory","Hand labour tool & accessory","0","0.785714285714286","0.785714285714286","0.571428571428571","1.325475","14","7","0","14","1","beforeCP","1","jumpingjack.jpg"
"3","m2","2","Outdoor activity & sport item","Outdoor activity & sport item","1","1","1","1","1.002085","15","1","2","2","0","beforeCP","1","skiboot01a.jpg"
"3","m5","4","Outdoor activity & sport item","Hand labour tool & accessory","0","0.5","0.5","0","1.71252","16","1","2","4","0","afterCP","1","sledgehammer.jpg"
"3","m2","4","Outdoor activity & sport item","Outdoor activity & sport item","1","0.666666666666667","0.666666666666667","1","0.999645","17","2","2","6","0","beforeCP","1","hockeygoalieglove.jpg"
"3","m2","1","Outdoor activity & sport item","Outdoor activity & sport item","1","0.75","0.75","1","1.521005","18","3","2","9","0","beforeCP","1","handgripper.jpg"
"3","m2","4","Outdoor activity & sport item","Outdoor activity & sport item","1","0.8","0.8","1","1.28235","19","4","2","10","0","beforeCP","1","treadmill.jpg"
"3","m2","2","Outdoor activity & sport item","Outdoor activity & sport item","1","0.833333333333333","0.833333333333333","1","0.8747","20","5","2","11","0","beforeCP","1","catchermask.jpg"
"3","m5","4","Kitchen & utensil","Hand labour tool & accessory","0","0.714285714285714","0.714285714285714","0","1.48646","21","2","2","12","0","beforeCP","1","axe01.jpg"
"3","m5","3","Outdoor activity & sport item","Hand labour tool & accessory","0","0.625","0.625","0","1.853785","22","3","2","13","0","beforeCP","1","pliers02b.jpg"
"3","m2","2","Outdoor activity & sport item","Outdoor activity & sport item","1","0.666666666666667","0.666666666666667","1","0.85487","23","6","2","14","0","beforeCP","1","badmintonracket.jpg"
"3","m5","3","Hand labour tool & accessory","Hand labour tool & accessory","1","0.7","0.7","0.25","1.063","24","4","2","17","0","beforeCP","1","leafrake.jpg"
"3","m2","3","Kitchen & utensil","Outdoor activity & sport item","0","0.636363636363636","0.636363636363636","0.857142857142857","0.83387","25","7","2","19","0","beforeCP","1","weight01.jpg"
"3","m5","3","Kitchen & utensil","Hand labour tool & accessory","0","0.583333333333333","0.583333333333333","0.2","1.913765","26","5","2","20","0","beforeCP","1","knifesharpener.jpg"
"3","m2","3","Outdoor activity & sport item","Outdoor activity & sport item","1","0.615384615384615","0.615384615384615","0.875","1.851735","27","8","2","21","0","beforeCP","1","hockeygoaliemask.jpg"
"3","m5","2","Kitchen & utensil","Hand labour tool & accessory","0","0.571428571428571","0.571428571428571","0.166666666666667","0.95228","28","6","2","22","0","beforeCP","1","staplegun.jpg"
"3","m2","4","Outdoor activity & sport item","Outdoor activity & sport item","1","0.6","0.6","0.888888888888889","1.175685","29","9","2","23","0","beforeCP","1","charcoalbarbecue.jpg"
"3","m5","3","Hand labour tool & accessory","Hand labour tool & accessory","1","0.625","0.625","0.285714285714286","1.012765","30","7","2","24","0","beforeCP","1","setsquare.jpg"
"3","m5","1","Hand labour tool & accessory","Hand labour tool & accessory","1","0.647058823529412","0.647058823529412","0.375","1.04062","31","8","2","26","1","beforeCP","1","gluetube.jpg"
"3","m5","2","Hand labour tool & accessory","Hand labour tool & accessory","1","0.666666666666667","0.666666666666667","0.444444444444444","0.81237","32","9","2","27","1","beforeCP","1","sewingmachine01a.jpg"
"3","m2","1","Kitchen & utensil","Outdoor activity & sport item","0","0.631578947368421","0.631578947368421","0.8","1.01206","33","10","2","28","1","beforeCP","1","exercisemachine.jpg"
"3","m2","3","Outdoor activity & sport item","Outdoor activity & sport item","1","0.65","0.65","0.818181818181818","0.76133","34","11","2","29","1","beforeCP","1","hockeypuck.jpg"
"3","m2","2","Outdoor activity & sport item","Outdoor activity & sport item","1","0.666666666666667","0.666666666666667","0.833333333333333","0.78755","35","12","2","30","1","beforeCP","1","cooler01.jpg"
"3","m5","4","Hand labour tool & accessory","Hand labour tool & accessory","1","0.681818181818182","0.681818181818182","0.5","1.39186","36","10","2","31","1","beforeCP","1","bungeecord02.jpg"
"3","m5","3","Outdoor activity & sport item","Hand labour tool & accessory","0","0.652173913043478","0.652173913043478","0.454545454545455","1.10431","37","11","2","32","1","beforeCP","1","pipewrench.jpg"
"3","m5","2","Hand labour tool & accessory","Hand labour tool & accessory","1","0.666666666666667","0.666666666666667","0.5","1.288345","38","12","2","34","1","beforeCP","1","tape02a.jpg"
"3","m5","2","Hand labour tool & accessory","Hand labour tool & accessory","1","0.68","0.68","0.538461538461539","0.58014","39","13","2","35","1","beforeCP","1","wheelbarrow01.jpg"
"3","m2","4","Hand labour tool & accessory","Outdoor activity & sport item","0","0.653846153846154","0.653846153846154","0.769230769230769","1.342915","40","13","2","37","1","beforeCP","1","volleyball.jpg"
"3","m2","2","Outdoor activity & sport item","Outdoor activity & sport item","1","0.666666666666667","0.666666666666667","0.785714285714286","0.77767","41","14","2","38","1","beforeCP","1","baseball01a.jpg"
"3","m2","1","Outdoor activity & sport item","Outdoor activity & sport item","1","0.678571428571428","0.678571428571428","0.8","0.812885","42","15","2","39","1","beforeCP","1","skihelmet01.jpg"
"3","m2","2","Outdoor activity & sport item","Outdoor activity & sport item","1","0.689655172413793","0.689655172413793","0.8125","0.83433","43","16","2","40","1","beforeCP","1","shinpad.jpg"
"3","m5","1","Outdoor activity & sport item","Hand labour tool & accessory","0","0.666666666666667","0.666666666666667","0.5","0.697385","44","14","2","41","1","beforeCP","1","chainsaw.jpg"
"3","m5","1","Outdoor activity & sport item","Hand labour tool & accessory","0","0.645161290322581","0.645161290322581","0.466666666666667","0.707075","45","15","2","43","1","beforeCP","1","toyhardhat.jpg"
"3","m2","3","Outdoor activity & sport item","Outdoor activity & sport item","1","0.65625","0.65625","0.823529411764706","1.126355","46","17","2","44","1","beforeCP","1","fishinghook03.jpg"
"3","m5","4","Hand labour tool & accessory","Hand labour tool & accessory","1","0.666666666666667","0.666666666666667","0.5","1.39351","47","16","2","45","1","beforeCP","1","level03a.jpg"
"3","m5","2","Hand labour tool & accessory","Hand labour tool & accessory","1","0.676470588235294","0.676470588235294","0.529411764705882","1.702335","48","17","2","46","1","beforeCP","1","hoe.jpg"
"3","m2","4","Outdoor activity & sport item","Outdoor activity & sport item","1","0.685714285714286","0.685714285714286","0.833333333333333","0.77373","49","18","2","47","1","beforeCP","1","kiddiepool.jpg"
"3","m5","1","Hand labour tool & accessory","Hand labour tool & accessory","1","0.694444444444444","0.694444444444444","0.555555555555556","1.129795","50","18","2","48","1","beforeCP","1","paintroller01.jpg"
"3","m5","2","Hand labour tool & accessory","Kitchen & utensil","0","0.675675675675676","0","0","0.91316","51","1","3","1","0","afterCP","1","pitcher02b.jpg"
"3","m5","2","Kitchen & utensil","Kitchen & utensil","1","0.684210526315789","0.5","0.5","1.12259","52","2","3","2","0","afterCP","1","coffeepot03a.jpg"
"3","m5","2","Outdoor activity & sport item","Kitchen & utensil","0","0.666666666666667","0.333333333333333","0.333333333333333","1.531115","53","3","3","4","0","afterCP","1","measuringcup01.jpg"
"3","m2","3","Outdoor activity & sport item","Electronic device & accessory","0","0.65","0.25","0","2.133165","54","1","3","5","0","afterCP","1","telephone01b.jpg"
"3","m5","2","Kitchen & utensil","Kitchen & utensil","1","0.658536585365854","0.4","0.5","0.54658","55","4","3","6","0","afterCP","1","peeler01.jpg"
"3","m2","1","Electronic device & accessory","Electronic device & accessory","1","0.666666666666667","0.5","0.5","0.925055","56","2","3","7","0","afterCP","1","atm.jpg"
"3","m5","3","Kitchen & utensil","Kitchen & utensil","1","0.674418604651163","0.571428571428571","0.6","0.76281","57","5","3","8","0","beforeCP","1","bottlecap.jpg"
"3","m5","3","Kitchen & utensil","Kitchen & utensil","1","0.681818181818182","0.625","0.666666666666667","1.698295","58","6","3","10","0","beforeCP","1","waterbottle03.jpg"
"3","m2","1","Outdoor activity & sport item","Electronic device & accessory","0","0.666666666666667","0.555555555555556","0.333333333333333","0.96705","59","3","3","12","0","beforeCP","1","lamp04a.jpg"
"3","m2","4","Electronic device & accessory","Electronic device & accessory","1","0.673913043478261","0.6","0.5","2.296315","60","4","3","13","0","beforeCP","1","usbkey.jpg"
"3","m2","4","Electronic device & accessory","Electronic device & accessory","1","0.680851063829787","0.636363636363636","0.6","0.689575","61","5","3","15","0","beforeCP","1","photocopier.jpg"
"3","m2","4","Electronic device & accessory","Electronic device & accessory","1","0.6875","0.666666666666667","0.666666666666667","0.880135","62","6","3","16","0","beforeCP","1","fluorescentlightbulb.jpg"
"3","m2","3","Hand labour tool & accessory","Electronic device & accessory","0","0.673469387755102","0.615384615384615","0.571428571428571","1.16707","63","7","3","18","0","beforeCP","1","djmixer02.jpg"
"3","m5","4","Kitchen & utensil","Kitchen & utensil","1","0.68","0.642857142857143","0.714285714285714","1.48478","64","7","3","19","0","beforeCP","1","spoon01.jpg"
"3","m2","4","Electronic device & accessory","Electronic device & accessory","1","0.686274509803922","0.666666666666667","0.625","1.83692","65","8","3","20","0","beforeCP","1","headphones02b.jpg"
"3","m2","4","Outdoor activity & sport item","Electronic device & accessory","0","0.673076923076923","0.625","0.555555555555556","2.024765","66","9","3","21","0","beforeCP","1","ethernetcable02.jpg"
"3","m5","2","Kitchen & utensil","Kitchen & utensil","1","0.679245283018868","0.647058823529412","0.75","0.877755","67","8","3","22","0","beforeCP","1","spatula04.jpg"
"3","m5","4","Kitchen & utensil","Kitchen & utensil","1","0.685185185185185","0.666666666666667","0.777777777777778","1.510805","68","9","3","23","0","beforeCP","1","corkscrew03a.jpg"
"3","m2","1","Electronic device & accessory","Electronic device & accessory","1","0.690909090909091","0.684210526315789","0.6","0.78926","69","10","3","24","0","beforeCP","1","phonejack.jpg"
"3","m5","4","Kitchen & utensil","Kitchen & utensil","1","0.696428571428571","0.7","0.8","0.493385","70","10","3","25","1","beforeCP","1","dishrack.jpg"
"3","m2","4","Kitchen & utensil","Electronic device & accessory","0","0.684210526315789","0.666666666666667","0.545454545454545","0.900395","71","11","3","27","1","beforeCP","1","fanblades.jpg"
"3","m2","4","Electronic device & accessory","Electronic device & accessory","1","0.689655172413793","0.681818181818182","0.583333333333333","1.25436","72","12","3","28","1","beforeCP","1","chandelier.jpg"
"3","m5","1","Electronic device & accessory","Kitchen & utensil","0","0.677966101694915","0.652173913043478","0.727272727272727","0.96294","73","11","3","31","1","beforeCP","1","tupperware03a.jpg"
"3","m2","1","Electronic device & accessory","Electronic device & accessory","1","0.683333333333333","0.666666666666667","0.615384615384615","1.067085","74","13","3","32","1","beforeCP","1","scanner.jpg"
"3","m5","1","Kitchen & utensil","Kitchen & utensil","1","0.688524590163934","0.68","0.75","0.704415","75","12","3","34","1","beforeCP","1","saladspinner.jpg"
"3","m5","2","Kitchen & utensil","Kitchen & utensil","1","0.693548387096774","0.692307692307692","0.769230769230769","0.66292","76","13","3","35","1","beforeCP","1","cleaver01.jpg"
"3","m2","1","Electronic device & accessory","Electronic device & accessory","1","0.698412698412698","0.703703703703704","0.642857142857143","1.00867","77","14","3","36","1","beforeCP","1","dvdcase01.jpg"
"3","m5","2","Kitchen & utensil","Kitchen & utensil","1","0.703125","0.714285714285714","0.785714285714286","0.635445","78","14","3","37","1","beforeCP","1","cork02.jpg"
"3","m5","4","Hand labour tool & accessory","Kitchen & utensil","0","0.692307692307692","0.689655172413793","0.733333333333333","1.167065","79","15","3","38","1","beforeCP","1","contactlens.jpg"
"3","m5","4","Kitchen & utensil","Kitchen & utensil","1","0.696969696969697","0.7","0.75","1.319205","80","16","3","39","1","beforeCP","1","martiniglass01b.jpg"
"3","m5","2","Kitchen & utensil","Kitchen & utensil","1","0.701492537313433","0.709677419354839","0.764705882352941","1.181","81","17","3","40","1","beforeCP","1","toothpick02.jpg"
"3","m2","3","Electronic device & accessory","Electronic device & accessory","1","0.705882352941176","0.71875","0.666666666666667","1.11298","82","15","3","42","1","beforeCP","1","videocamera01a.jpg"
"3","m2","4","Electronic device & accessory","Electronic device & accessory","1","0.710144927536232","0.727272727272727","0.6875","1.33731","83","16","3","43","1","beforeCP","1","computerkeyboard02.jpg"
"3","m2","1","Electronic device & accessory","Electronic device & accessory","1","0.714285714285714","0.735294117647059","0.705882352941176","1.19691","84","17","3","44","1","beforeCP","1","coffeemachine.jpg"
"3","m5","4","Outdoor activity & sport item","Kitchen & utensil","0","0.704225352112676","0.714285714285714","0.722222222222222","1.122625","85","18","3","45","1","beforeCP","1","thermos.jpg"
"3","m2","2","Outdoor activity & sport item","Electronic device & accessory","0","0.694444444444444","0.694444444444444","0.666666666666667","1.28573","86","18","3","48","1","beforeCP","1","fan.jpg"
"3","m2","1","Outdoor activity & sport item","Kitchen & utensil","0","0.684931506849315","0","0","1.325165","87","1","4","2","0","afterCP","1","spicerack.jpg"
"3","m2","4","Kitchen & utensil","Kitchen & utensil","1","0.689189189189189","0.5","0.5","1.002485","88","2","4","3","0","afterCP","1","towel01.jpg"
"3","m2","2","Kitchen & utensil","Kitchen & utensil","1","0.693333333333333","0.666666666666667","0.666666666666667","0.77463","89","3","4","4","0","beforeCP","1","shotglass.jpg"
"3","m2","1","Kitchen & utensil","Kitchen & utensil","1","0.697368421052632","0.75","0.75","0.8515","90","4","4","5","0","beforeCP","1","servingspoon01.jpg"
"3","m5","4","Electronic device & accessory","Hand labour tool & accessory","0","0.688311688311688","0.6","0","1.38383","91","1","4","6","0","beforeCP","1","boltcutter.jpg"
"3","m5","2","Hand labour tool & accessory","Hand labour tool & accessory","1","0.692307692307692","0.666666666666667","0.5","0.78031","92","2","4","7","0","beforeCP","1","aircompressor.jpg"
"3","m2","3","Kitchen & utensil","Kitchen & utensil","1","0.69620253164557","0.714285714285714","0.8","1.47571","93","5","4","9","0","beforeCP","1","aluminiumfoil.jpg"
"3","m2","1","Electronic device & accessory","Kitchen & utensil","0","0.6875","0.625","0.666666666666667","0.84167","94","6","4","11","0","beforeCP","1","butterknife.jpg"
"3","m5","2","Electronic device & accessory","Hand labour tool & accessory","0","0.679012345679012","0.555555555555556","0.333333333333333","0.596145","95","3","4","12","0","beforeCP","1","gardenshears01a.jpg"
"3","m5","3","Outdoor activity & sport item","Hand labour tool & accessory","0","0.670731707317073","0.5","0.25","0.518695","96","4","4","13","0","afterCP","1","metalbrush.jpg"
"3","m5","3","Hand labour tool & accessory","Hand labour tool & accessory","1","0.674698795180723","0.545454545454545","0.4","1.084125","97","5","4","14","0","afterCP","1","puttyknife.jpg"
"3","m5","3","Outdoor activity & sport item","Hand labour tool & accessory","0","0.666666666666667","0.5","0.333333333333333","0.53622","98","6","4","17","0","afterCP","1","lawnmower.jpg"
"3","m2","2","Hand labour tool & accessory","Kitchen & utensil","0","0.658823529411765","0.461538461538462","0.571428571428571","1.30006","99","7","4","19","0","afterCP","1","watercooler.jpg"
"3","m5","2","Outdoor activity & sport item","Hand labour tool & accessory","0","0.651162790697674","0.428571428571429","0.285714285714286","1.18205","100","7","4","20","0","afterCP","1","painttray.jpg"
"3","m5","1","Kitchen & utensil","Hand labour tool & accessory","0","0.64367816091954","0.4","0.25","0.7527","101","8","4","21","0","afterCP","1","gastank.jpg"
"3","m5","3","Kitchen & utensil","Hand labour tool & accessory","0","0.636363636363636","0.375","0.222222222222222","1.179985","102","9","4","22","0","afterCP","1","wateringcan.jpg"
"3","m5","2","Outdoor activity & sport item","Hand labour tool & accessory","0","0.629213483146067","0.352941176470588","0.2","1.016765","103","10","4","23","0","afterCP","1","ladder.jpg"
"3","m2","3","Hand labour tool & accessory","Kitchen & utensil","0","0.622222222222222","0.333333333333333","0.5","1.45198","104","8","4","24","0","afterCP","1","cowbell.jpg"
"3","m5","2","Outdoor activity & sport item","Hand labour tool & accessory","0","0.615384615384615","0.315789473684211","0.181818181818182","0.637375","105","11","4","25","1","afterCP","1","squeegee01b.jpg"
"3","m2","1","Outdoor activity & sport item","Kitchen & utensil","0","0.608695652173913","0.3","0.444444444444444","0.87372","106","9","4","28","1","afterCP","1","rollingpin01a.jpg"
"3","m5","4","Kitchen & utensil","Hand labour tool & accessory","0","0.602150537634409","0.285714285714286","0.166666666666667","1.522815","107","12","4","29","1","afterCP","1","stubbywrench01a.jpg"
"3","m2","2","Outdoor activity & sport item","Kitchen & utensil","0","0.595744680851064","0.272727272727273","0.4","1.0107","108","10","4","31","1","afterCP","1","gasburner.jpg"
"3","m2","2","Kitchen & utensil","Kitchen & utensil","1","0.6","0.304347826086957","0.454545454545455","1.263095","109","11","4","32","1","afterCP","1","canister.jpg"
"3","m5","3","Hand labour tool & accessory","Hand labour tool & accessory","1","0.604166666666667","0.333333333333333","0.230769230769231","1.249005","110","13","4","33","1","afterCP","1","flooringstapler.jpg"
"3","m5","2","Hand labour tool & accessory","Hand labour tool & accessory","1","0.608247422680412","0.36","0.285714285714286","0.615315","111","14","4","34","1","afterCP","1","caulking.jpg"
"3","m2","1","Kitchen & utensil","Kitchen & utensil","1","0.612244897959184","0.384615384615385","0.5","0.94803","112","12","4","35","1","afterCP","1","oven.jpg"
"3","m2","3","Kitchen & utensil","Kitchen & utensil","1","0.616161616161616","0.407407407407407","0.538461538461539","1.26617","113","13","4","36","1","afterCP","1","bowl02a.jpg"
"3","m2","3","Kitchen & utensil","Kitchen & utensil","1","0.62","0.428571428571429","0.571428571428571","0.94099","114","14","4","37","1","afterCP","1","breadknife.jpg"
"3","m2","4","Kitchen & utensil","Kitchen & utensil","1","0.623762376237624","0.448275862068966","0.6","0.92868","115","15","4","38","1","afterCP","1","hourglass.jpg"
"3","m5","1","Hand labour tool & accessory","Hand labour tool & accessory","1","0.627450980392157","0.466666666666667","0.333333333333333","0.90364","116","15","4","39","1","afterCP","1","mallet01b.jpg"
"3","m5","1","Hand labour tool & accessory","Hand labour tool & accessory","1","0.631067961165048","0.483870967741935","0.375","0.662385","117","16","4","40","1","afterCP","1","pressurewasher.jpg"
"3","m2","1","Kitchen & utensil","Kitchen & utensil","1","0.634615384615385","0.5","0.625","1.41862","118","16","4","41","1","afterCP","1","potatomasher03b.jpg"
"3","m2","3","Kitchen & utensil","Kitchen & utensil","1","0.638095238095238","0.515151515151515","0.647058823529412","1.380335","119","17","4","43","1","afterCP","1","pot01.jpg"
"3","m5","2","Hand labour tool & accessory","Hand labour tool & accessory","1","0.641509433962264","0.529411764705882","0.411764705882353","0.81116","120","17","4","45","1","afterCP","1","bucket02.jpg"
"3","m5","3","Outdoor activity & sport item","Hand labour tool & accessory","0","0.635514018691589","0.514285714285714","0.388888888888889","1.149695","121","18","4","46","1","afterCP","1","snowblower.jpg"
"3","m2","1","Outdoor activity & sport item","Kitchen & utensil","0","0.62962962962963","0.5","0.611111111111111","2.10527","122","18","4","47","1","afterCP","1","travelmug.jpg"
"3","m2","3","Electronic device & accessory","Outdoor activity & sport item","0","0.623853211009174","0","0","0.876585","123","1","5","1","0","afterCP","1","bikewheel.jpg"
"3","m2","1","Electronic device & accessory","Outdoor activity & sport item","0","0.618181818181818","0","0","0.900055","124","2","5","3","0","afterCP","1","patioumbrella.jpg"
"3","m2","2","Outdoor activity & sport item","Outdoor activity & sport item","1","0.621621621621622","0.333333333333333","0.333333333333333","0.75402","125","3","5","4","0","afterCP","1","exercisebike.jpg"
"3","m5","4","Hand labour tool & accessory","Electronic device & accessory","0","0.616071428571428","0.25","0","1.414475","126","1","5","5","0","afterCP","1","crocodileclips.jpg"
"3","m5","4","Electronic device & accessory","Electronic device & accessory","1","0.619469026548673","0.4","0.5","0.848265","127","2","5","8","0","afterCP","1","ipad02.jpg"
"3","m2","3","Hand labour tool & accessory","Outdoor activity & sport item","0","0.614035087719298","0.333333333333333","0.25","0.54692","128","4","5","9","0","afterCP","1","snowboard.jpg"
"3","m2","4","Hand labour tool & accessory","Outdoor activity & sport item","0","0.608695652173913","0.285714285714286","0.2","2.62976","129","5","5","10","0","afterCP","1","boatmotor.jpg"
"3","m5","1","Outdoor activity & sport item","Electronic device & accessory","0","0.603448275862069","0.25","0.333333333333333","1.01384","130","3","5","11","0","afterCP","1","desktopcomputer.jpg"
"3","m5","3","Electronic device & accessory","Electronic device & accessory","1","0.606837606837607","0.333333333333333","0.5","1.00463","131","4","5","13","0","afterCP","1","electricoutlet.jpg"
"3","m2","1","Kitchen & utensil","Outdoor activity & sport item","0","0.601694915254237","0.3","0.166666666666667","0.771105","132","6","5","14","0","afterCP","1","soccerball.jpg"
"3","m5","1","Electronic device & accessory","Electronic device & accessory","1","0.605042016806723","0.363636363636364","0.6","2.49224","133","5","5","15","0","afterCP","1","carantenna.jpg"
"3","m2","4","Outdoor activity & sport item","Outdoor activity & sport item","1","0.608333333333333","0.416666666666667","0.285714285714286","0.863625","134","7","5","16","0","afterCP","1","reflector.jpg"
"3","m5","4","Outdoor activity & sport item","Electronic device & accessory","0","0.603305785123967","0.384615384615385","0.5","0.880875","135","6","5","17","0","afterCP","1","slidetray.jpg"
"3","m2","1","Outdoor activity & sport item","Outdoor activity & sport item","1","0.60655737704918","0.428571428571429","0.375","1.51401","136","8","5","18","0","afterCP","1","iceskate.jpg"
"3","m2","3","Outdoor activity & sport item","Outdoor activity & sport item","1","0.609756097560976","0.466666666666667","0.444444444444444","0.945195","137","9","5","19","0","afterCP","1","toyhockeystick01.jpg"
"3","m2","4","Kitchen & utensil","Outdoor activity & sport item","0","0.604838709677419","0.4375","0.4","1.337835","138","10","5","20","0","afterCP","1","swimgoggles.jpg"
"3","m2","2","Outdoor activity & sport item","Outdoor activity & sport item","1","0.608","0.470588235294118","0.454545454545455","0.90055","139","11","5","21","0","afterCP","1","surfboard.jpg"
"3","m2","1","Outdoor activity & sport item","Outdoor activity & sport item","1","0.611111111111111","0.5","0.5","1.291435","140","12","5","23","0","afterCP","1","propanetank01.jpg"
"3","m5","1","Outdoor activity & sport item","Electronic device & accessory","0","0.606299212598425","0.473684210526316","0.428571428571429","0.88072","141","7","5","26","1","afterCP","1","outletadapter.jpg"
"3","m5","4","Electronic device & accessory","Electronic device & accessory","1","0.609375","0.5","0.5","1.11208","142","8","5","28","1","afterCP","1","dvdplayer.jpg"
"3","m5","3","Outdoor activity & sport item","Electronic device & accessory","0","0.604651162790698","0.476190476190476","0.444444444444444","0.83332","143","9","5","31","1","afterCP","1","filmnegative.jpg"
"3","m5","4","Electronic device & accessory","Electronic device & accessory","1","0.607692307692308","0.5","0.5","1.037695","144","10","5","32","1","afterCP","1","wire.jpg"
"3","m5","3","Electronic device & accessory","Electronic device & accessory","1","0.610687022900763","0.521739130434783","0.545454545454545","0.898495","145","11","5","33","1","afterCP","1","gps.jpg"
"3","m5","4","Electronic device & accessory","Electronic device & accessory","1","0.613636363636364","0.541666666666667","0.583333333333333","0.651545","146","12","5","34","1","afterCP","1","satellitedish01.jpg"
"3","m5","3","Electronic device & accessory","Electronic device & accessory","1","0.616541353383459","0.56","0.615384615384615","1.150915","147","13","5","35","1","beforeCP","1","extensioncord.jpg"
"3","m2","1","Kitchen & utensil","Outdoor activity & sport item","0","0.611940298507463","0.538461538461539","0.461538461538462","0.768145","148","13","5","36","1","afterCP","1","bikehelmet.jpg"
"3","m5","3","Electronic device & accessory","Electronic device & accessory","1","0.614814814814815","0.555555555555556","0.642857142857143","1.61326","149","14","5","37","1","beforeCP","1","airconditioner.jpg"
"3","m2","3","Outdoor activity & sport item","Outdoor activity & sport item","1","0.617647058823529","0.571428571428571","0.5","1.107355","150","14","5","38","1","beforeCP","1","anchor.jpg"
"3","m5","3","Electronic device & accessory","Electronic device & accessory","1","0.62043795620438","0.586206896551724","0.666666666666667","0.70062","151","15","5","39","1","beforeCP","1","lectern01.jpg"
"3","m2","2","Outdoor activity & sport item","Outdoor activity & sport item","1","0.623188405797101","0.6","0.533333333333333","1.63722","152","15","5","40","1","beforeCP","1","fishingrod.jpg"
"3","m2","1","Outdoor activity & sport item","Outdoor activity & sport item","1","0.62589928057554","0.612903225806452","0.5625","0.97462","153","16","5","41","1","beforeCP","1","sportbag.jpg"
"3","m2","2","Outdoor activity & sport item","Outdoor activity & sport item","1","0.628571428571429","0.625","0.588235294117647","0.57984","154","17","5","42","1","beforeCP","1","baseballglove.jpg"
"3","m5","1","Electronic device & accessory","Electronic device & accessory","1","0.631205673758865","0.636363636363636","0.6875","1.502845","155","16","5","43","1","beforeCP","1","expansioncard.jpg"
"3","m2","4","Outdoor activity & sport item","Outdoor activity & sport item","1","0.633802816901408","0.647058823529412","0.611111111111111","1.18197","156","18","5","44","1","beforeCP","1","bikelock.jpg"
"3","m5","1","Electronic device & accessory","Electronic device & accessory","1","0.636363636363636","0.657142857142857","0.705882352941176","0.689655","157","17","5","45","1","beforeCP","1","securitycamera.jpg"
"3","m5","4","Electronic device & accessory","Electronic device & accessory","1","0.638888888888889","0.666666666666667","0.722222222222222","1.446445","158","18","5","46","1","beforeCP","1","papershredder.jpg"
"4","m5","1","Outdoor activity & sport item","Hand labour tool & accessory","0","0","0","0","1.33752","1","1","0","1","0","afterCP","1","handrake01a.jpg"
"4","m5","4","Hand labour tool & accessory","Hand labour tool & accessory","1","0.5","0.5","0.5","1.421515","2","2","0","2","0","afterCP","1","jumpingjack.jpg"
"4","m2","3","Outdoor activity & sport item","Outdoor activity & sport item","1","0.666666666666667","0.666666666666667","1","0.88596","3","1","0","3","0","beforeCP","1","racquetballracket.jpg"
"4","m2","4","Outdoor activity & sport item","Outdoor activity & sport item","1","0.75","0.75","1","1.048445","4","2","0","4","0","beforeCP","1","racquetballracket.jpg"
"4","m2","1","Outdoor activity & sport item","Outdoor activity & sport item","1","0.8","0.8","1","0.61113","5","3","0","5","0","beforeCP","1","crosscountryski.jpg"
"4","m2","1","Outdoor activity & sport item","Outdoor activity & sport item","1","0.833333333333333","0.833333333333333","1","0.540645","6","4","0","6","0","beforeCP","1","crosscountryski.jpg"
"4","m5","3","Hand labour tool & accessory","Hand labour tool & accessory","1","0.857142857142857","0.857142857142857","0.666666666666667","1.263935","7","3","0","7","0","beforeCP","1","jumpingjack.jpg"
"4","m5","2","Hand labour tool & accessory","Hand labour tool & accessory","1","0.875","0.875","0.75","0.78154","8","4","0","8","1","beforeCP","1","pitchfork.jpg"
"4","m5","4","Hand labour tool & accessory","Hand labour tool & accessory","1","0.888888888888889","0.888888888888889","0.8","1.06199","9","5","0","9","1","beforeCP","1","gavel.jpg"
"4","m2","1","Outdoor activity & sport item","Outdoor activity & sport item","1","0.9","0.9","1","0.58957","10","5","0","10","1","beforeCP","1","bicycle.jpg"
"4","m2","2","Outdoor activity & sport item","Outdoor activity & sport item","1","0.909090909090909","0.909090909090909","1","1.03061","11","6","0","11","1","beforeCP","1","racquetballracket.jpg"
"4","m2","2","Outdoor activity & sport item","Outdoor activity & sport item","1","0.916666666666667","0.916666666666667","1","0.772665","12","7","0","12","1","beforeCP","1","rollerblade.jpg"
"4","m5","1","Hand labour tool & accessory","Hand labour tool & accessory","1","0.923076923076923","0.923076923076923","0.833333333333333","0.647785","13","6","0","13","1","beforeCP","1","hedgetrimmer.jpg"
"4","m5","1","Hand labour tool & accessory","Hand labour tool & accessory","1","0.928571428571428","0.928571428571428","0.857142857142857","0.818145","14","7","0","14","1","beforeCP","1","jumpingjack.jpg"
"4","m2","1","Kitchen & utensil","Outdoor activity & sport item","0","0","0","0","0.6688","15","1","2","2","0","afterCP","1","ellipticalmachine.jpg"
"4","m5","2","Hand labour tool & accessory","Hand labour tool & accessory","1","0.5","0.5","1","0.50499","16","1","2","4","0","afterCP","1","rope03.jpg"
"4","m2","2","Electronic device & accessory","Outdoor activity & sport item","0","0.333333333333333","0.333333333333333","0","0.788275","17","2","2","6","0","afterCP","1","sportbag.jpg"
"4","m2","1","Outdoor activity & sport item","Outdoor activity & sport item","1","0.5","0.5","0.333333333333333","1.16198","18","3","2","9","0","afterCP","1","toyhockeystick01.jpg"
"4","m2","4","Outdoor activity & sport item","Outdoor activity & sport item","1","0.6","0.6","0.5","1.09289","19","4","2","10","0","beforeCP","1","fishinghook03.jpg"
"4","m2","2","Outdoor activity & sport item","Outdoor activity & sport item","1","0.666666666666667","0.666666666666667","0.6","0.71017","20","5","2","11","0","beforeCP","1","volleyball.jpg"
"4","m5","1","Electronic device & accessory","Hand labour tool & accessory","0","0.571428571428571","0.571428571428571","0.5","0.737","21","2","2","12","0","beforeCP","1","gluetube.jpg"
"4","m5","4","Electronic device & accessory","Hand labour tool & accessory","0","0.5","0.5","0.333333333333333","1.15938","22","3","2","13","0","afterCP","1","toyhardhat.jpg"
"4","m2","2","Outdoor activity & sport item","Outdoor activity & sport item","1","0.555555555555556","0.555555555555556","0.666666666666667","0.42521","23","6","2","14","0","beforeCP","1","cooler01.jpg"
"4","m5","3","Hand labour tool & accessory","Hand labour tool & accessory","1","0.6","0.6","0.5","0.90211","24","4","2","17","0","beforeCP","1","saw02b.jpg"
"4","m2","2","Outdoor activity & sport item","Outdoor activity & sport item","1","0.636363636363636","0.636363636363636","0.714285714285714","0.765545","25","7","2","19","0","beforeCP","1","canoepaddle02.jpg"
"4","m5","1","Hand labour tool & accessory","Hand labour tool & accessory","1","0.666666666666667","0.666666666666667","0.6","0.72221","26","5","2","20","0","beforeCP","1","snowshovel.jpg"
"4","m2","3","Outdoor activity & sport item","Outdoor activity & sport item","1","0.692307692307692","0.692307692307692","0.75","0.86593","27","8","2","21","0","beforeCP","1","surfboard.jpg"
"4","m5","3","Outdoor activity & sport item","Hand labour tool & accessory","0","0.642857142857143","0.642857142857143","0.5","1.94954","28","6","2","22","0","beforeCP","1","chainsaw.jpg"
"4","m2","4","Outdoor activity & sport item","Outdoor activity & sport item","1","0.666666666666667","0.666666666666667","0.777777777777778","0.549295","29","9","2","23","0","beforeCP","1","bikelock.jpg"
"4","m5","3","Hand labour tool & accessory","Hand labour tool & accessory","1","0.6875","0.6875","0.571428571428571","0.56509","30","7","2","24","0","beforeCP","1","lawnmower.jpg"
"4","m5","1","Hand labour tool & accessory","Hand labour tool & accessory","1","0.705882352941176","0.705882352941176","0.625","2.50725","31","8","2","26","1","beforeCP","1","adjustablewrench01b.jpg"
"4","m5","2","Hand labour tool & accessory","Hand labour tool & accessory","1","0.722222222222222","0.722222222222222","0.666666666666667","0.86563","32","9","2","27","1","beforeCP","1","boltcutter.jpg"
"4","m2","4","Outdoor activity & sport item","Outdoor activity & sport item","1","0.736842105263158","0.736842105263158","0.8","0.71674","33","10","2","28","1","beforeCP","1","fishingrod.jpg"
"4","m2","3","Outdoor activity & sport item","Outdoor activity & sport item","1","0.75","0.75","0.818181818181818","0.875725","34","11","2","29","1","beforeCP","1","swimgoggles.jpg"
"4","m2","2","Outdoor activity & sport item","Outdoor activity & sport item","1","0.761904761904762","0.761904761904762","0.833333333333333","0.628855","35","12","2","30","1","beforeCP","1","outdoorheater.jpg"
"4","m5","4","Hand labour tool & accessory","Hand labour tool & accessory","1","0.772727272727273","0.772727272727273","0.7","1.57562","36","10","2","31","1","beforeCP","1","aircompressor.jpg"
"4","m5","3","Outdoor activity & sport item","Hand labour tool & accessory","0","0.739130434782609","0.739130434782609","0.636363636363636","0.68313","37","11","2","32","1","beforeCP","1","flooringstapler.jpg"
"4","m5","2","Hand labour tool & accessory","Hand labour tool & accessory","1","0.75","0.75","0.666666666666667","1.079315","38","12","2","34","1","beforeCP","1","sledgehammer.jpg"
"4","m5","2","Hand labour tool & accessory","Hand labour tool & accessory","1","0.76","0.76","0.692307692307692","0.542045","39","13","2","35","1","beforeCP","1","mallet01b.jpg"
"4","m2","1","Outdoor activity & sport item","Outdoor activity & sport item","1","0.769230769230769","0.769230769230769","0.846153846153846","0.79362","40","13","2","37","1","beforeCP","1","badmintonracket.jpg"
"4","m2","2","Outdoor activity & sport item","Outdoor activity & sport item","1","0.777777777777778","0.777777777777778","0.857142857142857","0.496315","41","14","2","38","1","beforeCP","1","propanetank01.jpg"
"4","m2","1","Outdoor activity & sport item","Outdoor activity & sport item","1","0.785714285714286","0.785714285714286","0.866666666666667","0.809205","42","15","2","39","1","beforeCP","1","exercisebike.jpg"
"4","m2","2","Outdoor activity & sport item","Outdoor activity & sport item","1","0.793103448275862","0.793103448275862","0.875","0.67547","43","16","2","40","1","beforeCP","1","weight01.jpg"
"4","m5","4","Hand labour tool & accessory","Hand labour tool & accessory","1","0.8","0.8","0.714285714285714","0.70326","44","14","2","41","1","beforeCP","1","puttyknife.jpg"
"4","m5","2","Hand labour tool & accessory","Hand labour tool & accessory","1","0.806451612903226","0.806451612903226","0.733333333333333","0.53297","45","15","2","43","1","beforeCP","1","bungeecord02.jpg"
"4","m2","3","Outdoor activity & sport item","Outdoor activity & sport item","1","0.8125","0.8125","0.882352941176471","1.41856","46","17","2","44","1","beforeCP","1","patioumbrella.jpg"
"4","m5","4","Hand labour tool & accessory","Hand labour tool & accessory","1","0.818181818181818","0.818181818181818","0.75","1.12866","47","16","2","45","1","beforeCP","1","wateringcan.jpg"
"4","m5","2","Hand labour tool & accessory","Hand labour tool & accessory","1","0.823529411764706","0.823529411764706","0.764705882352941","1.741555","48","17","2","46","1","beforeCP","1","bucket02.jpg"
"4","m2","4","Outdoor activity & sport item","Outdoor activity & sport item","1","0.828571428571429","0.828571428571429","0.888888888888889","1.55319","49","18","2","47","1","beforeCP","1","soccerball.jpg"
"4","m5","1","Hand labour tool & accessory","Hand labour tool & accessory","1","0.833333333333333","0.833333333333333","0.777777777777778","1.266995","50","18","2","48","1","beforeCP","1","wheel01.jpg"
"4","m5","2","Hand labour tool & accessory","Kitchen & utensil","0","0.810810810810811","0","0","2.292055","51","1","3","1","0","afterCP","1","measuringcup01.jpg"
"4","m5","4","Hand labour tool & accessory","Kitchen & utensil","0","0.789473684210526","0","0","1.523125","52","2","3","2","0","afterCP","1","watercooler.jpg"
"4","m5","3","Hand labour tool & accessory","Kitchen & utensil","0","0.769230769230769","0","0","0.98658","53","3","3","4","0","afterCP","1","cowbell.jpg"
"4","m2","3","Outdoor activity & sport item","Electronic device & accessory","0","0.75","0","0","0.81731","54","1","3","5","0","afterCP","1","videocamera01a.jpg"
"4","m5","1","Hand labour tool & accessory","Kitchen & utensil","0","0.731707317073171","0","0","0.747935","55","4","3","6","0","afterCP","1","shotglass.jpg"
"4","m2","4","Outdoor activity & sport item","Electronic device & accessory","0","0.714285714285714","0","0","0.92764","56","2","3","7","0","afterCP","1","atm.jpg"
"4","m5","2","Hand labour tool & accessory","Kitchen & utensil","0","0.697674418604651","0","0","1.506985","57","5","3","8","0","afterCP","1","handmixer01d.jpg"
"4","m5","3","Kitchen & utensil","Kitchen & utensil","1","0.704545454545455","0.125","0.166666666666667","0.896715","58","6","3","10","0","afterCP","1","coffeepot03a.jpg"
"4","m2","1","Outdoor activity & sport item","Electronic device & accessory","0","0.688888888888889","0.111111111111111","0","1.122465","59","3","3","12","0","afterCP","1","fan.jpg"
"4","m2","4","Electronic device & accessory","Electronic device & accessory","1","0.695652173913043","0.2","0.25","0.839655","60","4","3","13","0","afterCP","1","extensioncord.jpg"
"4","m2","4","Electronic device & accessory","Electronic device & accessory","1","0.702127659574468","0.272727272727273","0.4","1.31939","61","5","3","15","0","afterCP","1","headphones02b.jpg"
"4","m2","4","Electronic device & accessory","Electronic device & accessory","1","0.708333333333333","0.333333333333333","0.5","0.97623","62","6","3","16","0","afterCP","1","coffeemachine.jpg"
"4","m2","2","Electronic device & accessory","Electronic device & accessory","1","0.714285714285714","0.384615384615385","0.571428571428571","1.43674","63","7","3","18","0","afterCP","1","airconditioner.jpg"
"4","m5","4","Kitchen & utensil","Kitchen & utensil","1","0.72","0.428571428571429","0.285714285714286","1.136545","64","7","3","19","0","afterCP","1","waterbottle03.jpg"
"4","m2","4","Electronic device & accessory","Electronic device & accessory","1","0.725490196078431","0.466666666666667","0.625","1.362715","65","8","3","20","0","afterCP","1","lightbulb01.jpg"
"4","m2","1","Electronic device & accessory","Electronic device & accessory","1","0.730769230769231","0.5","0.666666666666667","1.257735","66","9","3","21","0","afterCP","1","phonejack.jpg"
"4","m5","2","Kitchen & utensil","Kitchen & utensil","1","0.735849056603774","0.529411764705882","0.375","1.10115","67","8","3","22","0","afterCP","1","bottlecap.jpg"
"4","m5","4","Kitchen & utensil","Kitchen & utensil","1","0.740740740740741","0.555555555555556","0.444444444444444","2.166415","68","9","3","23","0","beforeCP","1","contactlens.jpg"
