"","SubNum","character","response","respCat","corrCat","accuracy","cumAcc","cumAccBlock","cumAccbyChar","RT","trialNum","trialNbychar","listN","NfromChange","befAft","iCP","trialCond","image","recogAcc","confidence","association","RTrecog","corr_ans_assoc"
"15",1,"m2",2,"Outdoor activity & sport item","Outdoor activity & sport item",1,1,1,1,0.518,15,1,2,2,0,"beforeCP",1,"swimgoggles.jpg",1,4,NA,0.817,NA
"16",1,"m5",2,"Hand labour tool & accessory","Hand labour tool & accessory",1,1,1,1,0.913,16,1,2,4,0,"beforeCP",1,"adjustablewrench01b.jpg",NA,NA,NA,0.817,NA
"17",1,"m2",1,"Hand labour tool & accessory","Outdoor activity & sport item",0,0.666666666666667,0.666666666666667,0.5,1.119,17,2,2,6,0,"beforeCP",1,"patioumbrella.jpg",1,4,NA,0.897,NA
"18",1,"m2",1,"Outdoor activity & sport item","Outdoor activity & sport item",1,0.75,0.75,0.666666666666667,0.738,18,3,2,9,0,"beforeCP",1,"baseball01a.jpg",1,3,"left",0.828,1
"19",1,"m2",4,"Outdoor activity & sport item","Outdoor activity & sport item",1,0.8,0.8,0.75,0.978,19,4,2,10,0,"beforeCP",1,"bikehelmet.jpg",1,2,"left",1.065,1
"20",1,"m2",2,"Outdoor activity & sport item","Outdoor activity & sport item",1,0.833333333333333,0.833333333333333,0.8,0.954,20,5,2,11,0,"beforeCP",1,"canoepaddle02.jpg",1,4,"left",0.819,1
"21",1,"m5",1,"Electronic device & accessory","Hand labour tool & accessory",0,0.714285714285714,0.714285714285714,0.5,0.583,21,2,2,12,0,"beforeCP",1,"leafrake.jpg",NA,NA,NA,0.817,NA
"22",1,"m5",2,"Hand labour tool & accessory","Hand labour tool & accessory",1,0.75,0.75,0.666666666666667,1.262,22,3,2,13,0,"beforeCP",1,"lawnmower.jpg",NA,NA,NA,0.817,NA
"23",1,"m2",2,"Outdoor activity & sport item","Outdoor activity & sport item",1,0.777777777777778,0.777777777777778,0.833333333333333,1.416,23,6,2,14,0,"beforeCP",1,"reflector.jpg",1,4,NA,0.859,NA
"24",1,"m5",3,"Hand labour tool & accessory","Hand labour tool & accessory",1,0.8,0.8,0.75,1.069,24,4,2,17,0,"beforeCP",1,"pliers02b.jpg",1,2,NA,0.813,NA
"25",1,"m2",3,"Kitchen & utensil","Outdoor activity & sport item",0,0.727272727272727,0.727272727272727,0.714285714285714,1.099,25,7,2,19,0,"beforeCP",1,"boatmotor.jpg",1,3,NA,1.612,NA
"26",1,"m5",1,"Hand labour tool & accessory","Hand labour tool & accessory",1,0.75,0.75,0.8,0.653,26,5,2,20,0,"beforeCP",1,"drillbit03a.jpg",NA,NA,NA,0.817,NA
"27",1,"m2",3,"Outdoor activity & sport item","Outdoor activity & sport item",1,0.769230769230769,0.769230769230769,0.75,0.596,27,8,2,21,0,"beforeCP",1,"lifesaver.jpg",NA,NA,NA,0.817,NA
"28",1,"m5",1,"Electronic device & accessory","Hand labour tool & accessory",0,0.714285714285714,0.714285714285714,0.666666666666667,0.56,28,6,2,22,0,"beforeCP",1,"tape02a.jpg",NA,NA,NA,0.817,NA
"29",1,"m2",2,"Kitchen & utensil","Outdoor activity & sport item",0,0.666666666666667,0.666666666666667,0.666666666666667,0.838,29,9,2,23,0,"beforeCP",1,"ellipticalmachine.jpg",NA,NA,NA,0.817,NA
"30",1,"m5",3,"Hand labour tool & accessory","Hand labour tool & accessory",1,0.6875,0.6875,0.714285714285714,0.606,30,7,2,24,0,"beforeCP",1,"wheelbarrow01.jpg",1,3,"right",0.964,1
"31",1,"m5",1,"Hand labour tool & accessory","Hand labour tool & accessory",1,0.705882352941176,0.705882352941176,0.75,0.552,31,8,2,26,1,"beforeCP",1,"boltcutter.jpg",1,3,"left",0.911,0
"32",1,"m5",2,"Hand labour tool & accessory","Hand labour tool & accessory",1,0.722222222222222,0.722222222222222,0.777777777777778,0.651,32,9,2,27,1,"beforeCP",1,"gluetube.jpg",NA,NA,NA,0.817,NA
"33",1,"m2",3,"Electronic device & accessory","Outdoor activity & sport item",0,0.684210526315789,0.684210526315789,0.6,0.758,33,10,2,28,1,"beforeCP",1,"volleyball.jpg",1,1,NA,2.104,NA
"34",1,"m2",3,"Outdoor activity & sport item","Outdoor activity & sport item",1,0.7,0.7,0.636363636363636,1.592,34,11,2,29,1,"beforeCP",1,"sportbag.jpg",NA,NA,NA,0.817,NA
"35",1,"m2",2,"Outdoor activity & sport item","Outdoor activity & sport item",1,0.714285714285714,0.714285714285714,0.666666666666667,0.601,35,12,2,30,1,"beforeCP",1,"hockeygoaliemask.jpg",0,2,NA,0.972,NA
"36",1,"m5",4,"Hand labour tool & accessory","Hand labour tool & accessory",1,0.727272727272727,0.727272727272727,0.8,0.832,36,10,2,31,1,"beforeCP",1,"pressurewasher.jpg",1,2,"left",1.196,0
"37",1,"m5",1,"Hand labour tool & accessory","Hand labour tool & accessory",1,0.739130434782609,0.739130434782609,0.818181818181818,0.78,37,11,2,32,1,"beforeCP",1,"saw02b.jpg",1,2,NA,0.829,NA
"38",1,"m5",2,"Hand labour tool & accessory","Hand labour tool & accessory",1,0.75,0.75,0.833333333333333,0.641,38,12,2,34,1,"beforeCP",1,"wheel01.jpg",1,3,NA,1.695,NA
"39",1,"m5",2,"Hand labour tool & accessory","Hand labour tool & accessory",1,0.76,0.76,0.846153846153846,0.675,39,13,2,35,1,"beforeCP",1,"puttyknife.jpg",NA,NA,NA,0.817,NA
"40",1,"m2",4,"Hand labour tool & accessory","Outdoor activity & sport item",0,0.730769230769231,0.730769230769231,0.615384615384615,1.569,40,13,2,37,1,"beforeCP",1,"exercisebike.jpg",NA,NA,NA,0.817,NA
"41",1,"m2",2,"Outdoor activity & sport item","Outdoor activity & sport item",1,0.740740740740741,0.740740740740741,0.642857142857143,0.824,41,14,2,38,1,"beforeCP",1,"bikelock.jpg",NA,NA,NA,0.817,NA
"42",1,"m2",1,"Outdoor activity & sport item","Outdoor activity & sport item",1,0.75,0.75,0.666666666666667,1.024,42,15,2,39,1,"beforeCP",1,"bikepump01.jpg",1,2,"left",0.808,1
"43",1,"m2",2,"Outdoor activity & sport item","Outdoor activity & sport item",1,0.758620689655172,0.758620689655172,0.6875,1.359,43,16,2,40,1,"beforeCP",1,"propanetank01.jpg",NA,NA,NA,0.817,NA
"44",1,"m5",4,"Hand labour tool & accessory","Hand labour tool & accessory",1,0.766666666666667,0.766666666666667,0.857142857142857,0.994,44,14,2,41,1,"beforeCP",1,"metalbrush.jpg",1,3,NA,2.454,NA
"45",1,"m5",2,"Hand labour tool & accessory","Hand labour tool & accessory",1,0.774193548387097,0.774193548387097,0.866666666666667,0.702,45,15,2,43,1,"beforeCP",1,"weedwacker.jpg",1,3,"left",1.988,0
"46",1,"m2",3,"Outdoor activity & sport item","Outdoor activity & sport item",1,0.78125,0.78125,0.705882352941176,0.744,46,17,2,44,1,"beforeCP",1,"toyhockeystick01.jpg",1,2,NA,1.12,NA
"47",1,"m5",4,"Hand labour tool & accessory","Hand labour tool & accessory",1,0.787878787878788,0.787878787878788,0.875,1.11,47,16,2,45,1,"beforeCP",1,"hedgeshears.jpg",1,2,NA,0.711,NA
"48",1,"m5",2,"Hand labour tool & accessory","Hand labour tool & accessory",1,0.794117647058823,0.794117647058823,0.882352941176471,0.664,48,17,2,46,1,"beforeCP",1,"caulking.jpg",1,3,NA,0.907,NA
"49",1,"m2",4,"Outdoor activity & sport item","Outdoor activity & sport item",1,0.8,0.8,0.722222222222222,0.848,49,18,2,47,1,"beforeCP",1,"soccerball.jpg",1,3,NA,0.765,NA
"50",1,"m5",1,"Hand labour tool & accessory","Hand labour tool & accessory",1,0.805555555555555,0.805555555555555,0.888888888888889,0.76,50,18,2,48,1,"beforeCP",1,"axe01.jpg",1,3,"left",0.704,0
"51",1,"m5",3,"Electronic device & accessory","Kitchen & utensil",0,0.783783783783784,0,0,0.768,51,1,3,1,0,"afterCP",1,"toothpick02.jpg",1,4,NA,1.045,NA
"52",1,"m5",2,"Kitchen & utensil","Kitchen & utensil",1,0.789473684210526,0.5,0.5,0.835,52,2,3,2,0,"afterCP",1,"woodenspoon.jpg",1,4,"left",1.287,0
"53",1,"m5",2,"Outdoor activity & sport item","Kitchen & utensil",0,0.769230769230769,0.333333333333333,0.333333333333333,0.896,53,3,3,4,0,"afterCP",1,"gravyboat.jpg",NA,NA,NA,0.817,NA
"54",1,"m2",3,"Outdoor activity & sport item","Electronic device & accessory",0,0.75,0.25,0,0.975,54,1,3,5,0,"afterCP",1,"videocamera01a.jpg",NA,NA,NA,0.817,NA
"55",1,"m5",2,"Kitchen & utensil","Kitchen & utensil",1,0.75609756097561,0.4,0.5,0.707,55,4,3,6,0,"afterCP",1,"coffeepot03a.jpg",NA,NA,NA,0.817,NA
"56",1,"m2",1,"Electronic device & accessory","Electronic device & accessory",1,0.761904761904762,0.5,0.5,0.913,56,2,3,7,0,"afterCP",1,"filmnegative.jpg",1,4,NA,0.756,NA
"57",1,"m5",3,"Kitchen & utensil","Kitchen & utensil",1,0.767441860465116,0.571428571428571,0.6,0.902,57,5,3,8,0,"beforeCP",1,"dishrack.jpg",NA,NA,NA,0.817,NA
"58",1,"m5",3,"Kitchen & utensil","Kitchen & utensil",1,0.772727272727273,0.625,0.666666666666667,0.761,58,6,3,10,0,"beforeCP",1,"spatula04.jpg",NA,NA,NA,0.817,NA
"59",1,"m2",1,"Outdoor activity & sport item","Electronic device & accessory",0,0.755555555555556,0.555555555555556,0.333333333333333,1.483,59,3,3,12,0,"beforeCP",1,"usbcable01a.jpg",NA,NA,NA,0.817,NA
"60",1,"m2",4,"Electronic device & accessory","Electronic device & accessory",1,0.760869565217391,0.6,0.5,1.151,60,4,3,13,0,"beforeCP",1,"antenna.jpg",1,2,"left",1.245,1
"61",1,"m2",4,"Electronic device & accessory","Electronic device & accessory",1,0.765957446808511,0.636363636363636,0.6,0.906,61,5,3,15,0,"beforeCP",1,"ipad02.jpg",NA,NA,NA,0.817,NA
"62",1,"m2",4,"Electronic device & accessory","Electronic device & accessory",1,0.770833333333333,0.666666666666667,0.666666666666667,1.269,62,6,3,16,0,"beforeCP",1,"fanblades.jpg",1,3,"right",1.222,0
"63",1,"m2",2,"Electronic device & accessory","Electronic device & accessory",1,0.775510204081633,0.692307692307692,0.714285714285714,0.915,63,7,3,18,0,"beforeCP",1,"payphone.jpg",NA,NA,NA,0.817,NA
"64",1,"m5",4,"Kitchen & utensil","Kitchen & utensil",1,0.78,0.714285714285714,0.714285714285714,1.088,64,7,3,19,0,"beforeCP",1,"martiniglass01b.jpg",1,3,"left",1.325,0
"65",1,"m2",2,"Outdoor activity & sport item","Electronic device & accessory",0,0.764705882352941,0.666666666666667,0.625,0.895,65,8,3,20,0,"beforeCP",1,"satellitedish01.jpg",0,2,"left",1.194,1
"66",1,"m2",1,"Electronic device & accessory","Electronic device & accessory",1,0.769230769230769,0.6875,0.666666666666667,0.547,66,9,3,21,0,"beforeCP",1,"electricoutlet.jpg",1,3,"left",0.76,1
"67",1,"m5",2,"Kitchen & utensil","Kitchen & utensil",1,0.773584905660377,0.705882352941176,0.75,0.93,67,8,3,22,0,"beforeCP",1,"handmixer01d.jpg",1,1,"left",1.403,0
"68",1,"m5",4,"Kitchen & utensil","Kitchen & utensil",1,0.777777777777778,0.722222222222222,0.777777777777778,1.471,68,9,3,23,0,"beforeCP",1,"pitcher02b.jpg",1,3,NA,1.359,NA
"69",1,"m2",1,"Electronic device & accessory","Electronic device & accessory",1,0.781818181818182,0.736842105263158,0.7,0.77,69,10,3,24,0,"beforeCP",1,"nintendods.jpg",1,4,"left",1.104,1
"70",1,"m5",4,"Kitchen & utensil","Kitchen & utensil",1,0.785714285714286,0.75,0.8,0.963,70,10,3,25,1,"beforeCP",1,"shotglass.jpg",1,4,"left",1.543,0
"71",1,"m2",4,"Kitchen & utensil","Electronic device & accessory",0,0.771929824561403,0.714285714285714,0.636363636363636,0.987,71,11,3,27,1,"beforeCP",1,"cellphone.jpg",1,2,"right",2.122,0
"72",1,"m2",4,"Electronic device & accessory","Electronic device & accessory",1,0.775862068965517,0.727272727272727,0.666666666666667,1.37,72,12,3,28,1,"beforeCP",1,"vhstape.jpg",1,2,"right",1.035,0
"73",1,"m5",1,"Electronic device & accessory","Kitchen & utensil",0,0.76271186440678,0.695652173913043,0.727272727272727,0.787,73,11,3,31,1,"beforeCP",1,"butterknife.jpg",0,3,NA,1.066,NA
"74",1,"m2",3,"Outdoor activity & sport item","Electronic device & accessory",0,0.75,0.666666666666667,0.615384615384615,1.196,74,13,3,32,1,"beforeCP",1,"gps.jpg",1,3,"left",2.263,1
"75",1,"m5",2,"Electronic device & accessory","Kitchen & utensil",0,0.737704918032787,0.64,0.666666666666667,0.719,75,12,3,34,1,"beforeCP",1,"waterbottle03.jpg",1,3,"left",0.978,0
"76",1,"m5",2,"Kitchen & utensil","Kitchen & utensil",1,0.741935483870968,0.653846153846154,0.692307692307692,0.543,76,13,3,35,1,"beforeCP",1,"peeler01.jpg",NA,NA,NA,0.817,NA
"77",1,"m2",1,"Electronic device & accessory","Electronic device & accessory",1,0.746031746031746,0.666666666666667,0.642857142857143,0.413,77,14,3,36,1,"beforeCP",1,"dvdplayer.jpg",1,3,"right",1.071,0
"78",1,"m5",2,"Kitchen & utensil","Kitchen & utensil",1,0.75,0.678571428571428,0.714285714285714,0.674,78,14,3,37,1,"beforeCP",1,"tupperware03a.jpg",0,2,NA,0.916,NA
"79",1,"m5",3,"Kitchen & utensil","Kitchen & utensil",1,0.753846153846154,0.689655172413793,0.733333333333333,0.933,79,15,3,38,1,"beforeCP",1,"espressomachine.jpg",1,4,"right",1.113,1
"80",1,"m5",2,"Electronic device & accessory","Kitchen & utensil",0,0.742424242424242,0.666666666666667,0.6875,0.712,80,16,3,39,1,"beforeCP",1,"bowl02a.jpg",1,3,"right",1.086,1
"81",1,"m5",2,"Kitchen & utensil","Kitchen & utensil",1,0.746268656716418,0.67741935483871,0.705882352941176,1.118,81,17,3,40,1,"beforeCP",1,"towel01.jpg",1,4,NA,0.833,NA
"82",1,"m2",3,"Electronic device & accessory","Electronic device & accessory",1,0.75,0.6875,0.666666666666667,0.842,82,15,3,42,1,"beforeCP",1,"lightbulb01.jpg",0,2,"left",3.645,1
"83",1,"m2",4,"Electronic device & accessory","Electronic device & accessory",1,0.753623188405797,0.696969696969697,0.6875,0.904,83,16,3,43,1,"beforeCP",1,"outletadapter.jpg",NA,NA,NA,0.817,NA
"84",1,"m2",1,"Electronic device & accessory","Electronic device & accessory",1,0.757142857142857,0.705882352941176,0.705882352941176,1.011,84,17,3,44,1,"beforeCP",1,"securitycamera.jpg",1,4,NA,0.866,NA
"85",1,"m5",2,"Kitchen & utensil","Kitchen & utensil",1,0.76056338028169,0.714285714285714,0.722222222222222,0.686,85,18,3,45,1,"beforeCP",1,"funnel.jpg",1,3,"left",1.231,0
"86",1,"m2",2,"Outdoor activity & sport item","Electronic device & accessory",0,0.75,0.694444444444444,0.666666666666667,1.015,86,18,3,48,1,"beforeCP",1,"expansioncard.jpg",1,2,"right",2.135,0
"87",1,"m2",2,"Electronic device & accessory","Kitchen & utensil",0,0.73972602739726,0,0,1.303,87,1,4,2,0,"afterCP",1,"gasburner.jpg",1,3,"left",1.239,1
"88",1,"m2",1,"Hand labour tool & accessory","Kitchen & utensil",0,0.72972972972973,0,0,1.247,88,2,4,3,0,"afterCP",1,"cork02.jpg",1,4,"left",1.386,1
"89",1,"m2",2,"Kitchen & utensil","Kitchen & utensil",1,0.733333333333333,0.333333333333333,0.333333333333333,1.161,89,3,4,4,0,"afterCP",1,"hourglass.jpg",1,4,"right",1.032,0
"90",1,"m2",1,"Kitchen & utensil","Kitchen & utensil",1,0.736842105263158,0.5,0.5,0.613,90,4,4,5,0,"afterCP",1,"cleaver01.jpg",1,3,"left",1.471,1
"91",1,"m5",2,"Outdoor activity & sport item","Hand labour tool & accessory",0,0.727272727272727,0.4,0,0.646,91,1,4,6,0,"afterCP",1,"mallet01b.jpg",1,1,NA,1.044,NA
"92",1,"m5",2,"Hand labour tool & accessory","Hand labour tool & accessory",1,0.730769230769231,0.5,0.5,0.734,92,2,4,7,0,"afterCP",1,"hoe.jpg",1,3,"left",1.36,0
"93",1,"m2",3,"Kitchen & utensil","Kitchen & utensil",1,0.734177215189873,0.571428571428571,0.6,1.004,93,5,4,9,0,"beforeCP",1,"cookingpot.jpg",1,3,"left",1.086,1
"94",1,"m2",1,"Electronic device & accessory","Kitchen & utensil",0,0.725,0.5,0.5,0.569,94,6,4,11,0,"afterCP",1,"tray.jpg",1,3,"right",1.349,0
"95",1,"m5",4,"Hand labour tool & accessory","Hand labour tool & accessory",1,0.728395061728395,0.555555555555556,0.666666666666667,0.783,95,3,4,12,0,"beforeCP",1,"jumpercables.jpg",1,3,NA,1.274,NA
"96",1,"m5",4,"Hand labour tool & accessory","Hand labour tool & accessory",1,0.731707317073171,0.6,0.75,0.796,96,4,4,13,0,"beforeCP",1,"squeegee01b.jpg",NA,NA,NA,0.817,NA
"97",1,"m5",3,"Hand labour tool & accessory","Hand labour tool & accessory",1,0.734939759036145,0.636363636363636,0.8,0.893,97,5,4,14,0,"beforeCP",1,"painttray.jpg",NA,NA,NA,0.817,NA
"98",1,"m5",3,"Outdoor activity & sport item","Hand labour tool & accessory",0,0.726190476190476,0.583333333333333,0.666666666666667,1.064,98,6,4,17,0,"beforeCP",1,"rope03.jpg",1,3,"left",0.851,0
"99",1,"m2",2,"Hand labour tool & accessory","Kitchen & utensil",0,0.717647058823529,0.538461538461539,0.428571428571429,0.765,99,7,4,19,0,"afterCP",1,"watercooler.jpg",NA,NA,NA,0.817,NA
"100",1,"m5",4,"Hand labour tool & accessory","Hand labour tool & accessory",1,0.720930232558139,0.571428571428571,0.714285714285714,1.01,100,7,4,20,0,"beforeCP",1,"hammer01.jpg",1,3,NA,0.921,NA
"101",1,"m5",3,"Hand labour tool & accessory","Hand labour tool & accessory",1,0.724137931034483,0.6,0.75,1.049,101,8,4,21,0,"beforeCP",1,"jigsaw.jpg",0,2,"right",3.503,1
"102",1,"m5",1,"Hand labour tool & accessory","Hand labour tool & accessory",1,0.727272727272727,0.625,0.777777777777778,0.618,102,9,4,22,0,"beforeCP",1,"level03a.jpg",1,4,"left",1.324,0
"103",1,"m5",3,"Hand labour tool & accessory","Hand labour tool & accessory",1,0.730337078651685,0.647058823529412,0.8,0.54,103,10,4,23,0,"beforeCP",1,"toyhardhat.jpg",1,4,"right",0.89,1
"104",1,"m2",1,"Outdoor activity & sport item","Kitchen & utensil",0,0.722222222222222,0.611111111111111,0.375,1.158,104,8,4,24,0,"beforeCP",1,"jar02.jpg",NA,NA,NA,0.817,NA
"105",1,"m5",1,"Hand labour tool & accessory","Hand labour tool & accessory",1,0.725274725274725,0.631578947368421,0.818181818181818,0.939,105,11,4,25,1,"beforeCP",1,"drill01b.jpg",1,1,NA,1.473,NA
"106",1,"m2",3,"Kitchen & utensil","Kitchen & utensil",1,0.728260869565217,0.65,0.444444444444444,0.997,106,9,4,28,1,"beforeCP",1,"saladspinner.jpg",1,3,"right",1.198,0
"107",1,"m5",2,"Hand labour tool & accessory","Hand labour tool & accessory",1,0.731182795698925,0.666666666666667,0.833333333333333,0.968,107,12,4,29,1,"beforeCP",1,"knifesharpener.jpg",NA,NA,NA,0.817,NA
"108",1,"m2",4,"Kitchen & utensil","Kitchen & utensil",1,0.734042553191489,0.681818181818182,0.5,1.356,108,10,4,31,1,"beforeCP",1,"thermos.jpg",0,3,NA,2.535,NA
"109",1,"m2",3,"Outdoor activity & sport item","Kitchen & utensil",0,0.726315789473684,0.652173913043478,0.454545454545455,0.835,109,11,4,32,1,"beforeCP",1,"aluminiumfoil.jpg",NA,NA,NA,0.817,NA
"110",1,"m5",3,"Hand labour tool & accessory","Hand labour tool & accessory",1,0.729166666666667,0.666666666666667,0.846153846153846,0.869,110,13,4,33,1,"beforeCP",1,"wateringcan.jpg",0,4,NA,0.779,NA
"111",1,"m5",2,"Hand labour tool & accessory","Hand labour tool & accessory",1,0.731958762886598,0.68,0.857142857142857,0.893,111,14,4,34,1,"beforeCP",1,"gardenshears01a.jpg",1,3,"left",1.073,0
"112",1,"m2",1,"Kitchen & utensil","Kitchen & utensil",1,0.73469387755102,0.692307692307692,0.5,1,112,12,4,35,1,"beforeCP",1,"spoon01.jpg",0,1,NA,3.082,NA
"113",1,"m2",3,"Kitchen & utensil","Kitchen & utensil",1,0.737373737373737,0.703703703703704,0.538461538461539,1.068,113,13,4,36,1,"beforeCP",1,"corkscrew03a.jpg",1,2,NA,1.27,NA
"114",1,"m2",1,"Hand labour tool & accessory","Kitchen & utensil",0,0.73,0.678571428571428,0.5,0.833,114,14,4,37,1,"beforeCP",1,"bottlecap.jpg",NA,NA,NA,0.817,NA
"115",1,"m2",4,"Kitchen & utensil","Kitchen & utensil",1,0.732673267326733,0.689655172413793,0.533333333333333,0.819,115,15,4,38,1,"beforeCP",1,"pot01.jpg",1,1,NA,1.032,NA
"116",1,"m5",1,"Hand labour tool & accessory","Hand labour tool & accessory",1,0.735294117647059,0.7,0.866666666666667,0.647,116,15,4,39,1,"beforeCP",1,"gastank.jpg",NA,NA,NA,0.817,NA
"117",1,"m5",1,"Hand labour tool & accessory","Hand labour tool & accessory",1,0.737864077669903,0.709677419354839,0.875,0.523,117,16,4,40,1,"beforeCP",1,"stubbywrench01a.jpg",1,2,NA,0.925,NA
"118",1,"m2",1,"Kitchen & utensil","Kitchen & utensil",1,0.740384615384615,0.71875,0.5625,1.175,118,16,4,41,1,"beforeCP",1,"potatomasher03b.jpg",NA,NA,NA,0.817,NA
"119",1,"m2",3,"Kitchen & utensil","Kitchen & utensil",1,0.742857142857143,0.727272727272727,0.588235294117647,0.907,119,17,4,43,1,"beforeCP",1,"oven.jpg",1,4,"left",1.385,1
"120",1,"m5",4,"Electronic device & accessory","Hand labour tool & accessory",0,0.735849056603774,0.705882352941176,0.823529411764706,0.99,120,17,4,45,1,"beforeCP",1,"snowblower.jpg",1,2,"left",2.279,0
"121",1,"m5",3,"Outdoor activity & sport item","Hand labour tool & accessory",0,0.728971962616822,0.685714285714286,0.777777777777778,1.415,121,18,4,46,1,"beforeCP",1,"paintroller01.jpg",1,3,NA,0.952,NA
"122",1,"m2",3,"Electronic device & accessory","Kitchen & utensil",0,0.722222222222222,0.666666666666667,0.555555555555556,0.926,122,18,4,47,1,"beforeCP",1,"pastaspoon.jpg",1,4,"left",0.891,1
"123",1,"m2",1,"Kitchen & utensil","Outdoor activity & sport item",0,0.715596330275229,0,0,1.044,123,1,5,1,0,"afterCP",1,"badmintonracket.jpg",NA,NA,NA,0.817,NA
"124",1,"m2",1,"Electronic device & accessory","Outdoor activity & sport item",0,0.709090909090909,0,0,0.696,124,2,5,3,0,"afterCP",1,"shinpad.jpg",1,3,"left",5.293,1
"125",1,"m2",4,"Electronic device & accessory","Outdoor activity & sport item",0,0.702702702702703,0,0,1.113,125,3,5,4,0,"afterCP",1,"surfboard.jpg",0,1,NA,2.819,NA
"126",1,"m5",4,"Hand labour tool & accessory","Electronic device & accessory",0,0.696428571428571,0,0,0.804,126,1,5,5,0,"afterCP",1,"alarmclock01.jpg",1,1,NA,1.278,NA
"127",1,"m5",4,"Electronic device & accessory","Electronic device & accessory",1,0.699115044247788,0.2,0.5,1.049,127,2,5,8,0,"afterCP",1,"fan.jpg",1,4,NA,0.792,NA
"128",1,"m2",3,"Hand labour tool & accessory","Outdoor activity & sport item",0,0.692982456140351,0.166666666666667,0,0.916,128,4,5,9,0,"afterCP",1,"podium.jpg",1,4,"left",0.97,1
"129",1,"m2",3,"Outdoor activity & sport item","Outdoor activity & sport item",1,0.695652173913043,0.285714285714286,0.2,1.017,129,5,5,10,0,"afterCP",1,"iceskate.jpg",1,4,"right",0.817,0
"130",1,"m5",3,"Hand labour tool & accessory","Electronic device & accessory",0,0.689655172413793,0.25,0.333333333333333,0.602,130,3,5,11,0,"afterCP",1,"filmroll.jpg",NA,NA,NA,0.817,NA
"131",1,"m5",3,"Electronic device & accessory","Electronic device & accessory",1,0.692307692307692,0.333333333333333,0.5,1.341,131,4,5,13,0,"afterCP",1,"chandelier.jpg",1,3,NA,1.005,NA
"132",1,"m2",4,"Outdoor activity & sport item","Outdoor activity & sport item",1,0.694915254237288,0.4,0.333333333333333,0.972,132,6,5,14,0,"afterCP",1,"cooler01.jpg",1,2,"left",5.968,1
"133",1,"m5",1,"Electronic device & accessory","Electronic device & accessory",1,0.697478991596639,0.454545454545455,0.6,0.801,133,5,5,15,0,"afterCP",1,"lectern01.jpg",0,2,"left",1.832,0
"134",1,"m2",4,"Outdoor activity & sport item","Outdoor activity & sport item",1,0.7,0.5,0.428571428571429,0.834,134,7,5,16,0,"afterCP",1,"fishinghook03.jpg",NA,NA,NA,0.817,NA
"135",1,"m5",3,"Electronic device & accessory","Electronic device & accessory",1,0.702479338842975,0.538461538461539,0.666666666666667,1.131,135,6,5,17,0,"afterCP",1,"coffeemachine.jpg",NA,NA,NA,0.817,NA
"136",1,"m2",1,"Outdoor activity & sport item","Outdoor activity & sport item",1,0.704918032786885,0.571428571428571,0.5,0.608,136,8,5,18,0,"beforeCP",1,"kiddiepool.jpg",NA,NA,NA,0.817,NA
"137",1,"m2",3,"Outdoor activity & sport item","Outdoor activity & sport item",1,0.707317073170732,0.6,0.555555555555556,1.327,137,9,5,19,0,"beforeCP",1,"snowboard.jpg",1,1,NA,1.453,NA
"138",1,"m2",3,"Electronic device & accessory","Outdoor activity & sport item",0,0.701612903225806,0.5625,0.5,1.307,138,10,5,20,0,"beforeCP",1,"handgripper.jpg",1,4,NA,1.08,NA
"139",1,"m2",2,"Outdoor activity & sport item","Outdoor activity & sport item",1,0.704,0.588235294117647,0.545454545454545,0.609,139,11,5,21,0,"beforeCP",1,"hockeypuck.jpg",1,1,NA,1.4,NA
"140",1,"m2",1,"Outdoor activity & sport item","Outdoor activity & sport item",1,0.706349206349206,0.611111111111111,0.583333333333333,0.805,140,12,5,23,0,"beforeCP",1,"backpack01a.jpg",1,3,NA,0.925,NA
"141",1,"m5",4,"Electronic device & accessory","Electronic device & accessory",1,0.708661417322835,0.631578947368421,0.714285714285714,1.073,141,7,5,26,1,"beforeCP",1,"crocodileclips.jpg",1,2,NA,1.432,NA
"142",1,"m5",3,"Hand labour tool & accessory","Electronic device & accessory",0,0.703125,0.6,0.625,1.161,142,8,5,28,1,"beforeCP",1,"fluorescentlightbulb.jpg",0,3,NA,1.212,NA
"143",1,"m5",3,"Outdoor activity & sport item","Electronic device & accessory",0,0.697674418604651,0.571428571428571,0.555555555555556,0.983,143,9,5,31,1,"beforeCP",1,"ipod.jpg",1,1,NA,0.997,NA
"144",1,"m5",4,"Electronic device & accessory","Electronic device & accessory",1,0.7,0.590909090909091,0.6,1.05,144,10,5,32,1,"beforeCP",1,"telephone01b.jpg",1,3,NA,1.215,NA
"145",1,"m5",3,"Electronic device & accessory","Electronic device & accessory",1,0.702290076335878,0.608695652173913,0.636363636363636,0.904,145,11,5,33,1,"beforeCP",1,"slidetray.jpg",1,3,NA,1.035,NA
"146",1,"m5",4,"Electronic device & accessory","Electronic device & accessory",1,0.704545454545455,0.625,0.666666666666667,0.933,146,12,5,34,1,"beforeCP",1,"photocopier.jpg",1,2,"left",1.192,0
"147",1,"m5",3,"Electronic device & accessory","Electronic device & accessory",1,0.706766917293233,0.64,0.692307692307692,0.864,147,13,5,35,1,"beforeCP",1,"desktopcomputer.jpg",1,3,"left",1.6,0
"148",1,"m2",3,"Outdoor activity & sport item","Outdoor activity & sport item",1,0.708955223880597,0.653846153846154,0.615384615384615,0.901,148,13,5,36,1,"beforeCP",1,"bikewheel.jpg",1,4,"right",0.97,0
"149",1,"m5",3,"Electronic device & accessory","Electronic device & accessory",1,0.711111111111111,0.666666666666667,0.714285714285714,0.923,149,14,5,37,1,"beforeCP",1,"fuse.jpg",1,1,NA,1.201,NA
"150",1,"m2",3,"Outdoor activity & sport item","Outdoor activity & sport item",1,0.713235294117647,0.678571428571428,0.642857142857143,0.679,150,14,5,38,1,"beforeCP",1,"poolnet.jpg",1,1,NA,3.884,NA
"151",1,"m5",3,"Electronic device & accessory","Electronic device & accessory",1,0.715328467153285,0.689655172413793,0.733333333333333,1.072,151,15,5,39,1,"beforeCP",1,"floppydisk02a.jpg",NA,NA,NA,0.817,NA
"152",1,"m2",2,"Outdoor activity & sport item","Outdoor activity & sport item",1,0.717391304347826,0.7,0.666666666666667,0.957,152,15,5,40,1,"beforeCP",1,"hockeygoaliepad.jpg",1,4,"left",1.107,1
"153",1,"m2",1,"Outdoor activity & sport item","Outdoor activity & sport item",1,0.719424460431655,0.709677419354839,0.6875,1.027,153,16,5,41,1,"beforeCP",1,"skihelmet01.jpg",0,2,NA,0.951,NA
"154",1,"m2",2,"Outdoor activity & sport item","Outdoor activity & sport item",1,0.721428571428571,0.71875,0.705882352941176,0.739,154,17,5,42,1,"beforeCP",1,"anchor.jpg",1,4,"right",1.029,0
"155",1,"m5",1,"Electronic device & accessory","Electronic device & accessory",1,0.723404255319149,0.727272727272727,0.75,0.91,155,16,5,43,1,"beforeCP",1,"carantenna.jpg",1,4,NA,1.267,NA
"156",1,"m2",4,"Outdoor activity & sport item","Outdoor activity & sport item",1,0.725352112676056,0.735294117647059,0.722222222222222,0.803,156,18,5,44,1,"beforeCP",1,"fishingrod.jpg",1,2,NA,1.157,NA
"157",1,"m5",1,"Electronic device & accessory","Electronic device & accessory",1,0.727272727272727,0.742857142857143,0.764705882352941,0.652,157,17,5,45,1,"beforeCP",1,"lamp04a.jpg",0,1,"right",1.184,1
"158",1,"m5",4,"Electronic device & accessory","Electronic device & accessory",1,0.729166666666667,0.75,0.777777777777778,0.932,158,18,5,46,1,"beforeCP",1,"extensioncord.jpg",1,3,"left",1.583,0
"173",2,"m2",2,"Outdoor activity & sport item","Outdoor activity & sport item",1,1,1,1,1.481,15,1,2,2,0,"beforeCP",1,"volleyball.jpg",1,3,NA,0.6,NA
"174",2,"m5",1,"Kitchen & utensil","Hand labour tool & accessory",0,0.5,0.5,0,1.199,16,1,2,4,0,"afterCP",1,"toyhardhat.jpg",1,4,"left",0.775,0
"175",2,"m2",2,"Electronic device & accessory","Outdoor activity & sport item",0,0.333333333333333,0.333333333333333,0.5,1.161,17,2,2,6,0,"afterCP",1,"patioumbrella.jpg",1,4,"right",0.809,0
"176",2,"m2",4,"Electronic device & accessory","Outdoor activity & sport item",0,0.25,0.25,0.333333333333333,1.98,18,3,2,9,0,"afterCP",1,"podium.jpg",1,4,"left",0.773,1
"177",2,"m2",4,"Outdoor activity & sport item","Outdoor activity & sport item",1,0.4,0.4,0.5,1.096,19,4,2,10,0,"afterCP",1,"bikehelmet.jpg",1,4,"right",0.617,0
"178",2,"m2",2,"Outdoor activity & sport item","Outdoor activity & sport item",1,0.5,0.5,0.6,1.41,20,5,2,11,0,"afterCP",1,"anchor.jpg",1,4,"left",1.007,1
"179",2,"m5",4,"Kitchen & utensil","Hand labour tool & accessory",0,0.428571428571429,0.428571428571429,0,1.684,21,2,2,12,0,"afterCP",1,"snowshovel.jpg",1,4,"right",0.886,1
"180",2,"m5",2,"Hand labour tool & accessory","Hand labour tool & accessory",1,0.5,0.5,0.333333333333333,1.811,22,3,2,13,0,"afterCP",1,"level03a.jpg",1,4,"left",2.214,0
"181",2,"m2",2,"Outdoor activity & sport item","Outdoor activity & sport item",1,0.555555555555556,0.555555555555556,0.666666666666667,1.611,23,6,2,14,0,"beforeCP",1,"hockeygoaliepad.jpg",1,4,"right",0.89,0
"182",2,"m5",3,"Hand labour tool & accessory","Hand labour tool & accessory",1,0.6,0.6,0.5,1.301,24,4,2,17,0,"beforeCP",1,"sewingmachine01a.jpg",1,4,"left",0.769,0
"183",2,"m2",2,"Outdoor activity & sport item","Outdoor activity & sport item",1,0.636363636363636,0.636363636363636,0.714285714285714,1.566,25,7,2,19,0,"beforeCP",1,"fishingrod.jpg",1,4,"left",3.293,1
"184",2,"m5",3,"Kitchen & utensil","Hand labour tool & accessory",0,0.583333333333333,0.583333333333333,0.4,1.151,26,5,2,20,0,"beforeCP",1,"axe01.jpg",1,4,"right",0.868,1
"185",2,"m2",3,"Outdoor activity & sport item","Outdoor activity & sport item",1,0.615384615384615,0.615384615384615,0.75,1.044,27,8,2,21,0,"beforeCP",1,"treadmill.jpg",1,4,"left",2.374,1
"186",2,"m5",1,"Electronic device & accessory","Hand labour tool & accessory",0,0.571428571428571,0.571428571428571,0.333333333333333,2.163,28,6,2,22,0,"beforeCP",1,"metalbrush.jpg",1,4,NA,1.031,NA
"187",2,"m2",4,"Outdoor activity & sport item","Outdoor activity & sport item",1,0.6,0.6,0.777777777777778,1.725,29,9,2,23,0,"beforeCP",1,"charcoalbarbecue.jpg",1,3,NA,0.934,NA
"188",2,"m5",3,"Hand labour tool & accessory","Hand labour tool & accessory",1,0.625,0.625,0.428571428571429,2.81,30,7,2,24,0,"beforeCP",1,"caulking.jpg",1,4,NA,0.875,NA
"189",2,"m5",3,"Electronic device & accessory","Hand labour tool & accessory",0,0.588235294117647,0.588235294117647,0.375,1.639,31,8,2,26,1,"beforeCP",1,"drill01b.jpg",1,3,NA,3.255,NA
"190",2,"m5",2,"Hand labour tool & accessory","Hand labour tool & accessory",1,0.611111111111111,0.611111111111111,0.444444444444444,1.067,32,9,2,27,1,"beforeCP",1,"hedgeshears.jpg",1,3,"left",1.052,0
"191",2,"m2",4,"Outdoor activity & sport item","Outdoor activity & sport item",1,0.631578947368421,0.631578947368421,0.8,0.893,33,10,2,28,1,"beforeCP",1,"surfboard.jpg",1,4,"left",0.819,1
"192",2,"m2",3,"Outdoor activity & sport item","Outdoor activity & sport item",1,0.65,0.65,0.818181818181818,1.391,34,11,2,29,1,"beforeCP",1,"catchermask.jpg",1,4,"left",0.918,1
"193",2,"m2",2,"Outdoor activity & sport item","Outdoor activity & sport item",1,0.666666666666667,0.666666666666667,0.833333333333333,1.156,35,12,2,30,1,"beforeCP",1,"soccerball.jpg",1,4,"left",0.623,1
"194",2,"m5",4,"Hand labour tool & accessory","Hand labour tool & accessory",1,0.681818181818182,0.681818181818182,0.5,1.527,36,10,2,31,1,"beforeCP",1,"setsquare.jpg",1,4,"right",1.13,1
"195",2,"m5",1,"Hand labour tool & accessory","Hand labour tool & accessory",1,0.695652173913043,0.695652173913043,0.545454545454545,1.407,37,11,2,32,1,"beforeCP",1,"boltcutter.jpg",1,4,"left",0.865,0
"196",2,"m5",2,"Hand labour tool & accessory","Hand labour tool & accessory",1,0.708333333333333,0.708333333333333,0.583333333333333,0.849,38,12,2,34,1,"beforeCP",1,"hammer01.jpg",1,4,NA,0.772,NA
"197",2,"m5",2,"Hand labour tool & accessory","Hand labour tool & accessory",1,0.72,0.72,0.615384615384615,1.35,39,13,2,35,1,"beforeCP",1,"aircompressor.jpg",1,4,"left",1.008,0
"198",2,"m2",1,"Outdoor activity & sport item","Outdoor activity & sport item",1,0.730769230769231,0.730769230769231,0.846153846153846,1.119,40,13,2,37,1,"beforeCP",1,"canoepaddle02.jpg",1,4,"left",0.688,1
"199",2,"m2",2,"Outdoor activity & sport item","Outdoor activity & sport item",1,0.740740740740741,0.740740740740741,0.857142857142857,1.584,41,14,2,38,1,"beforeCP",1,"backpack01a.jpg",1,3,"right",0.656,0
"200",2,"m2",1,"Outdoor activity & sport item","Outdoor activity & sport item",1,0.75,0.75,0.866666666666667,1.172,42,15,2,39,1,"beforeCP",1,"hockeypuck.jpg",1,4,"right",1.157,0
"201",2,"m2",2,"Outdoor activity & sport item","Outdoor activity & sport item",1,0.758620689655172,0.758620689655172,0.875,1.208,43,16,2,40,1,"beforeCP",1,"baseballglove.jpg",1,4,"left",1.019,1
"202",2,"m5",4,"Hand labour tool & accessory","Hand labour tool & accessory",1,0.766666666666667,0.766666666666667,0.642857142857143,1.271,44,14,2,41,1,"beforeCP",1,"snowblower.jpg",1,3,"left",1.604,0
"203",2,"m5",2,"Hand labour tool & accessory","Hand labour tool & accessory",1,0.774193548387097,0.774193548387097,0.666666666666667,1.439,45,15,2,43,1,"beforeCP",1,"rope03.jpg",1,4,"left",0.825,0
"204",2,"m2",3,"Outdoor activity & sport item","Outdoor activity & sport item",1,0.78125,0.78125,0.882352941176471,1.014,46,17,2,44,1,"beforeCP",1,"toyhockeystick01.jpg",1,4,"left",0.623,1
"205",2,"m5",4,"Hand labour tool & accessory","Hand labour tool & accessory",1,0.787878787878788,0.787878787878788,0.6875,2.026,47,16,2,45,1,"beforeCP",1,"saw02b.jpg",1,4,"right",0.806,1
"206",2,"m5",2,"Hand labour tool & accessory","Hand labour tool & accessory",1,0.794117647058823,0.794117647058823,0.705882352941176,1.212,48,17,2,46,1,"beforeCP",1,"flooringstapler.jpg",1,4,"left",1.126,0
"207",2,"m2",4,"Outdoor activity & sport item","Outdoor activity & sport item",1,0.8,0.8,0.888888888888889,0.944,49,18,2,47,1,"beforeCP",1,"swimgoggles.jpg",1,4,"right",0.802,0
"208",2,"m5",1,"Hand labour tool & accessory","Hand labour tool & accessory",1,0.805555555555555,0.805555555555555,0.722222222222222,1.08,50,18,2,48,1,"beforeCP",1,"wheel01.jpg",1,4,"left",0.67,0
"209",2,"m5",2,"Hand labour tool & accessory","Kitchen & utensil",0,0.783783783783784,0,0,1.572,51,1,3,1,0,"afterCP",1,"corkscrew03a.jpg",1,4,"right",1.134,1
"210",2,"m5",2,"Kitchen & utensil","Kitchen & utensil",1,0.789473684210526,0.5,0.5,1.412,52,2,3,2,0,"afterCP",1,"towel01.jpg",1,4,"right",0.717,1
"211",2,"m5",2,"Outdoor activity & sport item","Kitchen & utensil",0,0.769230769230769,0.333333333333333,0.333333333333333,1.131,53,3,3,4,0,"afterCP",1,"cork02.jpg",1,4,"right",1.441,1
"212",2,"m2",3,"Outdoor activity & sport item","Electronic device & accessory",0,0.75,0.25,0,0.831,54,1,3,5,0,"afterCP",1,"usbkey.jpg",1,4,"right",1.611,0
"213",2,"m5",2,"Kitchen & utensil","Kitchen & utensil",1,0.75609756097561,0.4,0.5,1.57,55,4,3,6,0,"afterCP",1,"tupperware03a.jpg",1,4,NA,0.72,NA
"214",2,"m2",4,"Outdoor activity & sport item","Electronic device & accessory",0,0.738095238095238,0.333333333333333,0,2.228,56,2,3,7,0,"afterCP",1,"cellphone.jpg",1,4,"left",0.971,1
"215",2,"m5",3,"Kitchen & utensil","Kitchen & utensil",1,0.744186046511628,0.428571428571429,0.6,0.848,57,5,3,8,0,"afterCP",1,"butterknife.jpg",1,3,NA,1.209,NA
"216",2,"m5",3,"Kitchen & utensil","Kitchen & utensil",1,0.75,0.5,0.666666666666667,0.842,58,6,3,10,0,"afterCP",1,"travelmug.jpg",1,4,"left",0.741,0
"217",2,"m2",1,"Outdoor activity & sport item","Electronic device & accessory",0,0.733333333333333,0.444444444444444,0,1.845,59,3,3,12,0,"afterCP",1,"filmnegative.jpg",1,4,NA,0.717,NA
"218",2,"m2",4,"Electronic device & accessory","Electronic device & accessory",1,0.739130434782609,0.5,0.25,1.987,60,4,3,13,0,"afterCP",1,"securitycamera.jpg",1,4,"right",0.732,0
"219",2,"m2",4,"Electronic device & accessory","Electronic device & accessory",1,0.74468085106383,0.545454545454545,0.4,0.88,61,5,3,15,0,"afterCP",1,"nintendods.jpg",1,4,"left",0.93,1
"220",2,"m2",4,"Electronic device & accessory","Electronic device & accessory",1,0.75,0.583333333333333,0.5,0.875,62,6,3,16,0,"beforeCP",1,"dvdplayer.jpg",1,4,"right",1.245,0
"221",2,"m2",3,"Hand labour tool & accessory","Electronic device & accessory",0,0.73469387755102,0.538461538461539,0.428571428571429,2.495,63,7,3,18,0,"afterCP",1,"expansioncard.jpg",1,4,"left",0.823,1
"222",2,"m5",4,"Kitchen & utensil","Kitchen & utensil",1,0.74,0.571428571428571,0.714285714285714,1.333,64,7,3,19,0,"beforeCP",1,"funnel.jpg",1,4,"right",0.942,1
"223",2,"m2",4,"Electronic device & accessory","Electronic device & accessory",1,0.745098039215686,0.6,0.5,1.909,65,8,3,20,0,"beforeCP",1,"photocopier.jpg",1,4,"left",0.987,1
"224",2,"m2",1,"Electronic device & accessory","Electronic device & accessory",1,0.75,0.625,0.555555555555556,1.365,66,9,3,21,0,"beforeCP",1,"electricoutlet.jpg",1,4,"left",0.853,1
"225",2,"m5",2,"Kitchen & utensil","Kitchen & utensil",1,0.754716981132075,0.647058823529412,0.75,1.079,67,8,3,22,0,"beforeCP",1,"cookiecutter.jpg",1,4,"right",0.828,1
"226",2,"m5",4,"Kitchen & utensil","Kitchen & utensil",1,0.759259259259259,0.666666666666667,0.777777777777778,1.461,68,9,3,23,0,"beforeCP",1,"saladspinner.jpg",1,2,"right",1.12,1
"227",2,"m2",1,"Electronic device & accessory","Electronic device & accessory",1,0.763636363636364,0.684210526315789,0.6,1.466,69,10,3,24,0,"beforeCP",1,"extensioncord.jpg",1,4,NA,1.691,NA
"228",2,"m5",4,"Kitchen & utensil","Kitchen & utensil",1,0.767857142857143,0.7,0.8,1.313,70,10,3,25,1,"beforeCP",1,"bowl02a.jpg",1,4,"left",0.831,0
"229",2,"m2",2,"Electronic device & accessory","Electronic device & accessory",1,0.771929824561403,0.714285714285714,0.636363636363636,0.911,71,11,3,27,1,"beforeCP",1,"fluorescentlightbulb.jpg",1,3,"right",0.926,0
"230",2,"m2",4,"Electronic device & accessory","Electronic device & accessory",1,0.775862068965517,0.727272727272727,0.666666666666667,1.243,72,12,3,28,1,"beforeCP",1,"gps.jpg",1,4,"right",1.032,0
"231",2,"m5",2,"Outdoor activity & sport item","Kitchen & utensil",0,0.76271186440678,0.695652173913043,0.727272727272727,1.233,73,11,3,31,1,"beforeCP",1,"handmixer01d.jpg",1,1,"left",2.239,0
"232",2,"m2",1,"Electronic device & accessory","Electronic device & accessory",1,0.766666666666667,0.708333333333333,0.692307692307692,2.88,74,13,3,32,1,"beforeCP",1,"ipod.jpg",1,4,"left",0.869,1
"233",2,"m5",2,"Electronic device & accessory","Kitchen & utensil",0,0.754098360655738,0.68,0.666666666666667,1.239,75,12,3,34,1,"beforeCP",1,"toothpick02.jpg",1,4,"left",0.954,0
"234",2,"m5",4,"Hand labour tool & accessory","Kitchen & utensil",0,0.741935483870968,0.653846153846154,0.615384615384615,0.843,76,13,3,35,1,"beforeCP",1,"gasburner.jpg",1,4,"left",1.045,0
"235",2,"m2",1,"Electronic device & accessory","Electronic device & accessory",1,0.746031746031746,0.666666666666667,0.714285714285714,1.36,77,14,3,36,1,"beforeCP",1,"desktopcomputer.jpg",1,3,"right",1.657,0
"236",2,"m5",2,"Kitchen & utensil","Kitchen & utensil",1,0.75,0.678571428571428,0.642857142857143,1.21,78,14,3,37,1,"beforeCP",1,"thermos.jpg",1,3,NA,1.168,NA
"237",2,"m5",3,"Kitchen & utensil","Kitchen & utensil",1,0.753846153846154,0.689655172413793,0.666666666666667,1.172,79,15,3,38,1,"beforeCP",1,"breadknife.jpg",1,4,"right",0.618,1
"238",2,"m5",4,"Kitchen & utensil","Kitchen & utensil",1,0.757575757575758,0.7,0.6875,1.578,80,16,3,39,1,"beforeCP",1,"hourglass.jpg",1,4,"left",1.839,0
"239",2,"m5",2,"Kitchen & utensil","Kitchen & utensil",1,0.761194029850746,0.709677419354839,0.705882352941176,1.208,81,17,3,40,1,"beforeCP",1,"tray.jpg",1,4,"left",0.692,0
"240",2,"m2",3,"Electronic device & accessory","Electronic device & accessory",1,0.764705882352941,0.71875,0.733333333333333,1.566,82,15,3,42,1,"beforeCP",1,"fanblades.jpg",1,4,"right",1.043,0
"241",2,"m2",4,"Electronic device & accessory","Electronic device & accessory",1,0.768115942028985,0.727272727272727,0.75,1.223,83,16,3,43,1,"beforeCP",1,"djmixer02.jpg",1,4,"right",1.005,0
"242",2,"m2",1,"Electronic device & accessory","Electronic device & accessory",1,0.771428571428571,0.735294117647059,0.764705882352941,1.403,84,17,3,44,1,"beforeCP",1,"satellitedish01.jpg",1,4,"left",0.927,1
"243",2,"m5",2,"Kitchen & utensil","Kitchen & utensil",1,0.774647887323944,0.742857142857143,0.722222222222222,1.212,85,18,3,45,1,"beforeCP",1,"cookingpot.jpg",1,4,"left",1.265,0
"244",2,"m2",3,"Electronic device & accessory","Electronic device & accessory",1,0.777777777777778,0.75,0.777777777777778,1.341,86,18,3,48,1,"beforeCP",1,"lamp04a.jpg",1,4,"left",0.895,1
"245",2,"m2",2,"Electronic device & accessory","Kitchen & utensil",0,0.767123287671233,0,0,1.088,87,1,4,2,0,"afterCP",1,"pitcher02b.jpg",1,2,NA,1.74,NA
"246",2,"m2",2,"Electronic device & accessory","Kitchen & utensil",0,0.756756756756757,0,0,1.043,88,2,4,3,0,"afterCP",1,"oven.jpg",1,4,"left",1.159,1
"247",2,"m2",3,"Electronic device & accessory","Kitchen & utensil",0,0.746666666666667,0,0,1.072,89,3,4,4,0,"afterCP",1,"pot01.jpg",0,3,"left",0.918,1
"248",2,"m2",3,"Electronic device & accessory","Kitchen & utensil",0,0.736842105263158,0,0,1.406,90,4,4,5,0,"afterCP",1,"muffintray01.jpg",1,3,"right",0.942,0
"249",2,"m5",1,"Kitchen & utensil","Hand labour tool & accessory",0,0.727272727272727,0,0,1.315,91,1,4,6,0,"afterCP",1,"wateringcan.jpg",1,3,NA,1.386,NA
"250",2,"m5",4,"Kitchen & utensil","Hand labour tool & accessory",0,0.717948717948718,0,0,1.581,92,2,4,7,0,"afterCP",1,"paintroller01.jpg",1,4,NA,0.771,NA
"251",2,"m2",2,"Electronic device & accessory","Kitchen & utensil",0,0.708860759493671,0,0,3.533,93,5,4,9,0,"afterCP",1,"measuringcup01.jpg",1,3,"right",1.388,0
"252",2,"m2",1,"Electronic device & accessory","Kitchen & utensil",0,0.7,0,0,1.394,94,6,4,11,0,"afterCP",1,"espressomachine.jpg",1,4,"left",0.986,1
"253",2,"m5",3,"Kitchen & utensil","Hand labour tool & accessory",0,0.691358024691358,0,0,0.961,95,3,4,12,0,"afterCP",1,"bungeecord02.jpg",1,4,NA,0.928,NA
"254",2,"m5",3,"Outdoor activity & sport item","Hand labour tool & accessory",0,0.682926829268293,0,0,1.212,96,4,4,13,0,"afterCP",1,"weedwacker.jpg",1,3,"right",1.416,1
"255",2,"m5",2,"Electronic device & accessory","Hand labour tool & accessory",0,0.674698795180723,0,0,1.907,97,5,4,14,0,"afterCP",1,"jigsaw.jpg",1,3,"left",1.746,0
"256",2,"m5",3,"Outdoor activity & sport item","Hand labour tool & accessory",0,0.666666666666667,0,0,1.216,98,6,4,17,0,"afterCP",1,"chainsaw.jpg",1,4,NA,0.874,NA
"257",2,"m2",1,"Electronic device & accessory","Kitchen & utensil",0,0.658823529411765,0,0,1.664,99,7,4,19,0,"afterCP",1,"spicerack.jpg",1,4,"left",1.08,1
"258",2,"m5",2,"Outdoor activity & sport item","Hand labour tool & accessory",0,0.651162790697674,0,0,1.324,100,7,4,20,0,"afterCP",1,"mallet01b.jpg",1,4,NA,1.953,NA
"259",2,"m5",3,"Hand labour tool & accessory","Hand labour tool & accessory",1,0.655172413793103,0.0666666666666667,0.125,1.08,101,8,4,21,0,"afterCP",1,"bucket02.jpg",1,4,NA,1.64,NA
"260",2,"m5",1,"Hand labour tool & accessory","Hand labour tool & accessory",1,0.659090909090909,0.125,0.222222222222222,1.343,102,9,4,22,0,"afterCP",1,"sledgehammer.jpg",1,3,"left",1.118,0
"261",2,"m5",3,"Hand labour tool & accessory","Hand labour tool & accessory",1,0.662921348314607,0.176470588235294,0.3,1.612,103,10,4,23,0,"afterCP",1,"stubbywrench01a.jpg",1,4,NA,0.877,NA
"262",2,"m2",4,"Electronic device & accessory","Kitchen & utensil",0,0.655555555555556,0.166666666666667,0,1.112,104,8,4,24,0,"afterCP",1,"shotglass.jpg",1,4,"left",0.816,1
"263",2,"m5",1,"Hand labour tool & accessory","Hand labour tool & accessory",1,0.659340659340659,0.210526315789474,0.363636363636364,1.232,105,11,4,25,1,"afterCP",1,"pipewrench.jpg",1,4,"right",1.263,1
"264",2,"m2",3,"Kitchen & utensil","Kitchen & utensil",1,0.66304347826087,0.25,0.111111111111111,1.679,106,9,4,28,1,"afterCP",1,"cleaver01.jpg",1,4,NA,1.063,NA
"265",2,"m5",2,"Hand labour tool & accessory","Hand labour tool & accessory",1,0.666666666666667,0.285714285714286,0.416666666666667,0.945,107,12,4,29,1,"afterCP",1,"pressurewasher.jpg",1,4,"left",1.152,0
"266",2,"m2",2,"Outdoor activity & sport item","Kitchen & utensil",0,0.659574468085106,0.272727272727273,0.1,1.268,108,10,4,31,1,"afterCP",1,"cowbell.jpg",1,4,"right",2.226,0
"267",2,"m2",3,"Outdoor activity & sport item","Kitchen & utensil",0,0.652631578947368,0.260869565217391,0.0909090909090909,1.196,109,11,4,32,1,"afterCP",1,"waterbottle03.jpg",1,4,"right",1.148,0
"268",2,"m5",3,"Hand labour tool & accessory","Hand labour tool & accessory",1,0.65625,0.291666666666667,0.461538461538462,2.054,110,13,4,33,1,"afterCP",1,"jumpercables.jpg",1,4,NA,1.059,NA
"269",2,"m5",3,"Electronic device & accessory","Hand labour tool & accessory",0,0.649484536082474,0.28,0.428571428571429,1.192,111,14,4,34,1,"afterCP",1,"pliers02b.jpg",1,3,NA,0.916,NA
"270",2,"m2",1,"Kitchen & utensil","Kitchen & utensil",1,0.653061224489796,0.307692307692308,0.166666666666667,1.857,112,12,4,35,1,"afterCP",1,"canister.jpg",1,4,"right",0.758,0
"271",2,"m2",3,"Kitchen & utensil","Kitchen & utensil",1,0.656565656565657,0.333333333333333,0.230769230769231,1.179,113,13,4,36,1,"afterCP",1,"contactlens.jpg",1,3,"left",0.86,1
"272",2,"m2",3,"Kitchen & utensil","Kitchen & utensil",1,0.66,0.357142857142857,0.285714285714286,0.78,114,14,4,37,1,"afterCP",1,"woodenspoon.jpg",1,4,"right",0.966,0
"273",2,"m2",4,"Kitchen & utensil","Kitchen & utensil",1,0.663366336633663,0.379310344827586,0.333333333333333,1.467,115,15,4,38,1,"afterCP",1,"spoon01.jpg",1,3,"left",1.971,1
"274",2,"m5",3,"Electronic device & accessory","Hand labour tool & accessory",0,0.656862745098039,0.366666666666667,0.4,1.309,116,15,4,39,1,"afterCP",1,"ladder.jpg",1,4,"left",0.903,0
"275",2,"m5",2,"Outdoor activity & sport item","Hand labour tool & accessory",0,0.650485436893204,0.354838709677419,0.375,1.284,117,16,4,40,1,"afterCP",1,"wheelbarrow01.jpg",1,4,"left",0.928,0
"276",2,"m2",1,"Kitchen & utensil","Kitchen & utensil",1,0.653846153846154,0.375,0.375,1.39,118,16,4,41,1,"afterCP",1,"pastaspoon.jpg",1,4,"left",0.632,1
"277",2,"m2",3,"Kitchen & utensil","Kitchen & utensil",1,0.657142857142857,0.393939393939394,0.411764705882353,0.98,119,17,4,43,1,"afterCP",1,"martiniglass01b.jpg",1,4,"left",0.824,1
"278",2,"m5",2,"Hand labour tool & accessory","Hand labour tool & accessory",1,0.660377358490566,0.411764705882353,0.411764705882353,0.907,120,17,4,45,1,"afterCP",1,"hoe.jpg",1,3,"right",0.94,1
"279",2,"m5",4,"Hand labour tool & accessory","Hand labour tool & accessory",1,0.663551401869159,0.428571428571429,0.444444444444444,1.771,121,18,4,46,1,"afterCP",1,"gardenshears01a.jpg",1,4,"right",1.389,1
"280",2,"m2",4,"Hand labour tool & accessory","Kitchen & utensil",0,0.657407407407407,0.416666666666667,0.388888888888889,0.985,122,18,4,47,1,"afterCP",1,"rollingpin01a.jpg",1,4,NA,1.388,NA
"281",2,"m2",1,"Kitchen & utensil","Outdoor activity & sport item",0,0.651376146788991,0,0,0.995,123,1,5,1,0,"afterCP",1,"reflector.jpg",1,3,"left",1.619,1
"282",2,"m2",1,"Electronic device & accessory","Outdoor activity & sport item",0,0.645454545454545,0,0,1.525,124,2,5,3,0,"afterCP",1,"shinpad.jpg",1,4,"right",0.891,0
"283",2,"m2",2,"Outdoor activity & sport item","Outdoor activity & sport item",1,0.648648648648649,0.333333333333333,0.333333333333333,1.005,125,3,5,4,0,"afterCP",1,"iceskate.jpg",1,4,"left",0.945,1
"284",2,"m5",4,"Hand labour tool & accessory","Electronic device & accessory",0,0.642857142857143,0.25,0,0.938,126,1,5,5,0,"afterCP",1,"phonejack.jpg",1,4,"left",1.223,0
"285",2,"m5",4,"Electronic device & accessory","Electronic device & accessory",1,0.646017699115044,0.4,0.5,1.05,127,2,5,8,0,"afterCP",1,"fuse.jpg",1,4,NA,1.1,NA
"286",2,"m2",4,"Outdoor activity & sport item","Outdoor activity & sport item",1,0.649122807017544,0.5,0.5,1.705,128,4,5,9,0,"afterCP",1,"poolnet.jpg",1,4,NA,0.837,NA
"287",2,"m2",3,"Outdoor activity & sport item","Outdoor activity & sport item",1,0.652173913043478,0.571428571428571,0.6,1.61,129,5,5,10,0,"beforeCP",1,"hockeygoaliemask.jpg",1,3,NA,0.875,NA
"288",2,"m5",2,"Electronic device & accessory","Electronic device & accessory",1,0.655172413793103,0.625,0.666666666666667,1.249,130,3,5,11,0,"beforeCP",1,"fan.jpg",1,4,NA,1.09,NA
"289",2,"m5",3,"Electronic device & accessory","Electronic device & accessory",1,0.658119658119658,0.666666666666667,0.75,1.051,131,4,5,13,0,"beforeCP",1,"carantenna.jpg",1,4,NA,1.029,NA
"290",2,"m2",4,"Outdoor activity & sport item","Outdoor activity & sport item",1,0.661016949152542,0.7,0.666666666666667,1.03,132,6,5,14,0,"beforeCP",1,"bikewheel.jpg",1,3,"right",2.714,0
"291",2,"m5",1,"Electronic device & accessory","Electronic device & accessory",1,0.663865546218487,0.727272727272727,0.8,1.177,133,5,5,15,0,"beforeCP",1,"lightbulb01.jpg",1,4,"right",1.484,1
"292",2,"m2",4,"Outdoor activity & sport item","Outdoor activity & sport item",1,0.666666666666667,0.75,0.714285714285714,0.828,134,7,5,16,0,"beforeCP",1,"bikepump01.jpg",1,4,"left",1.41,1
"293",2,"m5",3,"Electronic device & accessory","Electronic device & accessory",1,0.669421487603306,0.769230769230769,0.833333333333333,1.49,135,6,5,17,0,"beforeCP",1,"chandelier.jpg",1,4,NA,0.88,NA
"294",2,"m2",1,"Outdoor activity & sport item","Outdoor activity & sport item",1,0.672131147540984,0.785714285714286,0.75,1.124,136,8,5,18,0,"beforeCP",1,"magneticcompass.jpg",1,4,NA,0.718,NA
"295",2,"m2",3,"Outdoor activity & sport item","Outdoor activity & sport item",1,0.67479674796748,0.8,0.777777777777778,1.105,137,9,5,19,0,"beforeCP",1,"baseball01a.jpg",1,4,"right",1.014,0
"296",2,"m2",2,"Outdoor activity & sport item","Outdoor activity & sport item",1,0.67741935483871,0.8125,0.8,1.016,138,10,5,20,0,"beforeCP",1,"handgripper.jpg",1,4,NA,1.011,NA
"297",2,"m2",2,"Outdoor activity & sport item","Outdoor activity & sport item",1,0.68,0.823529411764706,0.818181818181818,0.885,139,11,5,21,0,"beforeCP",1,"snowboard.jpg",1,4,NA,0.742,NA
"298",2,"m2",1,"Outdoor activity & sport item","Outdoor activity & sport item",1,0.682539682539683,0.833333333333333,0.833333333333333,1.068,140,12,5,23,0,"beforeCP",1,"hockeygoalieglove.jpg",1,4,"left",1.011,1
"299",2,"m5",1,"Outdoor activity & sport item","Electronic device & accessory",0,0.677165354330709,0.789473684210526,0.714285714285714,1.243,141,7,5,26,1,"beforeCP",1,"telephone01b.jpg",1,4,"left",0.625,0
"300",2,"m5",4,"Electronic device & accessory","Electronic device & accessory",1,0.6796875,0.8,0.75,1.315,142,8,5,28,1,"beforeCP",1,"wire.jpg",1,4,"left",0.953,0
"301",2,"m5",3,"Outdoor activity & sport item","Electronic device & accessory",0,0.674418604651163,0.761904761904762,0.666666666666667,1.328,143,9,5,31,1,"beforeCP",1,"dvdcase01.jpg",1,4,"left",1.081,0
"302",2,"m5",3,"Outdoor activity & sport item","Electronic device & accessory",0,0.669230769230769,0.727272727272727,0.6,1.637,144,10,5,32,1,"beforeCP",1,"slidetray.jpg",1,4,NA,0.891,NA
"303",2,"m5",4,"Hand labour tool & accessory","Electronic device & accessory",0,0.66412213740458,0.695652173913043,0.545454545454545,0.917,145,11,5,33,1,"beforeCP",1,"antenna.jpg",1,4,"left",1.313,0
"304",2,"m5",4,"Electronic device & accessory","Electronic device & accessory",1,0.666666666666667,0.708333333333333,0.583333333333333,1.625,146,12,5,34,1,"beforeCP",1,"crocodileclips.jpg",1,4,NA,1.625,NA
"305",2,"m5",3,"Electronic device & accessory","Electronic device & accessory",1,0.669172932330827,0.72,0.615384615384615,1.331,147,13,5,35,1,"beforeCP",1,"atm.jpg",1,4,"right",1.132,1
"306",2,"m2",3,"Outdoor activity & sport item","Outdoor activity & sport item",1,0.671641791044776,0.730769230769231,0.846153846153846,1.494,148,13,5,36,1,"beforeCP",1,"boatmotor.jpg",1,4,"right",1.746,0
"307",2,"m5",3,"Electronic device & accessory","Electronic device & accessory",1,0.674074074074074,0.740740740740741,0.642857142857143,1.611,149,14,5,37,1,"beforeCP",1,"vhstape.jpg",1,4,NA,0.95,NA
"308",2,"m2",3,"Outdoor activity & sport item","Outdoor activity & sport item",1,0.676470588235294,0.75,0.857142857142857,0.982,150,14,5,38,1,"beforeCP",1,"baseballbat.jpg",1,4,"left",1.13,1
"309",2,"m5",3,"Electronic device & accessory","Electronic device & accessory",1,0.678832116788321,0.758620689655172,0.666666666666667,1.067,151,15,5,39,1,"beforeCP",1,"lectern01.jpg",1,4,"left",1.158,0
"310",2,"m2",2,"Outdoor activity & sport item","Outdoor activity & sport item",1,0.681159420289855,0.766666666666667,0.866666666666667,1.21,152,15,5,40,1,"beforeCP",1,"skiboot01a.jpg",1,4,NA,0.669,NA
"311",2,"m2",1,"Outdoor activity & sport item","Outdoor activity & sport item",1,0.683453237410072,0.774193548387097,0.875,2.491,153,16,5,41,1,"beforeCP",1,"skihelmet01.jpg",1,2,NA,1.16,NA
"312",2,"m2",2,"Outdoor activity & sport item","Outdoor activity & sport item",1,0.685714285714286,0.78125,0.882352941176471,1.128,154,17,5,42,1,"beforeCP",1,"downhillski.jpg",1,4,"right",0.823,0
"313",2,"m5",1,"Electronic device & accessory","Electronic device & accessory",1,0.687943262411348,0.787878787878788,0.6875,2.758,155,16,5,43,1,"beforeCP",1,"computerkeyboard02.jpg",1,3,"left",1.487,0
"314",2,"m2",4,"Outdoor activity & sport item","Outdoor activity & sport item",1,0.690140845070423,0.794117647058823,0.888888888888889,1.445,156,18,5,44,1,"beforeCP",1,"cooler01.jpg",1,4,"right",1.372,0
"315",2,"m5",1,"Electronic device & accessory","Electronic device & accessory",1,0.692307692307692,0.8,0.705882352941176,1.079,157,17,5,45,1,"beforeCP",1,"alarmclock01.jpg",1,4,NA,0.94,NA
"316",2,"m5",4,"Electronic device & accessory","Electronic device & accessory",1,0.694444444444444,0.805555555555555,0.722222222222222,1.088,158,18,5,46,1,"beforeCP",1,"headphones02b.jpg",1,4,NA,0.929,NA
"331",3,"m2",2,"Outdoor activity & sport item","Outdoor activity & sport item",1,1,1,1,1.002085,15,1,2,2,0,"beforeCP",1,"skiboot01a.jpg",1,2,NA,1.12564,NA
"332",3,"m5",4,"Outdoor activity & sport item","Hand labour tool & accessory",0,0.5,0.5,0,1.71252,16,1,2,4,0,"afterCP",1,"sledgehammer.jpg",1,4,"left",1.41365,0
"333",3,"m2",4,"Outdoor activity & sport item","Outdoor activity & sport item",1,0.666666666666667,0.666666666666667,1,0.999645,17,2,2,6,0,"beforeCP",1,"hockeygoalieglove.jpg",1,3,NA,1.25118,NA
"334",3,"m2",1,"Outdoor activity & sport item","Outdoor activity & sport item",1,0.75,0.75,1,1.521005,18,3,2,9,0,"beforeCP",1,"handgripper.jpg",1,3,"left",1.036735,1
"335",3,"m2",4,"Outdoor activity & sport item","Outdoor activity & sport item",1,0.8,0.8,1,1.28235,19,4,2,10,0,"beforeCP",1,"treadmill.jpg",1,1,NA,1.242305,NA
"336",3,"m2",2,"Outdoor activity & sport item","Outdoor activity & sport item",1,0.833333333333333,0.833333333333333,1,0.8747,20,5,2,11,0,"beforeCP",1,"catchermask.jpg",0,2,"left",2.003505,1
"337",3,"m5",4,"Kitchen & utensil","Hand labour tool & accessory",0,0.714285714285714,0.714285714285714,0,1.48646,21,2,2,12,0,"beforeCP",1,"axe01.jpg",0,3,NA,1.36672,NA
"338",3,"m5",3,"Outdoor activity & sport item","Hand labour tool & accessory",0,0.625,0.625,0,1.853785,22,3,2,13,0,"beforeCP",1,"pliers02b.jpg",1,4,"left",1.06005,0
"339",3,"m2",2,"Outdoor activity & sport item","Outdoor activity & sport item",1,0.666666666666667,0.666666666666667,1,0.85487,23,6,2,14,0,"beforeCP",1,"badmintonracket.jpg",1,4,"left",0.745505,1
"340",3,"m5",3,"Hand labour tool & accessory","Hand labour tool & accessory",1,0.7,0.7,0.25,1.063,24,4,2,17,0,"beforeCP",1,"leafrake.jpg",1,4,NA,1.191585,NA
"341",3,"m2",3,"Kitchen & utensil","Outdoor activity & sport item",0,0.636363636363636,0.636363636363636,0.857142857142857,0.83387,25,7,2,19,0,"beforeCP",1,"weight01.jpg",1,1,NA,1.893015,NA
"342",3,"m5",3,"Kitchen & utensil","Hand labour tool & accessory",0,0.583333333333333,0.583333333333333,0.2,1.913765,26,5,2,20,0,"beforeCP",1,"knifesharpener.jpg",1,1,"left",3.01557,0
"343",3,"m2",3,"Outdoor activity & sport item","Outdoor activity & sport item",1,0.615384615384615,0.615384615384615,0.875,1.851735,27,8,2,21,0,"beforeCP",1,"hockeygoaliemask.jpg",1,4,"right",1.18102,0
"344",3,"m5",2,"Kitchen & utensil","Hand labour tool & accessory",0,0.571428571428571,0.571428571428571,0.166666666666667,0.95228,28,6,2,22,0,"beforeCP",1,"staplegun.jpg",1,2,NA,1.31499,NA
"345",3,"m2",4,"Outdoor activity & sport item","Outdoor activity & sport item",1,0.6,0.6,0.888888888888889,1.175685,29,9,2,23,0,"beforeCP",1,"charcoalbarbecue.jpg",1,2,NA,1.39623,NA
"346",3,"m5",3,"Hand labour tool & accessory","Hand labour tool & accessory",1,0.625,0.625,0.285714285714286,1.012765,30,7,2,24,0,"beforeCP",1,"setsquare.jpg",1,4,NA,1.11642,NA
"347",3,"m5",1,"Hand labour tool & accessory","Hand labour tool & accessory",1,0.647058823529412,0.647058823529412,0.375,1.04062,31,8,2,26,1,"beforeCP",1,"gluetube.jpg",1,4,NA,0.84924,NA
"348",3,"m5",2,"Hand labour tool & accessory","Hand labour tool & accessory",1,0.666666666666667,0.666666666666667,0.444444444444444,0.81237,32,9,2,27,1,"beforeCP",1,"sewingmachine01a.jpg",1,2,NA,1.16182,NA
"349",3,"m2",1,"Kitchen & utensil","Outdoor activity & sport item",0,0.631578947368421,0.631578947368421,0.8,1.01206,33,10,2,28,1,"beforeCP",1,"exercisemachine.jpg",1,1,NA,1.891665,NA
"350",3,"m2",3,"Outdoor activity & sport item","Outdoor activity & sport item",1,0.65,0.65,0.818181818181818,0.76133,34,11,2,29,1,"beforeCP",1,"hockeypuck.jpg",1,1,"left",1.909055,1
"351",3,"m2",2,"Outdoor activity & sport item","Outdoor activity & sport item",1,0.666666666666667,0.666666666666667,0.833333333333333,0.78755,35,12,2,30,1,"beforeCP",1,"cooler01.jpg",1,4,NA,0.966955,NA
"352",3,"m5",4,"Hand labour tool & accessory","Hand labour tool & accessory",1,0.681818181818182,0.681818181818182,0.5,1.39186,36,10,2,31,1,"beforeCP",1,"bungeecord02.jpg",1,4,"right",1.10337,1
"353",3,"m5",3,"Outdoor activity & sport item","Hand labour tool & accessory",0,0.652173913043478,0.652173913043478,0.454545454545455,1.10431,37,11,2,32,1,"beforeCP",1,"pipewrench.jpg",1,4,"left",1.474835,0
"354",3,"m5",2,"Hand labour tool & accessory","Hand labour tool & accessory",1,0.666666666666667,0.666666666666667,0.5,1.288345,38,12,2,34,1,"beforeCP",1,"tape02a.jpg",1,4,NA,1.29208,NA
"355",3,"m5",2,"Hand labour tool & accessory","Hand labour tool & accessory",1,0.68,0.68,0.538461538461539,0.58014,39,13,2,35,1,"beforeCP",1,"wheelbarrow01.jpg",1,3,"left",4.73431,0
"356",3,"m2",4,"Hand labour tool & accessory","Outdoor activity & sport item",0,0.653846153846154,0.653846153846154,0.769230769230769,1.342915,40,13,2,37,1,"beforeCP",1,"volleyball.jpg",0,4,"left",2.05905,1
"357",3,"m2",2,"Outdoor activity & sport item","Outdoor activity & sport item",1,0.666666666666667,0.666666666666667,0.785714285714286,0.77767,41,14,2,38,1,"beforeCP",1,"baseball01a.jpg",1,1,NA,2.913715,NA
"358",3,"m2",1,"Outdoor activity & sport item","Outdoor activity & sport item",1,0.678571428571428,0.678571428571428,0.8,0.812885,42,15,2,39,1,"beforeCP",1,"skihelmet01.jpg",0,4,NA,1.193465,NA
"359",3,"m2",2,"Outdoor activity & sport item","Outdoor activity & sport item",1,0.689655172413793,0.689655172413793,0.8125,0.83433,43,16,2,40,1,"beforeCP",1,"shinpad.jpg",0,2,NA,0.76623,NA
"360",3,"m5",1,"Outdoor activity & sport item","Hand labour tool & accessory",0,0.666666666666667,0.666666666666667,0.5,0.697385,44,14,2,41,1,"beforeCP",1,"chainsaw.jpg",0,2,"left",1.51908,0
"361",3,"m5",1,"Outdoor activity & sport item","Hand labour tool & accessory",0,0.645161290322581,0.645161290322581,0.466666666666667,0.707075,45,15,2,43,1,"beforeCP",1,"toyhardhat.jpg",1,4,"left",0.941755,0
"362",3,"m2",3,"Outdoor activity & sport item","Outdoor activity & sport item",1,0.65625,0.65625,0.823529411764706,1.126355,46,17,2,44,1,"beforeCP",1,"fishinghook03.jpg",1,3,NA,1.71253,NA
"363",3,"m5",4,"Hand labour tool & accessory","Hand labour tool & accessory",1,0.666666666666667,0.666666666666667,0.5,1.39351,47,16,2,45,1,"beforeCP",1,"level03a.jpg",0,2,NA,1.05726,NA
"364",3,"m5",2,"Hand labour tool & accessory","Hand labour tool & accessory",1,0.676470588235294,0.676470588235294,0.529411764705882,1.702335,48,17,2,46,1,"beforeCP",1,"hoe.jpg",1,3,"right",1.21291,1
"365",3,"m2",4,"Outdoor activity & sport item","Outdoor activity & sport item",1,0.685714285714286,0.685714285714286,0.833333333333333,0.77373,49,18,2,47,1,"beforeCP",1,"kiddiepool.jpg",1,4,NA,1.23194,NA
"366",3,"m5",1,"Hand labour tool & accessory","Hand labour tool & accessory",1,0.694444444444444,0.694444444444444,0.555555555555556,1.129795,50,18,2,48,1,"beforeCP",1,"paintroller01.jpg",1,4,NA,1.333225,NA
"367",3,"m5",2,"Hand labour tool & accessory","Kitchen & utensil",0,0.675675675675676,0,0,0.91316,51,1,3,1,0,"afterCP",1,"pitcher02b.jpg",1,4,"left",0.94209,0
"368",3,"m5",2,"Kitchen & utensil","Kitchen & utensil",1,0.684210526315789,0.5,0.5,1.12259,52,2,3,2,0,"afterCP",1,"coffeepot03a.jpg",1,2,NA,2.46308,NA
"369",3,"m5",2,"Outdoor activity & sport item","Kitchen & utensil",0,0.666666666666667,0.333333333333333,0.333333333333333,1.531115,53,3,3,4,0,"afterCP",1,"measuringcup01.jpg",0,1,"left",1.756475,0
"370",3,"m2",3,"Outdoor activity & sport item","Electronic device & accessory",0,0.65,0.25,0,2.133165,54,1,3,5,0,"afterCP",1,"telephone01b.jpg",1,3,"left",1.095455,1
"371",3,"m5",2,"Kitchen & utensil","Kitchen & utensil",1,0.658536585365854,0.4,0.5,0.54658,55,4,3,6,0,"afterCP",1,"peeler01.jpg",1,4,NA,2.220365,NA
"372",3,"m2",1,"Electronic device & accessory","Electronic device & accessory",1,0.666666666666667,0.5,0.5,0.925055,56,2,3,7,0,"afterCP",1,"atm.jpg",1,4,"right",1.076335,0
"373",3,"m5",3,"Kitchen & utensil","Kitchen & utensil",1,0.674418604651163,0.571428571428571,0.6,0.76281,57,5,3,8,0,"beforeCP",1,"bottlecap.jpg",1,4,NA,1.026215,NA
"374",3,"m5",3,"Kitchen & utensil","Kitchen & utensil",1,0.681818181818182,0.625,0.666666666666667,1.698295,58,6,3,10,0,"beforeCP",1,"waterbottle03.jpg",0,4,NA,1.24993,NA
"375",3,"m2",1,"Outdoor activity & sport item","Electronic device & accessory",0,0.666666666666667,0.555555555555556,0.333333333333333,0.96705,59,3,3,12,0,"beforeCP",1,"lamp04a.jpg",1,4,NA,1.035,NA
"376",3,"m2",4,"Electronic device & accessory","Electronic device & accessory",1,0.673913043478261,0.6,0.5,2.296315,60,4,3,13,0,"beforeCP",1,"usbkey.jpg",1,4,"right",2.6417,0
"377",3,"m2",4,"Electronic device & accessory","Electronic device & accessory",1,0.680851063829787,0.636363636363636,0.6,0.689575,61,5,3,15,0,"beforeCP",1,"photocopier.jpg",1,4,"right",1.225645,0
"378",3,"m2",4,"Electronic device & accessory","Electronic device & accessory",1,0.6875,0.666666666666667,0.666666666666667,0.880135,62,6,3,16,0,"beforeCP",1,"fluorescentlightbulb.jpg",1,2,"left",1.520595,1
"379",3,"m2",3,"Hand labour tool & accessory","Electronic device & accessory",0,0.673469387755102,0.615384615384615,0.571428571428571,1.16707,63,7,3,18,0,"beforeCP",1,"djmixer02.jpg",0,2,"left",1.57179,1
"380",3,"m5",4,"Kitchen & utensil","Kitchen & utensil",1,0.68,0.642857142857143,0.714285714285714,1.48478,64,7,3,19,0,"beforeCP",1,"spoon01.jpg",1,1,"left",1.545395,0
"381",3,"m2",4,"Electronic device & accessory","Electronic device & accessory",1,0.686274509803922,0.666666666666667,0.625,1.83692,65,8,3,20,0,"beforeCP",1,"headphones02b.jpg",1,3,"left",1.12584,1
"382",3,"m2",4,"Outdoor activity & sport item","Electronic device & accessory",0,0.673076923076923,0.625,0.555555555555556,2.024765,66,9,3,21,0,"beforeCP",1,"ethernetcable02.jpg",1,3,"right",1.02205,0
"383",3,"m5",2,"Kitchen & utensil","Kitchen & utensil",1,0.679245283018868,0.647058823529412,0.75,0.877755,67,8,3,22,0,"beforeCP",1,"spatula04.jpg",1,4,"right",1.426555,1
"384",3,"m5",4,"Kitchen & utensil","Kitchen & utensil",1,0.685185185185185,0.666666666666667,0.777777777777778,1.510805,68,9,3,23,0,"beforeCP",1,"corkscrew03a.jpg",1,4,"left",0.974055,0
"385",3,"m2",1,"Electronic device & accessory","Electronic device & accessory",1,0.690909090909091,0.684210526315789,0.6,0.78926,69,10,3,24,0,"beforeCP",1,"phonejack.jpg",1,4,NA,1.10048,NA
"386",3,"m5",4,"Kitchen & utensil","Kitchen & utensil",1,0.696428571428571,0.7,0.8,0.493385,70,10,3,25,1,"beforeCP",1,"dishrack.jpg",1,4,"right",1.314725,1
"387",3,"m2",4,"Kitchen & utensil","Electronic device & accessory",0,0.684210526315789,0.666666666666667,0.545454545454545,0.900395,71,11,3,27,1,"beforeCP",1,"fanblades.jpg",1,4,NA,1.44559,NA
"388",3,"m2",4,"Electronic device & accessory","Electronic device & accessory",1,0.689655172413793,0.681818181818182,0.583333333333333,1.25436,72,12,3,28,1,"beforeCP",1,"chandelier.jpg",1,4,"left",1.75307,1
"389",3,"m5",1,"Electronic device & accessory","Kitchen & utensil",0,0.677966101694915,0.652173913043478,0.727272727272727,0.96294,73,11,3,31,1,"beforeCP",1,"tupperware03a.jpg",1,3,"left",1.17849,0
"390",3,"m2",1,"Electronic device & accessory","Electronic device & accessory",1,0.683333333333333,0.666666666666667,0.615384615384615,1.067085,74,13,3,32,1,"beforeCP",1,"scanner.jpg",0,1,NA,6.054765,NA
"391",3,"m5",1,"Kitchen & utensil","Kitchen & utensil",1,0.688524590163934,0.68,0.75,0.704415,75,12,3,34,1,"beforeCP",1,"saladspinner.jpg",0,2,NA,1.5528,NA
"392",3,"m5",2,"Kitchen & utensil","Kitchen & utensil",1,0.693548387096774,0.692307692307692,0.769230769230769,0.66292,76,13,3,35,1,"beforeCP",1,"cleaver01.jpg",1,4,"left",0.979395,0
"393",3,"m2",1,"Electronic device & accessory","Electronic device & accessory",1,0.698412698412698,0.703703703703704,0.642857142857143,1.00867,77,14,3,36,1,"beforeCP",1,"dvdcase01.jpg",1,4,"right",1.33446,0
"394",3,"m5",2,"Kitchen & utensil","Kitchen & utensil",1,0.703125,0.714285714285714,0.785714285714286,0.635445,78,14,3,37,1,"beforeCP",1,"cork02.jpg",1,4,NA,1.12988,NA
"395",3,"m5",4,"Hand labour tool & accessory","Kitchen & utensil",0,0.692307692307692,0.689655172413793,0.733333333333333,1.167065,79,15,3,38,1,"beforeCP",1,"contactlens.jpg",0,1,NA,1.99987,NA
"396",3,"m5",4,"Kitchen & utensil","Kitchen & utensil",1,0.696969696969697,0.7,0.75,1.319205,80,16,3,39,1,"beforeCP",1,"martiniglass01b.jpg",1,4,"right",1.450345,1
"397",3,"m5",2,"Kitchen & utensil","Kitchen & utensil",1,0.701492537313433,0.709677419354839,0.764705882352941,1.181,81,17,3,40,1,"beforeCP",1,"toothpick02.jpg",0,4,NA,1.15308,NA
"398",3,"m2",3,"Electronic device & accessory","Electronic device & accessory",1,0.705882352941176,0.71875,0.666666666666667,1.11298,82,15,3,42,1,"beforeCP",1,"videocamera01a.jpg",0,1,"left",3.62573,1
"399",3,"m2",4,"Electronic device & accessory","Electronic device & accessory",1,0.710144927536232,0.727272727272727,0.6875,1.33731,83,16,3,43,1,"beforeCP",1,"computerkeyboard02.jpg",1,3,"left",1.229735,1
"400",3,"m2",1,"Electronic device & accessory","Electronic device & accessory",1,0.714285714285714,0.735294117647059,0.705882352941176,1.19691,84,17,3,44,1,"beforeCP",1,"coffeemachine.jpg",1,2,"left",1.187235,1
"401",3,"m5",4,"Outdoor activity & sport item","Kitchen & utensil",0,0.704225352112676,0.714285714285714,0.722222222222222,1.122625,85,18,3,45,1,"beforeCP",1,"thermos.jpg",1,1,"left",2.333415,0
"402",3,"m2",2,"Outdoor activity & sport item","Electronic device & accessory",0,0.694444444444444,0.694444444444444,0.666666666666667,1.28573,86,18,3,48,1,"beforeCP",1,"fan.jpg",1,4,"left",1.160095,1
"403",3,"m2",1,"Outdoor activity & sport item","Kitchen & utensil",0,0.684931506849315,0,0,1.325165,87,1,4,2,0,"afterCP",1,"spicerack.jpg",1,4,NA,0.93724,NA
"404",3,"m2",4,"Kitchen & utensil","Kitchen & utensil",1,0.689189189189189,0.5,0.5,1.002485,88,2,4,3,0,"afterCP",1,"towel01.jpg",1,4,"left",1.07887,1
"405",3,"m2",2,"Kitchen & utensil","Kitchen & utensil",1,0.693333333333333,0.666666666666667,0.666666666666667,0.77463,89,3,4,4,0,"beforeCP",1,"shotglass.jpg",1,4,NA,1.62504,NA
"406",3,"m2",1,"Kitchen & utensil","Kitchen & utensil",1,0.697368421052632,0.75,0.75,0.8515,90,4,4,5,0,"beforeCP",1,"servingspoon01.jpg",0,1,NA,1.298435,NA
"407",3,"m5",4,"Electronic device & accessory","Hand labour tool & accessory",0,0.688311688311688,0.6,0,1.38383,91,1,4,6,0,"beforeCP",1,"boltcutter.jpg",0,1,NA,1.824075,NA
"408",3,"m5",2,"Hand labour tool & accessory","Hand labour tool & accessory",1,0.692307692307692,0.666666666666667,0.5,0.78031,92,2,4,7,0,"beforeCP",1,"aircompressor.jpg",1,1,NA,2.086105,NA
"409",3,"m2",3,"Kitchen & utensil","Kitchen & utensil",1,0.69620253164557,0.714285714285714,0.8,1.47571,93,5,4,9,0,"beforeCP",1,"aluminiumfoil.jpg",1,4,"right",1.147145,0
"410",3,"m2",1,"Electronic device & accessory","Kitchen & utensil",0,0.6875,0.625,0.666666666666667,0.84167,94,6,4,11,0,"beforeCP",1,"butterknife.jpg",1,4,"right",1.3894,0
"411",3,"m5",2,"Electronic device & accessory","Hand labour tool & accessory",0,0.679012345679012,0.555555555555556,0.333333333333333,0.596145,95,3,4,12,0,"beforeCP",1,"gardenshears01a.jpg",0,1,NA,1.144495,NA
"412",3,"m5",3,"Outdoor activity & sport item","Hand labour tool & accessory",0,0.670731707317073,0.5,0.25,0.518695,96,4,4,13,0,"afterCP",1,"metalbrush.jpg",0,1,"left",1.276875,0
"413",3,"m5",3,"Hand labour tool & accessory","Hand labour tool & accessory",1,0.674698795180723,0.545454545454545,0.4,1.084125,97,5,4,14,0,"afterCP",1,"puttyknife.jpg",1,4,"right",0.841365,1
"414",3,"m5",3,"Outdoor activity & sport item","Hand labour tool & accessory",0,0.666666666666667,0.5,0.333333333333333,0.53622,98,6,4,17,0,"afterCP",1,"lawnmower.jpg",1,3,NA,1.46089,NA
"415",3,"m2",2,"Hand labour tool & accessory","Kitchen & utensil",0,0.658823529411765,0.461538461538462,0.571428571428571,1.30006,99,7,4,19,0,"afterCP",1,"watercooler.jpg",1,4,"left",1.388895,1
"416",3,"m5",2,"Outdoor activity & sport item","Hand labour tool & accessory",0,0.651162790697674,0.428571428571429,0.285714285714286,1.18205,100,7,4,20,0,"afterCP",1,"painttray.jpg",1,4,NA,1.46428,NA
"417",3,"m5",1,"Kitchen & utensil","Hand labour tool & accessory",0,0.64367816091954,0.4,0.25,0.7527,101,8,4,21,0,"afterCP",1,"gastank.jpg",0,3,NA,1.38209,NA
"418",3,"m5",3,"Kitchen & utensil","Hand labour tool & accessory",0,0.636363636363636,0.375,0.222222222222222,1.179985,102,9,4,22,0,"afterCP",1,"wateringcan.jpg",1,4,"left",1.17199,0
"419",3,"m5",2,"Outdoor activity & sport item","Hand labour tool & accessory",0,0.629213483146067,0.352941176470588,0.2,1.016765,103,10,4,23,0,"afterCP",1,"ladder.jpg",1,4,NA,1.009095,NA
"420",3,"m2",3,"Hand labour tool & accessory","Kitchen & utensil",0,0.622222222222222,0.333333333333333,0.5,1.45198,104,8,4,24,0,"afterCP",1,"cowbell.jpg",0,2,NA,1.342535,NA
"421",3,"m5",2,"Outdoor activity & sport item","Hand labour tool & accessory",0,0.615384615384615,0.315789473684211,0.181818181818182,0.637375,105,11,4,25,1,"afterCP",1,"squeegee01b.jpg",1,3,"right",2.12529,1
"422",3,"m2",1,"Outdoor activity & sport item","Kitchen & utensil",0,0.608695652173913,0.3,0.444444444444444,0.87372,106,9,4,28,1,"afterCP",1,"rollingpin01a.jpg",1,2,NA,3.081895,NA
"423",3,"m5",4,"Kitchen & utensil","Hand labour tool & accessory",0,0.602150537634409,0.285714285714286,0.166666666666667,1.522815,107,12,4,29,1,"afterCP",1,"stubbywrench01a.jpg",1,4,"left",1.76026,0
"424",3,"m2",2,"Outdoor activity & sport item","Kitchen & utensil",0,0.595744680851064,0.272727272727273,0.4,1.0107,108,10,4,31,1,"afterCP",1,"gasburner.jpg",1,2,"right",1.795005,0
"425",3,"m2",2,"Kitchen & utensil","Kitchen & utensil",1,0.6,0.304347826086957,0.454545454545455,1.263095,109,11,4,32,1,"afterCP",1,"canister.jpg",1,4,"right",1.100245,0
"426",3,"m5",3,"Hand labour tool & accessory","Hand labour tool & accessory",1,0.604166666666667,0.333333333333333,0.230769230769231,1.249005,110,13,4,33,1,"afterCP",1,"flooringstapler.jpg",1,4,"left",2.470065,0
"427",3,"m5",2,"Hand labour tool & accessory","Hand labour tool & accessory",1,0.608247422680412,0.36,0.285714285714286,0.615315,111,14,4,34,1,"afterCP",1,"caulking.jpg",1,4,NA,1.72918,NA
"428",3,"m2",1,"Kitchen & utensil","Kitchen & utensil",1,0.612244897959184,0.384615384615385,0.5,0.94803,112,12,4,35,1,"afterCP",1,"oven.jpg",1,4,NA,1.09122,NA
"429",3,"m2",3,"Kitchen & utensil","Kitchen & utensil",1,0.616161616161616,0.407407407407407,0.538461538461539,1.26617,113,13,4,36,1,"afterCP",1,"bowl02a.jpg",1,4,"left",0.84987,1
"430",3,"m2",3,"Kitchen & utensil","Kitchen & utensil",1,0.62,0.428571428571429,0.571428571428571,0.94099,114,14,4,37,1,"afterCP",1,"breadknife.jpg",1,4,"left",1.04692,1
"431",3,"m2",4,"Kitchen & utensil","Kitchen & utensil",1,0.623762376237624,0.448275862068966,0.6,0.92868,115,15,4,38,1,"afterCP",1,"hourglass.jpg",1,3,"right",0.960485,0
"432",3,"m5",1,"Hand labour tool & accessory","Hand labour tool & accessory",1,0.627450980392157,0.466666666666667,0.333333333333333,0.90364,116,15,4,39,1,"afterCP",1,"mallet01b.jpg",1,4,"left",1.05605,0
"433",3,"m5",1,"Hand labour tool & accessory","Hand labour tool & accessory",1,0.631067961165048,0.483870967741935,0.375,0.662385,117,16,4,40,1,"afterCP",1,"pressurewasher.jpg",1,3,"right",1.305395,1
"434",3,"m2",1,"Kitchen & utensil","Kitchen & utensil",1,0.634615384615385,0.5,0.625,1.41862,118,16,4,41,1,"afterCP",1,"potatomasher03b.jpg",1,4,"right",0.979535,0
"435",3,"m2",3,"Kitchen & utensil","Kitchen & utensil",1,0.638095238095238,0.515151515151515,0.647058823529412,1.380335,119,17,4,43,1,"afterCP",1,"pot01.jpg",1,4,"left",1.07517,1
"436",3,"m5",2,"Hand labour tool & accessory","Hand labour tool & accessory",1,0.641509433962264,0.529411764705882,0.411764705882353,0.81116,120,17,4,45,1,"afterCP",1,"bucket02.jpg",1,4,NA,0.941145,NA
"437",3,"m5",3,"Outdoor activity & sport item","Hand labour tool & accessory",0,0.635514018691589,0.514285714285714,0.388888888888889,1.149695,121,18,4,46,1,"afterCP",1,"snowblower.jpg",1,4,"right",1.52155,1
"438",3,"m2",1,"Outdoor activity & sport item","Kitchen & utensil",0,0.62962962962963,0.5,0.611111111111111,2.10527,122,18,4,47,1,"afterCP",1,"travelmug.jpg",1,1,NA,1.66905,NA
"439",3,"m2",3,"Electronic device & accessory","Outdoor activity & sport item",0,0.623853211009174,0,0,0.876585,123,1,5,1,0,"afterCP",1,"bikewheel.jpg",0,1,"left",1.614895,1
"440",3,"m2",1,"Electronic device & accessory","Outdoor activity & sport item",0,0.618181818181818,0,0,0.900055,124,2,5,3,0,"afterCP",1,"patioumbrella.jpg",0,1,NA,2.330665,NA
"441",3,"m2",2,"Outdoor activity & sport item","Outdoor activity & sport item",1,0.621621621621622,0.333333333333333,0.333333333333333,0.75402,125,3,5,4,0,"afterCP",1,"exercisebike.jpg",1,4,"left",1.39179,1
"442",3,"m5",4,"Hand labour tool & accessory","Electronic device & accessory",0,0.616071428571428,0.25,0,1.414475,126,1,5,5,0,"afterCP",1,"crocodileclips.jpg",1,4,"left",1.39697,0
"443",3,"m5",4,"Electronic device & accessory","Electronic device & accessory",1,0.619469026548673,0.4,0.5,0.848265,127,2,5,8,0,"afterCP",1,"ipad02.jpg",1,4,NA,1.162895,NA
"444",3,"m2",3,"Hand labour tool & accessory","Outdoor activity & sport item",0,0.614035087719298,0.333333333333333,0.25,0.54692,128,4,5,9,0,"afterCP",1,"snowboard.jpg",1,4,"left",0.99736,1
"445",3,"m2",4,"Hand labour tool & accessory","Outdoor activity & sport item",0,0.608695652173913,0.285714285714286,0.2,2.62976,129,5,5,10,0,"afterCP",1,"boatmotor.jpg",0,2,NA,1.19267,NA
"446",3,"m5",1,"Outdoor activity & sport item","Electronic device & accessory",0,0.603448275862069,0.25,0.333333333333333,1.01384,130,3,5,11,0,"afterCP",1,"desktopcomputer.jpg",1,4,NA,3.67686,NA
"447",3,"m5",3,"Electronic device & accessory","Electronic device & accessory",1,0.606837606837607,0.333333333333333,0.5,1.00463,131,4,5,13,0,"afterCP",1,"electricoutlet.jpg",1,4,NA,1.142845,NA
"448",3,"m2",1,"Kitchen & utensil","Outdoor activity & sport item",0,0.601694915254237,0.3,0.166666666666667,0.771105,132,6,5,14,0,"afterCP",1,"soccerball.jpg",1,1,"right",1.02365,0
"449",3,"m5",1,"Electronic device & accessory","Electronic device & accessory",1,0.605042016806723,0.363636363636364,0.6,2.49224,133,5,5,15,0,"afterCP",1,"carantenna.jpg",1,4,"right",0.98801,1
"450",3,"m2",4,"Outdoor activity & sport item","Outdoor activity & sport item",1,0.608333333333333,0.416666666666667,0.285714285714286,0.863625,134,7,5,16,0,"afterCP",1,"reflector.jpg",1,4,"right",2.30055,0
"451",3,"m5",4,"Outdoor activity & sport item","Electronic device & accessory",0,0.603305785123967,0.384615384615385,0.5,0.880875,135,6,5,17,0,"afterCP",1,"slidetray.jpg",1,4,NA,1.33716,NA
"452",3,"m2",1,"Outdoor activity & sport item","Outdoor activity & sport item",1,0.60655737704918,0.428571428571429,0.375,1.51401,136,8,5,18,0,"afterCP",1,"iceskate.jpg",1,2,NA,0.992115,NA
"453",3,"m2",3,"Outdoor activity & sport item","Outdoor activity & sport item",1,0.609756097560976,0.466666666666667,0.444444444444444,0.945195,137,9,5,19,0,"afterCP",1,"toyhockeystick01.jpg",1,3,"left",1.03463,1
"454",3,"m2",4,"Kitchen & utensil","Outdoor activity & sport item",0,0.604838709677419,0.4375,0.4,1.337835,138,10,5,20,0,"afterCP",1,"swimgoggles.jpg",0,1,NA,2.35895,NA
"455",3,"m2",2,"Outdoor activity & sport item","Outdoor activity & sport item",1,0.608,0.470588235294118,0.454545454545455,0.90055,139,11,5,21,0,"afterCP",1,"surfboard.jpg",1,1,NA,1.458615,NA
"456",3,"m2",1,"Outdoor activity & sport item","Outdoor activity & sport item",1,0.611111111111111,0.5,0.5,1.291435,140,12,5,23,0,"afterCP",1,"propanetank01.jpg",1,1,"left",3.06905,1
"457",3,"m5",1,"Outdoor activity & sport item","Electronic device & accessory",0,0.606299212598425,0.473684210526316,0.428571428571429,0.88072,141,7,5,26,1,"afterCP",1,"outletadapter.jpg",1,2,NA,1.57526,NA
"458",3,"m5",4,"Electronic device & accessory","Electronic device & accessory",1,0.609375,0.5,0.5,1.11208,142,8,5,28,1,"afterCP",1,"dvdplayer.jpg",1,4,"left",3.88105,0
"459",3,"m5",3,"Outdoor activity & sport item","Electronic device & accessory",0,0.604651162790698,0.476190476190476,0.444444444444444,0.83332,143,9,5,31,1,"afterCP",1,"filmnegative.jpg",1,4,"left",0.926165,0
"460",3,"m5",4,"Electronic device & accessory","Electronic device & accessory",1,0.607692307692308,0.5,0.5,1.037695,144,10,5,32,1,"afterCP",1,"wire.jpg",1,4,NA,1.487095,NA
"461",3,"m5",3,"Electronic device & accessory","Electronic device & accessory",1,0.610687022900763,0.521739130434783,0.545454545454545,0.898495,145,11,5,33,1,"afterCP",1,"gps.jpg",1,2,"right",2.57818,1
"462",3,"m5",4,"Electronic device & accessory","Electronic device & accessory",1,0.613636363636364,0.541666666666667,0.583333333333333,0.651545,146,12,5,34,1,"afterCP",1,"satellitedish01.jpg",1,4,"left",1.7785,0
"463",3,"m5",3,"Electronic device & accessory","Electronic device & accessory",1,0.616541353383459,0.56,0.615384615384615,1.150915,147,13,5,35,1,"beforeCP",1,"extensioncord.jpg",1,3,"left",1.642425,0
"464",3,"m2",1,"Kitchen & utensil","Outdoor activity & sport item",0,0.611940298507463,0.538461538461539,0.461538461538462,0.768145,148,13,5,36,1,"afterCP",1,"bikehelmet.jpg",0,1,"right",1.5935,0
"465",3,"m5",3,"Electronic device & accessory","Electronic device & accessory",1,0.614814814814815,0.555555555555556,0.642857142857143,1.61326,149,14,5,37,1,"beforeCP",1,"airconditioner.jpg",1,4,NA,1.698505,NA
"466",3,"m2",3,"Outdoor activity & sport item","Outdoor activity & sport item",1,0.617647058823529,0.571428571428571,0.5,1.107355,150,14,5,38,1,"beforeCP",1,"anchor.jpg",1,3,"left",0.851925,1
"467",3,"m5",3,"Electronic device & accessory","Electronic device & accessory",1,0.62043795620438,0.586206896551724,0.666666666666667,0.70062,151,15,5,39,1,"beforeCP",1,"lectern01.jpg",1,4,"left",1.118185,0
"468",3,"m2",2,"Outdoor activity & sport item","Outdoor activity & sport item",1,0.623188405797101,0.6,0.533333333333333,1.63722,152,15,5,40,1,"beforeCP",1,"fishingrod.jpg",1,4,"left",0.714655,1
"469",3,"m2",1,"Outdoor activity & sport item","Outdoor activity & sport item",1,0.62589928057554,0.612903225806452,0.5625,0.97462,153,16,5,41,1,"beforeCP",1,"sportbag.jpg",1,4,"left",0.70881,1
"470",3,"m2",2,"Outdoor activity & sport item","Outdoor activity & sport item",1,0.628571428571429,0.625,0.588235294117647,0.57984,154,17,5,42,1,"beforeCP",1,"baseballglove.jpg",1,4,"right",1.59242,0
"471",3,"m5",1,"Electronic device & accessory","Electronic device & accessory",1,0.631205673758865,0.636363636363636,0.6875,1.502845,155,16,5,43,1,"beforeCP",1,"expansioncard.jpg",1,3,NA,10.16619,NA
"472",3,"m2",4,"Outdoor activity & sport item","Outdoor activity & sport item",1,0.633802816901408,0.647058823529412,0.611111111111111,1.18197,156,18,5,44,1,"beforeCP",1,"bikelock.jpg",1,4,"left",1.145825,1
"473",3,"m5",1,"Electronic device & accessory","Electronic device & accessory",1,0.636363636363636,0.657142857142857,0.705882352941176,0.689655,157,17,5,45,1,"beforeCP",1,"securitycamera.jpg",1,4,NA,1.195435,NA
"474",3,"m5",4,"Electronic device & accessory","Electronic device & accessory",1,0.638888888888889,0.666666666666667,0.722222222222222,1.446445,158,18,5,46,1,"beforeCP",1,"papershredder.jpg",1,4,NA,1.59608,NA
"489",4,"m2",1,"Kitchen & utensil","Outdoor activity & sport item",0,0,0,0,0.6688,15,1,2,2,0,"afterCP",1,"ellipticalmachine.jpg",1,3,NA,1.257655,NA
"490",4,"m5",2,"Hand labour tool & accessory","Hand labour tool & accessory",1,0.5,0.5,1,0.50499,16,1,2,4,0,"afterCP",1,"rope03.jpg",1,3,"right",1.64769,1
"491",4,"m2",2,"Electronic device & accessory","Outdoor activity & sport item",0,0.333333333333333,0.333333333333333,0,0.788275,17,2,2,6,0,"afterCP",1,"sportbag.jpg",0,2,NA,1.22752,NA
"492",4,"m2",1,"Outdoor activity & sport item","Outdoor activity & sport item",1,0.5,0.5,0.333333333333333,1.16198,18,3,2,9,0,"afterCP",1,"toyhockeystick01.jpg",1,2,"right",1.84524,0
"493",4,"m2",4,"Outdoor activity & sport item","Outdoor activity & sport item",1,0.6,0.6,0.5,1.09289,19,4,2,10,0,"beforeCP",1,"fishinghook03.jpg",1,3,NA,1.14723,NA
"494",4,"m2",2,"Outdoor activity & sport item","Outdoor activity & sport item",1,0.666666666666667,0.666666666666667,0.6,0.71017,20,5,2,11,0,"beforeCP",1,"volleyball.jpg",1,2,"left",1.2763,1
"495",4,"m5",1,"Electronic device & accessory","Hand labour tool & accessory",0,0.571428571428571,0.571428571428571,0.5,0.737,21,2,2,12,0,"beforeCP",1,"gluetube.jpg",1,3,NA,1.115385,NA
"496",4,"m5",4,"Electronic device & accessory","Hand labour tool & accessory",0,0.5,0.5,0.333333333333333,1.15938,22,3,2,13,0,"afterCP",1,"toyhardhat.jpg",1,3,"left",1.41555,0
"497",4,"m2",2,"Outdoor activity & sport item","Outdoor activity & sport item",1,0.555555555555556,0.555555555555556,0.666666666666667,0.42521,23,6,2,14,0,"beforeCP",1,"cooler01.jpg",0,2,"left",2.546455,1
"498",4,"m5",3,"Hand labour tool & accessory","Hand labour tool & accessory",1,0.6,0.6,0.5,0.90211,24,4,2,17,0,"beforeCP",1,"saw02b.jpg",0,2,NA,2.43936,NA
"499",4,"m2",2,"Outdoor activity & sport item","Outdoor activity & sport item",1,0.636363636363636,0.636363636363636,0.714285714285714,0.765545,25,7,2,19,0,"beforeCP",1,"canoepaddle02.jpg",1,1,NA,1.260775,NA
"500",4,"m5",1,"Hand labour tool & accessory","Hand labour tool & accessory",1,0.666666666666667,0.666666666666667,0.6,0.72221,26,5,2,20,0,"beforeCP",1,"snowshovel.jpg",1,4,"left",1.49109,0
"501",4,"m2",3,"Outdoor activity & sport item","Outdoor activity & sport item",1,0.692307692307692,0.692307692307692,0.75,0.86593,27,8,2,21,0,"beforeCP",1,"surfboard.jpg",1,2,"left",1.40775,1
"502",4,"m5",3,"Outdoor activity & sport item","Hand labour tool & accessory",0,0.642857142857143,0.642857142857143,0.5,1.94954,28,6,2,22,0,"beforeCP",1,"chainsaw.jpg",1,3,NA,0.962945,NA
"503",4,"m2",4,"Outdoor activity & sport item","Outdoor activity & sport item",1,0.666666666666667,0.666666666666667,0.777777777777778,0.549295,29,9,2,23,0,"beforeCP",1,"bikelock.jpg",1,3,NA,2.38035,NA
"504",4,"m5",3,"Hand labour tool & accessory","Hand labour tool & accessory",1,0.6875,0.6875,0.571428571428571,0.56509,30,7,2,24,0,"beforeCP",1,"lawnmower.jpg",1,2,NA,0.9743,NA
"505",4,"m5",1,"Hand labour tool & accessory","Hand labour tool & accessory",1,0.705882352941176,0.705882352941176,0.625,2.50725,31,8,2,26,1,"beforeCP",1,"adjustablewrench01b.jpg",1,1,NA,1.77624,NA
"506",4,"m5",2,"Hand labour tool & accessory","Hand labour tool & accessory",1,0.722222222222222,0.722222222222222,0.666666666666667,0.86563,32,9,2,27,1,"beforeCP",1,"boltcutter.jpg",0,3,NA,1.12865,NA
"507",4,"m2",4,"Outdoor activity & sport item","Outdoor activity & sport item",1,0.736842105263158,0.736842105263158,0.8,0.71674,33,10,2,28,1,"beforeCP",1,"fishingrod.jpg",1,1,NA,1.30628,NA
"508",4,"m2",3,"Outdoor activity & sport item","Outdoor activity & sport item",1,0.75,0.75,0.818181818181818,0.875725,34,11,2,29,1,"beforeCP",1,"swimgoggles.jpg",1,4,"right",1.528075,0
"509",4,"m2",2,"Outdoor activity & sport item","Outdoor activity & sport item",1,0.761904761904762,0.761904761904762,0.833333333333333,0.628855,35,12,2,30,1,"beforeCP",1,"outdoorheater.jpg",1,3,NA,1.29214,NA
"510",4,"m5",4,"Hand labour tool & accessory","Hand labour tool & accessory",1,0.772727272727273,0.772727272727273,0.7,1.57562,36,10,2,31,1,"beforeCP",1,"aircompressor.jpg",1,3,"left",2.53139,0
"511",4,"m5",3,"Outdoor activity & sport item","Hand labour tool & accessory",0,0.739130434782609,0.739130434782609,0.636363636363636,0.68313,37,11,2,32,1,"beforeCP",1,"flooringstapler.jpg",1,3,"left",3.57688,0
"512",4,"m5",2,"Hand labour tool & accessory","Hand labour tool & accessory",1,0.75,0.75,0.666666666666667,1.079315,38,12,2,34,1,"beforeCP",1,"sledgehammer.jpg",1,1,NA,1.153655,NA
"513",4,"m5",2,"Hand labour tool & accessory","Hand labour tool & accessory",1,0.76,0.76,0.692307692307692,0.542045,39,13,2,35,1,"beforeCP",1,"mallet01b.jpg",1,2,"left",1.29592,0
"514",4,"m2",1,"Outdoor activity & sport item","Outdoor activity & sport item",1,0.769230769230769,0.769230769230769,0.846153846153846,0.79362,40,13,2,37,1,"beforeCP",1,"badmintonracket.jpg",1,3,"right",1.195735,0
"515",4,"m2",2,"Outdoor activity & sport item","Outdoor activity & sport item",1,0.777777777777778,0.777777777777778,0.857142857142857,0.496315,41,14,2,38,1,"beforeCP",1,"propanetank01.jpg",0,3,NA,0.862805,NA
"516",4,"m2",1,"Outdoor activity & sport item","Outdoor activity & sport item",1,0.785714285714286,0.785714285714286,0.866666666666667,0.809205,42,15,2,39,1,"beforeCP",1,"exercisebike.jpg",0,3,NA,1.041915,NA
"517",4,"m2",2,"Outdoor activity & sport item","Outdoor activity & sport item",1,0.793103448275862,0.793103448275862,0.875,0.67547,43,16,2,40,1,"beforeCP",1,"weight01.jpg",1,3,NA,1.376435,NA
"518",4,"m5",4,"Hand labour tool & accessory","Hand labour tool & accessory",1,0.8,0.8,0.714285714285714,0.70326,44,14,2,41,1,"beforeCP",1,"puttyknife.jpg",1,3,"left",1.270275,0
"519",4,"m5",2,"Hand labour tool & accessory","Hand labour tool & accessory",1,0.806451612903226,0.806451612903226,0.733333333333333,0.53297,45,15,2,43,1,"beforeCP",1,"bungeecord02.jpg",1,3,"left",1.513065,0
"520",4,"m2",3,"Outdoor activity & sport item","Outdoor activity & sport item",1,0.8125,0.8125,0.882352941176471,1.41856,46,17,2,44,1,"beforeCP",1,"patioumbrella.jpg",0,2,NA,1.34661,NA
"521",4,"m5",4,"Hand labour tool & accessory","Hand labour tool & accessory",1,0.818181818181818,0.818181818181818,0.75,1.12866,47,16,2,45,1,"beforeCP",1,"wateringcan.jpg",1,3,NA,0.96282,NA
"522",4,"m5",2,"Hand labour tool & accessory","Hand labour tool & accessory",1,0.823529411764706,0.823529411764706,0.764705882352941,1.741555,48,17,2,46,1,"beforeCP",1,"bucket02.jpg",1,2,"left",1.780515,0
"523",4,"m2",4,"Outdoor activity & sport item","Outdoor activity & sport item",1,0.828571428571429,0.828571428571429,0.888888888888889,1.55319,49,18,2,47,1,"beforeCP",1,"soccerball.jpg",1,2,NA,1.037145,NA
"524",4,"m5",1,"Hand labour tool & accessory","Hand labour tool & accessory",1,0.833333333333333,0.833333333333333,0.777777777777778,1.266995,50,18,2,48,1,"beforeCP",1,"wheel01.jpg",1,3,NA,1.201665,NA
"525",4,"m5",2,"Hand labour tool & accessory","Kitchen & utensil",0,0.810810810810811,0,0,2.292055,51,1,3,1,0,"afterCP",1,"measuringcup01.jpg",0,1,NA,2.790455,NA
"526",4,"m5",4,"Hand labour tool & accessory","Kitchen & utensil",0,0.789473684210526,0,0,1.523125,52,2,3,2,0,"afterCP",1,"watercooler.jpg",1,3,NA,1.3046,NA
"527",4,"m5",3,"Hand labour tool & accessory","Kitchen & utensil",0,0.769230769230769,0,0,0.98658,53,3,3,4,0,"afterCP",1,"cowbell.jpg",1,2,"left",1.97931,0
"528",4,"m2",3,"Outdoor activity & sport item","Electronic device & accessory",0,0.75,0,0,0.81731,54,1,3,5,0,"afterCP",1,"videocamera01a.jpg",0,2,"right",1.33728,0
"529",4,"m5",1,"Hand labour tool & accessory","Kitchen & utensil",0,0.731707317073171,0,0,0.747935,55,4,3,6,0,"afterCP",1,"shotglass.jpg",1,2,NA,1.558685,NA
"530",4,"m2",4,"Outdoor activity & sport item","Electronic device & accessory",0,0.714285714285714,0,0,0.92764,56,2,3,7,0,"afterCP",1,"atm.jpg",1,4,"right",1.29797,0
"531",4,"m5",2,"Hand labour tool & accessory","Kitchen & utensil",0,0.697674418604651,0,0,1.506985,57,5,3,8,0,"afterCP",1,"handmixer01d.jpg",1,3,NA,1.268155,NA
"532",4,"m5",3,"Kitchen & utensil","Kitchen & utensil",1,0.704545454545455,0.125,0.166666666666667,0.896715,58,6,3,10,0,"afterCP",1,"coffeepot03a.jpg",0,2,NA,1.266795,NA
"533",4,"m2",1,"Outdoor activity & sport item","Electronic device & accessory",0,0.688888888888889,0.111111111111111,0,1.122465,59,3,3,12,0,"afterCP",1,"fan.jpg",1,3,NA,0.896915,NA
"534",4,"m2",4,"Electronic device & accessory","Electronic device & accessory",1,0.695652173913043,0.2,0.25,0.839655,60,4,3,13,0,"afterCP",1,"extensioncord.jpg",1,3,NA,1.04626,NA
"535",4,"m2",4,"Electronic device & accessory","Electronic device & accessory",1,0.702127659574468,0.272727272727273,0.4,1.31939,61,5,3,15,0,"afterCP",1,"headphones02b.jpg",1,4,"right",1.211645,0
"536",4,"m2",4,"Electronic device & accessory","Electronic device & accessory",1,0.708333333333333,0.333333333333333,0.5,0.97623,62,6,3,16,0,"afterCP",1,"coffeemachine.jpg",1,4,NA,1.44846,NA
"537",4,"m2",2,"Electronic device & accessory","Electronic device & accessory",1,0.714285714285714,0.384615384615385,0.571428571428571,1.43674,63,7,3,18,0,"afterCP",1,"airconditioner.jpg",0,3,"left",1.154805,1
"538",4,"m5",4,"Kitchen & utensil","Kitchen & utensil",1,0.72,0.428571428571429,0.285714285714286,1.136545,64,7,3,19,0,"afterCP",1,"waterbottle03.jpg",1,3,"left",1.577035,0
"539",4,"m2",4,"Electronic device & accessory","Electronic device & accessory",1,0.725490196078431,0.466666666666667,0.625,1.362715,65,8,3,20,0,"afterCP",1,"lightbulb01.jpg",1,3,"left",1.788655,1
"540",4,"m2",1,"Electronic device & accessory","Electronic device & accessory",1,0.730769230769231,0.5,0.666666666666667,1.257735,66,9,3,21,0,"afterCP",1,"phonejack.jpg",0,2,NA,1.057735,NA
"541",4,"m5",2,"Kitchen & utensil","Kitchen & utensil",1,0.735849056603774,0.529411764705882,0.375,1.10115,67,8,3,22,0,"afterCP",1,"bottlecap.jpg",1,4,"right",4.515405,1
"542",4,"m5",4,"Kitchen & utensil","Kitchen & utensil",1,0.740740740740741,0.555555555555556,0.444444444444444,2.166415,68,9,3,23,0,"beforeCP",1,"contactlens.jpg",1,3,"left",1.515805,0
"543",4,"m2",1,"Electronic device & accessory","Electronic device & accessory",1,0.745454545454545,0.578947368421053,0.7,0.884735,69,10,3,24,0,"beforeCP",1,"usbcable01a.jpg",1,2,NA,1.481605,NA
"544",4,"m5",4,"Kitchen & utensil","Kitchen & utensil",1,0.75,0.6,0.5,1.49835,70,10,3,25,1,"beforeCP",1,"towel01.jpg",1,3,"right",1.363285,1
"545",4,"m2",2,"Electronic device & accessory","Electronic device & accessory",1,0.754385964912281,0.619047619047619,0.727272727272727,0.797155,71,11,3,27,1,"beforeCP",1,"dvdplayer.jpg",1,4,NA,1.50413,NA
"546",4,"m2",4,"Electronic device & accessory","Electronic device & accessory",1,0.758620689655172,0.636363636363636,0.75,1.2206,72,12,3,28,1,"beforeCP",1,"fuse.jpg",1,4,"left",1.462465,1
"547",4,"m5",1,"Electronic device & accessory","Kitchen & utensil",0,0.745762711864407,0.608695652173913,0.454545454545455,1.669465,73,11,3,31,1,"beforeCP",1,"servingspoon01.jpg",1,3,"left",1.00191,0
"548",4,"m2",1,"Electronic device & accessory","Electronic device & accessory",1,0.75,0.625,0.769230769230769,2.760655,74,13,3,32,1,"beforeCP",1,"ethernetcable02.jpg",1,3,NA,0.93264,NA
"549",4,"m5",2,"Electronic device & accessory","Kitchen & utensil",0,0.737704918032787,0.6,0.416666666666667,0.743125,75,12,3,34,1,"beforeCP",1,"peeler01.jpg",1,4,NA,1.38829,NA
"550",4,"m5",3,"Electronic device & accessory","Kitchen & utensil",0,0.725806451612903,0.576923076923077,0.384615384615385,1.20752,76,13,3,35,1,"beforeCP",1,"corkscrew03a.jpg",1,4,"left",1.15666,0
"551",4,"m2",1,"Electronic device & accessory","Electronic device & accessory",1,0.73015873015873,0.592592592592593,0.785714285714286,0.84402,77,14,3,36,1,"beforeCP",1,"vhstape.jpg",1,4,"right",0.961735,0
"552",4,"m5",2,"Kitchen & utensil","Kitchen & utensil",1,0.734375,0.607142857142857,0.428571428571429,0.722395,78,14,3,37,1,"beforeCP",1,"hourglass.jpg",1,3,NA,1.128945,NA
"553",4,"m5",3,"Kitchen & utensil","Kitchen & utensil",1,0.738461538461539,0.620689655172414,0.466666666666667,0.93446,79,15,3,38,1,"beforeCP",1,"rollingpin01a.jpg",1,3,NA,0.880285,NA
"554",4,"m5",4,"Kitchen & utensil","Kitchen & utensil",1,0.742424242424242,0.633333333333333,0.5,1.342955,80,16,3,39,1,"beforeCP",1,"oven.jpg",0,2,"left",1.969145,0
"555",4,"m5",2,"Kitchen & utensil","Kitchen & utensil",1,0.746268656716418,0.645161290322581,0.529411764705882,0.78676,81,17,3,40,1,"beforeCP",1,"dishrack.jpg",1,3,NA,1.09422,NA
"556",4,"m2",3,"Electronic device & accessory","Electronic device & accessory",1,0.75,0.65625,0.8,0.89975,82,15,3,42,1,"beforeCP",1,"cellphone.jpg",1,4,"left",1.663035,1
"557",4,"m2",4,"Electronic device & accessory","Electronic device & accessory",1,0.753623188405797,0.666666666666667,0.8125,1.03335,83,16,3,43,1,"beforeCP",1,"ipad02.jpg",1,4,"left",1.265155,1
"558",4,"m2",1,"Electronic device & accessory","Electronic device & accessory",1,0.757142857142857,0.676470588235294,0.823529411764706,1.0121,84,17,3,44,1,"beforeCP",1,"djmixer02.jpg",1,3,"right",1.836765,0
"559",4,"m5",2,"Kitchen & utensil","Kitchen & utensil",1,0.76056338028169,0.685714285714286,0.555555555555556,1.045265,85,18,3,45,1,"beforeCP",1,"jar02.jpg",0,2,"right",1.81034,1
"560",4,"m2",2,"Outdoor activity & sport item","Electronic device & accessory",0,0.75,0.666666666666667,0.777777777777778,1.161205,86,18,3,48,1,"beforeCP",1,"electricoutlet.jpg",1,3,"right",1.51948,0
"561",4,"m2",2,"Electronic device & accessory","Kitchen & utensil",0,0.73972602739726,0,0,0.969885,87,1,4,2,0,"afterCP",1,"cork02.jpg",1,2,NA,1.267535,NA
"562",4,"m2",2,"Electronic device & accessory","Kitchen & utensil",0,0.72972972972973,0,0,1.780305,88,2,4,3,0,"afterCP",1,"bowl02a.jpg",1,3,"left",1.54823,1
"563",4,"m2",2,"Kitchen & utensil","Kitchen & utensil",1,0.733333333333333,0.333333333333333,0.333333333333333,1.298735,89,3,4,4,0,"afterCP",1,"spoon01.jpg",1,2,NA,3.544445,NA
"564",4,"m2",1,"Kitchen & utensil","Kitchen & utensil",1,0.736842105263158,0.5,0.5,1.07011,90,4,4,5,0,"afterCP",1,"cookiecutter.jpg",1,3,NA,0.94288,NA
"565",4,"m5",4,"Electronic device & accessory","Hand labour tool & accessory",0,0.727272727272727,0.4,0,1.10292,91,1,4,6,0,"afterCP",1,"knifesharpener.jpg",1,2,NA,1.62853,NA
"566",4,"m5",4,"Kitchen & utensil","Hand labour tool & accessory",0,0.717948717948718,0.333333333333333,0,1.55798,92,2,4,7,0,"afterCP",1,"pipewrench.jpg",1,3,NA,1.345925,NA
"567",4,"m2",3,"Kitchen & utensil","Kitchen & utensil",1,0.721518987341772,0.428571428571429,0.6,1.161035,93,5,4,9,0,"afterCP",1,"butterknife.jpg",1,3,"right",1.723775,0
"568",4,"m2",4,"Outdoor activity & sport item","Kitchen & utensil",0,0.7125,0.375,0.5,2.21615,94,6,4,11,0,"afterCP",1,"pitcher02b.jpg",1,3,"left",1.32205,1
"569",4,"m5",2,"Electronic device & accessory","Hand labour tool & accessory",0,0.703703703703704,0.333333333333333,0,1.76467,95,3,4,12,0,"afterCP",1,"leafrake.jpg",1,3,NA,1.18917,NA
"570",4,"m5",4,"Hand labour tool & accessory","Hand labour tool & accessory",1,0.707317073170732,0.4,0.25,0.48034,96,4,4,13,0,"afterCP",1,"painttray.jpg",1,3,"left",1.56802,0
"571",4,"m5",3,"Hand labour tool & accessory","Hand labour tool & accessory",1,0.710843373493976,0.454545454545455,0.4,0.85421,97,5,4,14,0,"afterCP",1,"hammer01.jpg",1,2,"right",1.009935,1
"572",4,"m5",1,"Hand labour tool & accessory","Hand labour tool & accessory",1,0.714285714285714,0.5,0.5,1.173005,98,6,4,17,0,"afterCP",1,"axe01.jpg",1,2,NA,2.618195,NA
"573",4,"m2",3,"Kitchen & utensil","Kitchen & utensil",1,0.717647058823529,0.538461538461539,0.571428571428571,0.48004,99,7,4,19,0,"afterCP",1,"spicerack.jpg",1,3,"left",1.685475,1
"574",4,"m5",4,"Hand labour tool & accessory","Hand labour tool & accessory",1,0.720930232558139,0.571428571428571,0.571428571428571,1.221975,100,7,4,20,0,"beforeCP",1,"ladder.jpg",0,2,NA,1.713795,NA
"575",4,"m5",3,"Hand labour tool & accessory","Hand labour tool & accessory",1,0.724137931034483,0.6,0.625,1.414955,101,8,4,21,0,"beforeCP",1,"hoe.jpg",1,3,NA,1.29978,NA
"576",4,"m5",1,"Hand labour tool & accessory","Hand labour tool & accessory",1,0.727272727272727,0.625,0.666666666666667,1.02538,102,9,4,22,0,"beforeCP",1,"staplegun.jpg",1,4,"left",1.480325,0
"577",4,"m5",3,"Hand labour tool & accessory","Hand labour tool & accessory",1,0.730337078651685,0.647058823529412,0.7,1.210395,103,10,4,23,0,"beforeCP",1,"stubbywrench01a.jpg",1,3,NA,1.71235,NA
"578",4,"m2",4,"Electronic device & accessory","Kitchen & utensil",0,0.722222222222222,0.611111111111111,0.5,2.01404,104,8,4,24,0,"beforeCP",1,"gravyboat.jpg",0,3,NA,0.8649,NA
"579",4,"m5",1,"Hand labour tool & accessory","Hand labour tool & accessory",1,0.725274725274725,0.631578947368421,0.727272727272727,0.74686,105,11,4,25,1,"beforeCP",1,"tape02a.jpg",0,2,"left",1.376455,0
"580",4,"m2",1,"Outdoor activity & sport item","Kitchen & utensil",0,0.717391304347826,0.6,0.444444444444444,1.1024,106,9,4,28,1,"beforeCP",1,"pastaspoon.jpg",0,2,NA,1.461125,NA
"581",4,"m5",2,"Hand labour tool & accessory","Hand labour tool & accessory",1,0.720430107526882,0.619047619047619,0.75,0.555285,107,12,4,29,1,"beforeCP",1,"wheelbarrow01.jpg",1,3,"left",0.97017,0
"582",4,"m2",4,"Kitchen & utensil","Kitchen & utensil",1,0.723404255319149,0.636363636363636,0.5,2.59711,108,10,4,31,1,"beforeCP",1,"breadknife.jpg",1,2,"left",1.89432,1
"583",4,"m2",2,"Kitchen & utensil","Kitchen & utensil",1,0.726315789473684,0.652173913043478,0.545454545454545,1.29606,109,11,4,32,1,"beforeCP",1,"martiniglass01b.jpg",0,3,"right",0.95408,0
"584",4,"m5",3,"Hand labour tool & accessory","Hand labour tool & accessory",1,0.729166666666667,0.666666666666667,0.769230769230769,0.943575,110,13,4,33,1,"beforeCP",1,"setsquare.jpg",1,3,NA,1.043545,NA
"585",4,"m5",2,"Hand labour tool & accessory","Hand labour tool & accessory",1,0.731958762886598,0.68,0.785714285714286,0.551965,111,14,4,34,1,"beforeCP",1,"pressurewasher.jpg",1,2,NA,1.6701,NA
"586",4,"m2",1,"Kitchen & utensil","Kitchen & utensil",1,0.73469387755102,0.692307692307692,0.583333333333333,1.18408,112,12,4,35,1,"beforeCP",1,"saladspinner.jpg",1,3,NA,0.976585,NA
"587",4,"m2",3,"Kitchen & utensil","Kitchen & utensil",1,0.737373737373737,0.703703703703704,0.615384615384615,1.05843,113,13,4,36,1,"beforeCP",1,"thermos.jpg",1,4,NA,1.16972,NA
"588",4,"m2",3,"Kitchen & utensil","Kitchen & utensil",1,0.74,0.714285714285714,0.642857142857143,2.34487,114,14,4,37,1,"beforeCP",1,"gasburner.jpg",1,4,"left",1.66727,1
"589",4,"m2",4,"Kitchen & utensil","Kitchen & utensil",1,0.742574257425743,0.724137931034483,0.666666666666667,1.110935,115,15,4,38,1,"beforeCP",1,"espressomachine.jpg",0,2,NA,1.10485,NA
"590",4,"m5",1,"Hand labour tool & accessory","Hand labour tool & accessory",1,0.745098039215686,0.733333333333333,0.8,0.60952,116,15,4,39,1,"beforeCP",1,"metalbrush.jpg",1,3,"right",2.644115,1
"591",4,"m5",1,"Hand labour tool & accessory","Hand labour tool & accessory",1,0.74757281553398,0.741935483870968,0.8125,0.654705,117,16,4,40,1,"beforeCP",1,"drillbit03a.jpg",1,2,NA,1.294295,NA
"592",4,"m2",1,"Kitchen & utensil","Kitchen & utensil",1,0.75,0.75,0.6875,1.24857,118,16,4,41,1,"beforeCP",1,"tray.jpg",0,2,"left",1.428495,1
"593",4,"m2",3,"Kitchen & utensil","Kitchen & utensil",1,0.752380952380952,0.757575757575758,0.705882352941176,0.913925,119,17,4,43,1,"beforeCP",1,"muffintray01.jpg",1,2,"left",1.511355,1
"594",4,"m5",2,"Hand labour tool & accessory","Hand labour tool & accessory",1,0.754716981132075,0.764705882352941,0.823529411764706,0.694845,120,17,4,45,1,"beforeCP",1,"jigsaw.jpg",1,2,NA,1.426,NA
"595",4,"m5",4,"Hand labour tool & accessory","Hand labour tool & accessory",1,0.757009345794392,0.771428571428571,0.833333333333333,2.473235,121,18,4,46,1,"beforeCP",1,"sewingmachine01a.jpg",1,4,"left",1.322775,0
"596",4,"m2",2,"Kitchen & utensil","Kitchen & utensil",1,0.759259259259259,0.777777777777778,0.722222222222222,2.54742,122,18,4,47,1,"beforeCP",1,"potatomasher03b.jpg",1,3,NA,1.912465,NA
"597",4,"m2",1,"Kitchen & utensil","Outdoor activity & sport item",0,0.752293577981651,0,0,0.66381,123,1,5,1,0,"afterCP",1,"shinpad.jpg",1,2,NA,2.275425,NA
"598",4,"m2",1,"Electronic device & accessory","Outdoor activity & sport item",0,0.745454545454545,0,0,0.96582,124,2,5,3,0,"afterCP",1,"poolnet.jpg",1,4,NA,0.901445,NA
"599",4,"m2",4,"Electronic device & accessory","Outdoor activity & sport item",0,0.738738738738739,0,0,1.27661,125,3,5,4,0,"afterCP",1,"podium.jpg",1,4,"left",1.20314,1
"600",4,"m5",4,"Hand labour tool & accessory","Electronic device & accessory",0,0.732142857142857,0,0,1.51993,126,1,5,5,0,"afterCP",1,"chandelier.jpg",1,2,"left",1.432315,0
