"first_character","second_character","Cue","left_categ","centleft_categ","centright_categ","right_categ","corr_ans","trial_cond","switch_cond","cuedCharacter","obj_category","image","participant","task_resp.keys","task_resp.corr","task_resp.rt","response","respCat","P_O_S1","P_O_S2","P_O_S3","P_O_S4","Prob","accuracy","surprise","entropy","PS_pre1","PS_pre2","PS_pre3","PS_pre4","PS_post1","PS_post2","PS_post3","PS_post4"
"stimuli/m2.jpg","stimuli/m5.jpg",2,"stimuli/Electronic device & accessory.png","stimuli/Kitchen & utensil.png","stimuli/Hand labour tool & accessory.png","stimuli/Outdoor activity & sport item.png",2,0,2,"stimuli/m5.jpg","Kitchen & utensil","stimuli/objects/travelmug.jpg",1,1,0,1.175,1,"Electronic device & accessory",NA,NA,NA,NA,0.25,0,0.00274661990952442,1.38354774121037,0.25,0.25,0.25,0.25,0.218382734204093,0.260539088598636,0.260539088598636,0.260539088598636
"stimuli/m2.jpg","stimuli/m5.jpg",1,"stimuli/Kitchen & utensil.png","stimuli/Outdoor activity & sport item.png","stimuli/Electronic device & accessory.png","stimuli/Hand labour tool & accessory.png",2,1,2,"stimuli/m2.jpg","Outdoor activity & sport item","stimuli/objects/swimgoggles.jpg",1,2,1,0.518,2,"Outdoor activity & sport item",NA,NA,NA,NA,0.25,1,0.00308895442742184,1.38320540669247,0.25,0.25,0.25,0.25,0.238490515594359,0.284528453216923,0.238490515594359,0.238490515594359
"stimuli/m2.jpg","stimuli/m5.jpg",2,"stimuli/Electronic device & accessory.png","stimuli/Hand labour tool & accessory.png","stimuli/Outdoor activity & sport item.png","stimuli/Kitchen & utensil.png",3,0,2,"stimuli/m5.jpg","Outdoor activity & sport item","stimuli/objects/outdoorheater.jpg",1,4,0,1.1,4,"Kitchen & utensil",NA,NA,NA,NA,0.255901889615236,0,0.00279305671942883,1.38362277076305,0.232294331154292,0.255901889615236,0.255901889615236,0.255901889615236,0.242328180391635,0.266955456730676,0.266955456730676,0.223760906147013
"stimuli/m2.jpg","stimuli/m5.jpg",2,"stimuli/Kitchen & utensil.png","stimuli/Hand labour tool & accessory.png","stimuli/Electronic device & accessory.png","stimuli/Outdoor activity & sport item.png",2,1,2,"stimuli/m5.jpg","Hand labour tool & accessory","stimuli/objects/adjustablewrench01b.jpg",1,2,1,0.913,2,"Hand labour tool & accessory",NA,NA,NA,NA,0.235306107442327,1,0.0031583416832406,1.38056376989721,0.245703781019315,0.259495055769179,0.259495055769179,0.235306107442327,0.233982959184547,0.294819406428693,0.247116347948501,0.224081286438259
"stimuli/m2.jpg","stimuli/m5.jpg",1,"stimuli/Kitchen & utensil.png","stimuli/Hand labour tool & accessory.png","stimuli/Electronic device & accessory.png","stimuli/Outdoor activity & sport item.png",3,0,2,"stimuli/m2.jpg","Electronic device & accessory","stimuli/objects/phonejack.jpg",1,4,0,1.059,4,"Outdoor activity & sport item",NA,NA,NA,NA,0.243554688732841,0,0.00269488269175786,1.38150708872821,0.243554688732841,0.269335933801477,0.243554688732841,0.243554688732841,0.253546501188485,0.280385419861924,0.253546501188485,0.212521577761106
"stimuli/m5.jpg","stimuli/m2.jpg",2,"stimuli/Hand labour tool & accessory.png","stimuli/Electronic device & accessory.png","stimuli/Kitchen & utensil.png","stimuli/Outdoor activity & sport item.png",4,1,2,"stimuli/m2.jpg","Outdoor activity & sport item","stimuli/objects/patioumbrella.jpg",1,1,0,1.119,1,"Hand labour tool & accessory",NA,NA,NA,NA,0.229012083546219,0,0.00276234665983032,1.38231623366052,0.251986040665552,0.267015835122677,0.251986040665552,0.229012083546219,0.220191343573647,0.278365473041228,0.26269682986189,0.238746353523235
"stimuli/m5.jpg","stimuli/m2.jpg",1,"stimuli/Electronic device & accessory.png","stimuli/Outdoor activity & sport item.png","stimuli/Kitchen & utensil.png","stimuli/Hand labour tool & accessory.png",1,0,2,"stimuli/m5.jpg","Electronic device & accessory","stimuli/objects/wire.jpg",1,4,0,1.041,4,"Hand labour tool & accessory",NA,NA,NA,NA,0.235485520405425,0,0.00262860963588899,1.37940693602175,0.241030457143346,0.275098867600068,0.248385154851161,0.235485520405425,0.250578129989881,0.285996054700102,0.258224161201484,0.205201654108532
"stimuli/m2.jpg","stimuli/m5.jpg",2,"stimuli/Electronic device & accessory.png","stimuli/Kitchen & utensil.png","stimuli/Outdoor activity & sport item.png","stimuli/Hand labour tool & accessory.png",2,0,2,"stimuli/m5.jpg","Kitchen & utensil","stimuli/objects/cowbell.jpg",1,1,0,1.104,1,"Electronic device & accessory",NA,NA,NA,NA,0.254605530272831,0,0.00274919052693184,1.38137246798492,0.250323752794334,0.270157790632057,0.254605530272831,0.224912926300778,0.218677480534615,0.281562029498226,0.265353257654987,0.234407232312173
"stimuli/m5.jpg","stimuli/m2.jpg",2,"stimuli/Outdoor activity & sport item.png","stimuli/Hand labour tool & accessory.png","stimuli/Kitchen & utensil.png","stimuli/Electronic device & accessory.png",1,1,2,"stimuli/m2.jpg","Outdoor activity & sport item","stimuli/objects/baseball01a.jpg",1,1,1,0.738,1,"Outdoor activity & sport item",NA,NA,NA,NA,0.233307152401242,1,0.002958939140242,1.38512254928797,0.233307152401242,0.265884664903088,0.257110224722658,0.243697957973012,0.266348853721178,0.254425993140603,0.246029699740334,0.233195453397885
"stimuli/m2.jpg","stimuli/m5.jpg",1,"stimuli/Electronic device & accessory.png","stimuli/Hand labour tool & accessory.png","stimuli/Kitchen & utensil.png","stimuli/Outdoor activity & sport item.png",4,1,2,"stimuli/m2.jpg","Outdoor activity & sport item","stimuli/objects/bikehelmet.jpg",1,4,1,0.978,4,"Outdoor activity & sport item",NA,NA,NA,NA,0.25915535808386,1,0.00301692302037113,1.38462944456844,0.25915535808386,0.252478556158738,0.247776631854587,0.240589453902816,0.247653555693902,0.241273082800553,0.236779838743643,0.274293522761902
"stimuli/m2.jpg","stimuli/m5.jpg",1,"stimuli/Electronic device & accessory.png","stimuli/Outdoor activity & sport item.png","stimuli/Hand labour tool & accessory.png","stimuli/Kitchen & utensil.png",2,1,2,"stimuli/m2.jpg","Outdoor activity & sport item","stimuli/objects/canoepaddle02.jpg",1,2,1,0.954,2,"Outdoor activity & sport item",NA,NA,NA,NA,0.248685991188585,1,0.0030519538554381,1.38363220038379,0.248685991188585,0.245112926368309,0.24259670969644,0.263604372746665,0.237450697920046,0.279217692850511,0.231636521845106,0.251695087384337
"stimuli/m5.jpg","stimuli/m2.jpg",1,"stimuli/Electronic device & accessory.png","stimuli/Outdoor activity & sport item.png","stimuli/Hand labour tool & accessory.png","stimuli/Kitchen & utensil.png",3,1,2,"stimuli/m5.jpg","Hand labour tool & accessory","stimuli/objects/leafrake.jpg",1,1,0,0.583,1,"Electronic device & accessory",NA,NA,NA,NA,0.258597824286793,0,0.00260332709560288,1.37924637764172,0.232459389099384,0.267674736519006,0.258597824286793,0.241268050094817,0.202461628377424,0.278136258141933,0.268704593291591,0.250697520189052
"stimuli/m2.jpg","stimuli/m5.jpg",2,"stimuli/Kitchen & utensil.png","stimuli/Hand labour tool & accessory.png","stimuli/Outdoor activity & sport item.png","stimuli/Electronic device & accessory.png",2,1,2,"stimuli/m5.jpg","Hand labour tool & accessory","stimuli/objects/lawnmower.jpg",1,2,1,1.262,2,"Hand labour tool & accessory",NA,NA,NA,NA,0.250390611305869,1,0.00320229943663658,1.37804193895323,0.223378511891358,0.265756304559482,0.260474572243291,0.250390611305869,0.212478109808689,0.301585854318765,0.247763960350846,0.238172075521699
"stimuli/m5.jpg","stimuli/m2.jpg",2,"stimuli/Kitchen & utensil.png","stimuli/Outdoor activity & sport item.png","stimuli/Hand labour tool & accessory.png","stimuli/Electronic device & accessory.png",2,1,2,"stimuli/m2.jpg","Outdoor activity & sport item","stimuli/objects/reflector.jpg",1,2,1,1.416,2,"Outdoor activity & sport item",NA,NA,NA,NA,0.242972390835226,1,0.00320647565690141,1.37918863188779,0.242972390835226,0.266361907996286,0.239716452233259,0.250949248935229,0.231090151335563,0.302239496743296,0.227993440052107,0.238676911869035
"stimuli/m2.jpg","stimuli/m5.jpg",1,"stimuli/Outdoor activity & sport item.png","stimuli/Kitchen & utensil.png","stimuli/Hand labour tool & accessory.png","stimuli/Electronic device & accessory.png",2,0,2,"stimuli/m2.jpg","Kitchen & utensil","stimuli/objects/fryingpan02a.jpg",1,1,0,0.45,1,"Outdoor activity & sport item",NA,NA,NA,NA,0.239410484747915,0,0.00266105379099792,1.37953183407165,0.239410484747915,0.279254118176246,0.23767632642918,0.243659070646659,0.208759690897056,0.290507705343282,0.247254381264968,0.253478222494693
"stimuli/m2.jpg","stimuli/m5.jpg",1,"stimuli/Electronic device & accessory.png","stimuli/Hand labour tool & accessory.png","stimuli/Outdoor activity & sport item.png","stimuli/Kitchen & utensil.png",4,0,2,"stimuli/m2.jpg","Kitchen & utensil","stimuli/objects/muffintray01.jpg",1,4,1,1.046,4,"Kitchen & utensil",NA,NA,NA,NA,0.272684314992238,1,0.00310345722121696,1.38081609439742,0.226905426902351,0.272684314992238,0.248462453508382,0.251947804597028,0.216381554760653,0.260037218335268,0.236938766620716,0.286642460283364
"stimuli/m5.jpg","stimuli/m2.jpg",1,"stimuli/Kitchen & utensil.png","stimuli/Outdoor activity & sport item.png","stimuli/Hand labour tool & accessory.png","stimuli/Electronic device & accessory.png",3,1,2,"stimuli/m5.jpg","Hand labour tool & accessory","stimuli/objects/pliers02b.jpg",1,3,1,1.069,3,"Hand labour tool & accessory",NA,NA,NA,NA,0.243376362292152,1,0.0030795575882372,1.3809556317107,0.228987741492866,0.278888078418508,0.248747817796474,0.243376362292152,0.218496001464177,0.26611000917868,0.283168623645203,0.23222536571194
"stimuli/m2.jpg","stimuli/m5.jpg",2,"stimuli/Outdoor activity & sport item.png","stimuli/Electronic device & accessory.png","stimuli/Hand labour tool & accessory.png","stimuli/Kitchen & utensil.png",2,0,2,"stimuli/m5.jpg","Electronic device & accessory","stimuli/objects/papershredder.jpg",1,2,1,0.954,2,"Electronic device & accessory",NA,NA,NA,NA,0.268574429241314,1,0.00315495979615634,1.37985799170125,0.232357760819939,0.259021605140061,0.268574429241314,0.240046204798686,0.221292845096927,0.294307121159693,0.255784869665492,0.228615164077888
"stimuli/m5.jpg","stimuli/m2.jpg",2,"stimuli/Electronic device & accessory.png","stimuli/Outdoor activity & sport item.png","stimuli/Kitchen & utensil.png","stimuli/Hand labour tool & accessory.png",2,1,2,"stimuli/m2.jpg","Outdoor activity & sport item","stimuli/objects/boatmotor.jpg",1,3,0,1.099,3,"Kitchen & utensil",NA,NA,NA,NA,0.25562084226775,0,0.00268782570821466,1.38060453747839,0.231173670665965,0.25562084226775,0.242685709307601,0.270519777758684,0.240622332206711,0.266068722488669,0.211732329573187,0.281576615731433
"stimuli/m2.jpg","stimuli/m5.jpg",2,"stimuli/Hand labour tool & accessory.png","stimuli/Outdoor activity & sport item.png","stimuli/Kitchen & utensil.png","stimuli/Electronic device & accessory.png",1,1,2,"stimuli/m5.jpg","Hand labour tool & accessory","stimuli/objects/drillbit03a.jpg",1,1,1,0.653,1,"Hand labour tool & accessory",NA,NA,NA,NA,0.238024491883617,1,0.00296392676292128,1.38425672575041,0.233923993254279,0.274811987849428,0.253239527012676,0.238024491883617,0.267022628290308,0.262938620704054,0.242298207081648,0.22774054392399
"stimuli/m2.jpg","stimuli/m5.jpg",1,"stimuli/Hand labour tool & accessory.png","stimuli/Electronic device & accessory.png","stimuli/Outdoor activity & sport item.png","stimuli/Kitchen & utensil.png",3,1,2,"stimuli/m2.jpg","Outdoor activity & sport item","stimuli/objects/lifesaver.jpg",1,3,1,0.596,3,"Outdoor activity & sport item",NA,NA,NA,NA,0.244748506035758,1,0.00292016545399335,1.3854635901609,0.244748506035758,0.258998484593655,0.228570104560985,0.267682904809603,0.23440583770577,0.248053635664811,0.261169460028336,0.256371066601083
"stimuli/m5.jpg","stimuli/m2.jpg",1,"stimuli/Electronic device & accessory.png","stimuli/Kitchen & utensil.png","stimuli/Outdoor activity & sport item.png","stimuli/Hand labour tool & accessory.png",4,1,2,"stimuli/m5.jpg","Hand labour tool & accessory","stimuli/objects/tape02a.jpg",1,1,0,0.56,1,"Electronic device & accessory",NA,NA,NA,NA,0.245686995965723,0,0.00282117687057701,1.38444865561093,0.259532671842572,0.25724562759427,0.245686995965723,0.237534704597434,0.227074829578773,0.268521801013406,0.256456505244634,0.247946864163187
"stimuli/m2.jpg","stimuli/m5.jpg",1,"stimuli/Hand labour tool & accessory.png","stimuli/Kitchen & utensil.png","stimuli/Electronic device & accessory.png","stimuli/Outdoor activity & sport item.png",4,1,2,"stimuli/m2.jpg","Outdoor activity & sport item","stimuli/objects/ellipticalmachine.jpg",1,2,0,0.838,2,"Kitchen & utensil",NA,NA,NA,NA,0.248910035972294,0,0.00273794568737376,1.38310250926633,0.241267269115231,0.248910035972294,0.256254897615868,0.253567797296607,0.251392012860134,0.217390661450272,0.267008594879701,0.264208730809893
"stimuli/m2.jpg","stimuli/m5.jpg",2,"stimuli/Kitchen & utensil.png","stimuli/Electronic device & accessory.png","stimuli/Hand labour tool & accessory.png","stimuli/Outdoor activity & sport item.png",3,1,2,"stimuli/m5.jpg","Hand labour tool & accessory","stimuli/objects/wheelbarrow01.jpg",1,3,1,0.606,3,"Hand labour tool & accessory",NA,NA,NA,NA,0.248850243931385,1,0.0031157650571581,1.38195897916369,0.237161904564113,0.260372208567507,0.253615642936995,0.248850243931385,0.226092920829572,0.248219937540433,0.288451407657433,0.237235733972563
"stimuli/m5.jpg","stimuli/m2.jpg",2,"stimuli/Electronic device & accessory.png","stimuli/Hand labour tool & accessory.png","stimuli/Kitchen & utensil.png","stimuli/Outdoor activity & sport item.png",1,0,2,"stimuli/m2.jpg","Electronic device & accessory","stimuli/objects/scanner.jpg",1,4,0,1.105,4,"Outdoor activity & sport item",NA,NA,NA,NA,0.250779527201675,0,0.0028090144726272,1.38381743822458,0.250779527201675,0.231738770412152,0.259524813132632,0.25795688925354,0.261702613059709,0.241832506986636,0.270828813294729,0.225636066658926
"stimuli/m2.jpg","stimuli/m5.jpg",2,"stimuli/Hand labour tool & accessory.png","stimuli/Outdoor activity & sport item.png","stimuli/Electronic device & accessory.png","stimuli/Kitchen & utensil.png",1,1,2,"stimuli/m5.jpg","Hand labour tool & accessory","stimuli/objects/boltcutter.jpg",1,1,1,0.552,1,"Hand labour tool & accessory",NA,NA,NA,NA,0.242852011024635,1,0.00298549691675602,1.38440090758965,0.23661203566456,0.249003165022642,0.271532788288162,0.242852011024635,0.269956982633154,0.238126654361487,0.259672178940482,0.232244184064876
"stimuli/m5.jpg","stimuli/m2.jpg",1,"stimuli/Kitchen & utensil.png","stimuli/Hand labour tool & accessory.png","stimuli/Outdoor activity & sport item.png","stimuli/Electronic device & accessory.png",2,1,2,"stimuli/m5.jpg","Hand labour tool & accessory","stimuli/objects/gluetube.jpg",1,2,1,0.651,2,"Hand labour tool & accessory",NA,NA,NA,NA,0.240056743076331,1,0.00303839817124136,1.38389806403085,0.261175910274566,0.243350926442433,0.25541642020667,0.240056743076331,0.249457355207326,0.277300588284291,0.243956284460909,0.229285772047475
"stimuli/m5.jpg","stimuli/m2.jpg",2,"stimuli/Kitchen & utensil.png","stimuli/Hand labour tool & accessory.png","stimuli/Electronic device & accessory.png","stimuli/Outdoor activity & sport item.png",4,1,2,"stimuli/m2.jpg","Outdoor activity & sport item","stimuli/objects/volleyball.jpg",1,3,0,0.758,3,"Electronic device & accessory",NA,NA,NA,NA,0.261664135445048,0,0.0028375257492751,1.38466412555939,0.256553463313437,0.245426203912516,0.261664135445048,0.236356197328998,0.267895738046657,0.256276540507295,0.229022174143826,0.246805547302222
"stimuli/m2.jpg","stimuli/m5.jpg",1,"stimuli/Hand labour tool & accessory.png","stimuli/Kitchen & utensil.png","stimuli/Outdoor activity & sport item.png","stimuli/Electronic device & accessory.png",3,1,2,"stimuli/m2.jpg","Outdoor activity & sport item","stimuli/objects/sportbag.jpg",1,3,1,1.592,3,"Outdoor activity & sport item",NA,NA,NA,NA,0.260021613306128,1,0.00299852866136408,1.38492483341964,0.260021613306128,0.253514862684085,0.238252417520542,0.248211106489244,0.248588535486983,0.242367884875112,0.271746246276922,0.237297333360983
"stimuli/m5.jpg","stimuli/m2.jpg",2,"stimuli/Electronic device & accessory.png","stimuli/Outdoor activity & sport item.png","stimuli/Hand labour tool & accessory.png","stimuli/Kitchen & utensil.png",2,1,2,"stimuli/m2.jpg","Outdoor activity & sport item","stimuli/objects/hockeygoaliemask.jpg",1,2,1,0.601,2,"Outdoor activity & sport item",NA,NA,NA,NA,0.249209579872711,1,0.00305664376736696,1.38360612185151,0.249209579872711,0.245726015530062,0.262177897915076,0.24288650668215,0.237923745452316,0.279884458799727,0.250304773510838,0.231887022237119
"stimuli/m2.jpg","stimuli/m5.jpg",2,"stimuli/Kitchen & utensil.png","stimuli/Outdoor activity & sport item.png","stimuli/Electronic device & accessory.png","stimuli/Hand labour tool & accessory.png",4,1,2,"stimuli/m5.jpg","Hand labour tool & accessory","stimuli/objects/pressurewasher.jpg",1,4,1,0.832,4,"Hand labour tool & accessory",NA,NA,NA,NA,0.238400032346586,1,0.00299969648120729,1.38466335199321,0.249696118916102,0.265288329439203,0.246615519298109,0.238400032346586,0.238710547142278,0.253616766435088,0.235765480861194,0.27190720556144
"stimuli/m2.jpg","stimuli/m5.jpg",2,"stimuli/Hand labour tool & accessory.png","stimuli/Kitchen & utensil.png","stimuli/Outdoor activity & sport item.png","stimuli/Electronic device & accessory.png",1,1,2,"stimuli/m5.jpg","Hand labour tool & accessory","stimuli/objects/saw02b.jpg",1,1,1,0.78,1,"Hand labour tool & accessory",NA,NA,NA,NA,0.262268035114407,1,0.00304092238254735,1.38391376204948,0.243677906399676,0.252025389203649,0.242028669282268,0.262268035114407,0.277656445629408,0.240702892285464,0.231155285173152,0.250485376911976
"stimuli/m5.jpg","stimuli/m2.jpg",2,"stimuli/Kitchen & utensil.png","stimuli/Hand labour tool & accessory.png","stimuli/Outdoor activity & sport item.png","stimuli/Electronic device & accessory.png",2,0,2,"stimuli/m2.jpg","Hand labour tool & accessory","stimuli/objects/sewingmachine01a.jpg",1,3,0,1.148,3,"Outdoor activity & sport item",NA,NA,NA,NA,0.243237297453297,0,0.00274797540161044,1.38269034023741,0.243237297453297,0.266735296927847,0.250170673166069,0.239856732452786,0.253498590814046,0.277987885079829,0.218538111985302,0.249975412120823
"stimuli/m5.jpg","stimuli/m2.jpg",1,"stimuli/Outdoor activity & sport item.png","stimuli/Hand labour tool & accessory.png","stimuli/Kitchen & utensil.png","stimuli/Electronic device & accessory.png",2,1,2,"stimuli/m5.jpg","Hand labour tool & accessory","stimuli/objects/wheel01.jpg",1,2,1,0.641,2,"Hand labour tool & accessory",NA,NA,NA,NA,0.250271811070706,1,0.00304950579670481,1.38347755675367,0.265487609552468,0.24479361967986,0.239446959696965,0.250271811070706,0.253508162056406,0.278870370745519,0.228642529740265,0.23897893745781
"stimuli/m5.jpg","stimuli/m2.jpg",1,"stimuli/Electronic device & accessory.png","stimuli/Hand labour tool & accessory.png","stimuli/Kitchen & utensil.png","stimuli/Outdoor activity & sport item.png",2,1,2,"stimuli/m5.jpg","Hand labour tool & accessory","stimuli/objects/puttyknife.jpg",1,2,1,0.675,2,"Hand labour tool & accessory",NA,NA,NA,NA,0.243828204976374,1,0.00320513583805693,1.37918304770154,0.251964570751588,0.26616740761749,0.238039816654548,0.243828204976374,0.239651138670584,0.302029583629678,0.226406883078978,0.23191239462076
"stimuli/m5.jpg","stimuli/m2.jpg",1,"stimuli/Outdoor activity & sport item.png","stimuli/Hand labour tool & accessory.png","stimuli/Electronic device & accessory.png","stimuli/Kitchen & utensil.png",1,0,2,"stimuli/m5.jpg","Outdoor activity & sport item","stimuli/objects/treadmill.jpg",1,2,0,0.445,2,"Hand labour tool & accessory",NA,NA,NA,NA,0.239870940987626,0,0.00296708130379798,1.38616796211527,0.244204637655527,0.279136566832619,0.236787854524228,0.239870940987626,0.255755986458078,0.245038340707747,0.247988375227177,0.251217297606998
"stimuli/m2.jpg","stimuli/m5.jpg",1,"stimuli/Outdoor activity & sport item.png","stimuli/Electronic device & accessory.png","stimuli/Kitchen & utensil.png","stimuli/Hand labour tool & accessory.png",1,1,2,"stimuli/m2.jpg","Outdoor activity & sport item","stimuli/objects/exercisebike.jpg",1,4,0,1.569,4,"Hand labour tool & accessory",NA,NA,NA,NA,0.249986230787661,0,0.00274651052126639,1.38237315227878,0.251959210855866,0.265673215644704,0.232381342711769,0.249986230787661,0.262580282972486,0.276872387023404,0.242177130653456,0.218370199350654
"stimuli/m5.jpg","stimuli/m2.jpg",2,"stimuli/Hand labour tool & accessory.png","stimuli/Outdoor activity & sport item.png","stimuli/Kitchen & utensil.png","stimuli/Electronic device & accessory.png",2,1,2,"stimuli/m2.jpg","Outdoor activity & sport item","stimuli/objects/bikelock.jpg",1,2,1,0.824,2,"Outdoor activity & sport item",NA,NA,NA,NA,0.257044958464592,1,0.00319740184444206,1.37908752882713,0.257044958464592,0.265048536733106,0.245619193165935,0.232287311636366,0.244533483992952,0.300821759151025,0.233663859424333,0.220980897431691
"stimuli/m5.jpg","stimuli/m2.jpg",2,"stimuli/Outdoor activity & sport item.png","stimuli/Electronic device & accessory.png","stimuli/Hand labour tool & accessory.png","stimuli/Kitchen & utensil.png",1,1,2,"stimuli/m2.jpg","Outdoor activity & sport item","stimuli/objects/bikepump01.jpg",1,1,1,1.024,1,"Outdoor activity & sport item",NA,NA,NA,NA,0.246938751036053,1,0.00306588004361706,1.38160321281054,0.246938751036053,0.278460185124574,0.240851761277626,0.233749302561747,0.28120292723735,0.265790287607897,0.229893041521215,0.223113743633539
"stimuli/m2.jpg","stimuli/m5.jpg",1,"stimuli/Hand labour tool & accessory.png","stimuli/Outdoor activity & sport item.png","stimuli/Electronic device & accessory.png","stimuli/Kitchen & utensil.png",2,1,2,"stimuli/m2.jpg","Outdoor activity & sport item","stimuli/objects/propanetank01.jpg",1,2,1,1.359,2,"Outdoor activity & sport item",NA,NA,NA,NA,0.267473639252916,1,0.00315367874546857,1.3800848631355,0.267473639252916,0.258842561060422,0.23874010325188,0.234943696434782,0.254744884815999,0.294113367804992,0.227378743840817,0.223763003538192
"stimuli/m5.jpg","stimuli/m2.jpg",1,"stimuli/Outdoor activity & sport item.png","stimuli/Electronic device & accessory.png","stimuli/Kitchen & utensil.png","stimuli/Hand labour tool & accessory.png",4,1,2,"stimuli/m5.jpg","Hand labour tool & accessory","stimuli/objects/metalbrush.jpg",1,4,1,0.994,4,"Hand labour tool & accessory",NA,NA,NA,NA,0.250681686659919,1,0.00309404588424512,1.38303679717008,0.253223352416524,0.247221470796339,0.248873490127219,0.250681686659919,0.241535150690098,0.235810301983526,0.237386067939625,0.285268479386751
"stimuli/m2.jpg","stimuli/m5.jpg",1,"stimuli/Kitchen & utensil.png","stimuli/Hand labour tool & accessory.png","stimuli/Outdoor activity & sport item.png","stimuli/Electronic device & accessory.png",2,0,2,"stimuli/m2.jpg","Hand labour tool & accessory","stimuli/objects/bungeecord02.jpg",1,3,0,1.002,3,"Outdoor activity & sport item",NA,NA,NA,NA,0.252657135496959,0,0.00264392261708588,1.37953214873802,0.252657135496959,0.274703485970796,0.237332096550857,0.235307281981388,0.262746977406706,0.28567374707207,0.20687501660216,0.244704258919064
"stimuli/m2.jpg","stimuli/m5.jpg",2,"stimuli/Outdoor activity & sport item.png","stimuli/Hand labour tool & accessory.png","stimuli/Kitchen & utensil.png","stimuli/Electronic device & accessory.png",2,1,2,"stimuli/m5.jpg","Hand labour tool & accessory","stimuli/objects/weedwacker.jpg",1,2,1,0.702,2,"Hand labour tool & accessory",NA,NA,NA,NA,0.269750348456581,1,0.00302834559022749,1.3837200857718,0.245259684386455,0.242053769110775,0.24293619804619,0.269750348456581,0.234311304956486,0.275888449050322,0.232091538924421,0.257708707068772
"stimuli/m5.jpg","stimuli/m2.jpg",2,"stimuli/Electronic device & accessory.png","stimuli/Kitchen & utensil.png","stimuli/Outdoor activity & sport item.png","stimuli/Hand labour tool & accessory.png",3,1,2,"stimuli/m2.jpg","Outdoor activity & sport item","stimuli/objects/toyhockeystick01.jpg",1,3,1,0.744,3,"Outdoor activity & sport item",NA,NA,NA,NA,0.257138307347755,1,0.00289752341907379,1.38562644760155,0.257138307347755,0.269977298360359,0.22585000929721,0.247034384994676,0.246395977724125,0.258698601071736,0.258191259669573,0.236714161534565
"stimuli/m2.jpg","stimuli/m5.jpg",2,"stimuli/Outdoor activity & sport item.png","stimuli/Electronic device & accessory.png","stimuli/Kitchen & utensil.png","stimuli/Hand labour tool & accessory.png",4,1,2,"stimuli/m5.jpg","Hand labour tool & accessory","stimuli/objects/hedgeshears.jpg",1,4,1,1.11,4,"Hand labour tool & accessory",NA,NA,NA,NA,0.254316875958512,1,0.00312090943111445,1.38160056100755,0.241214330775632,0.26449753146818,0.239971261797676,0.254316875958512,0.229926538000272,0.252120185084129,0.228741639301766,0.289211637613834
"stimuli/m2.jpg","stimuli/m5.jpg",2,"stimuli/Electronic device & accessory.png","stimuli/Hand labour tool & accessory.png","stimuli/Kitchen & utensil.png","stimuli/Outdoor activity & sport item.png",2,1,2,"stimuli/m5.jpg","Hand labour tool & accessory","stimuli/objects/caulking.jpg",1,2,1,0.664,2,"Hand labour tool & accessory",NA,NA,NA,NA,0.271958517063747,1,0.00309781129127929,1.3815613346606,0.238758861280152,0.251187303647112,0.238095318008989,0.271958517063747,0.227717106728376,0.285817247658616,0.227084249991297,0.25938139562171
"stimuli/m5.jpg","stimuli/m2.jpg",2,"stimuli/Electronic device & accessory.png","stimuli/Kitchen & utensil.png","stimuli/Hand labour tool & accessory.png","stimuli/Outdoor activity & sport item.png",4,1,2,"stimuli/m2.jpg","Outdoor activity & sport item","stimuli/objects/soccerball.jpg",1,4,1,0.848,4,"Outdoor activity & sport item",NA,NA,NA,NA,0.24798174752551,1,0.00303227556851679,1.38441382034067,0.24798174752551,0.254871216600172,0.254587105414961,0.242559930459356,0.236889742370851,0.243471051561765,0.243199648419635,0.276439557647749
"stimuli/m5.jpg","stimuli/m2.jpg",1,"stimuli/Hand labour tool & accessory.png","stimuli/Electronic device & accessory.png","stimuli/Kitchen & utensil.png","stimuli/Outdoor activity & sport item.png",1,1,2,"stimuli/m5.jpg","Hand labour tool & accessory","stimuli/objects/axe01.jpg",1,1,1,0.76,1,"Hand labour tool & accessory",NA,NA,NA,NA,0.255253581548158,1,0.00299273493862819,1.38412110364477,0.237521579767891,0.270057658688825,0.237167179995126,0.255253581548158,0.270949211193012,0.258218126396969,0.226769591199631,0.244063071210388
"stimuli/m2.jpg","stimuli/m5.jpg",2,"stimuli/Outdoor activity & sport item.png","stimuli/Hand labour tool & accessory.png","stimuli/Electronic device & accessory.png","stimuli/Kitchen & utensil.png",4,1,3,"stimuli/m5.jpg","Kitchen & utensil","stimuli/objects/toothpick02.jpg",1,3,0,0.768,3,"Electronic device & accessory",NA,NA,NA,NA,0.236990971071793,0,0.00264110034043562,1.38081540648247,0.261731558268087,0.254602150782303,0.236990971071793,0.246675319877817,0.272168164102592,0.26475446986035,0.206565811279119,0.256511554757939
"stimuli/m5.jpg","stimuli/m2.jpg",1,"stimuli/Electronic device & accessory.png","stimuli/Kitchen & utensil.png","stimuli/Outdoor activity & sport item.png","stimuli/Hand labour tool & accessory.png",2,1,3,"stimuli/m5.jpg","Kitchen & utensil","stimuli/objects/woodenspoon.jpg",1,2,1,0.835,2,"Kitchen & utensil",NA,NA,NA,NA,0.258262503121796,1,0.003149520440252,1.3799925846968,0.262414171897452,0.258262503121796,0.225676854316307,0.253646470664446,0.249952847761729,0.293485567887639,0.214960083910077,0.241601500440555
"stimuli/m5.jpg","stimuli/m2.jpg",1,"stimuli/Hand labour tool & accessory.png","stimuli/Kitchen & utensil.png","stimuli/Electronic device & accessory.png","stimuli/Outdoor activity & sport item.png",4,0,3,"stimuli/m5.jpg","Outdoor activity & sport item","stimuli/objects/baseballbat.jpg",1,2,0,0.527,2,"Kitchen & utensil",NA,NA,NA,NA,0.274351918017078,0,0.00293239743375587,1.3856027764142,0.249973594746568,0.274351918017078,0.230377646989643,0.245296840246711,0.261585733385547,0.240643053128217,0.241079486033394,0.256691727452842
"stimuli/m5.jpg","stimuli/m2.jpg",1,"stimuli/Electronic device & accessory.png","stimuli/Outdoor activity & sport item.png","stimuli/Hand labour tool & accessory.png","stimuli/Kitchen & utensil.png",4,1,3,"stimuli/m5.jpg","Kitchen & utensil","stimuli/objects/gravyboat.jpg",1,2,0,0.896,2,"Outdoor activity & sport item",NA,NA,NA,NA,0.256488010695906,0,0.00270463985796504,1.3824903307082,0.256488010695906,0.244760109751802,0.245004512178701,0.253747367373591,0.267064637552519,0.213616780733374,0.255107601584205,0.264210980129902
"stimuli/m2.jpg","stimuli/m5.jpg",1,"stimuli/Hand labour tool & accessory.png","stimuli/Electronic device & accessory.png","stimuli/Outdoor activity & sport item.png","stimuli/Kitchen & utensil.png",2,1,3,"stimuli/m2.jpg","Electronic device & accessory","stimuli/objects/videocamera01a.jpg",1,3,0,0.975,3,"Outdoor activity & sport item",NA,NA,NA,NA,0.242658255727676,0,0.00271618011751059,1.38232173499872,0.242658255727676,0.246343788874589,0.246191803114996,0.264806152282739,0.252725553217449,0.256563990119839,0.214918144835727,0.275792311826985
"stimuli/m2.jpg","stimuli/m5.jpg",2,"stimuli/Hand labour tool & accessory.png","stimuli/Kitchen & utensil.png","stimuli/Electronic device & accessory.png","stimuli/Outdoor activity & sport item.png",2,1,3,"stimuli/m5.jpg","Kitchen & utensil","stimuli/objects/coffeepot03a.jpg",1,2,1,0.707,2,"Kitchen & utensil",NA,NA,NA,NA,0.229625397210689,1,0.00292887548018543,1.38584795579924,0.259556197029411,0.229625397210689,0.252860256887155,0.257958148872745,0.248539289098601,0.262324081227092,0.242127559300393,0.247009070373914
"stimuli/m5.jpg","stimuli/m2.jpg",2,"stimuli/Electronic device & accessory.png","stimuli/Kitchen & utensil.png","stimuli/Hand labour tool & accessory.png","stimuli/Outdoor activity & sport item.png",1,1,3,"stimuli/m2.jpg","Electronic device & accessory","stimuli/objects/filmnegative.jpg",1,1,1,0.913,1,"Electronic device & accessory",NA,NA,NA,NA,0.230354161108007,1,0.00310033067673537,1.38173537629923,0.251526309801772,0.25367583446711,0.230354161108007,0.264443694623111,0.2861851286806,0.241929122570794,0.219687382499246,0.25219836624936
"stimuli/m2.jpg","stimuli/m5.jpg",2,"stimuli/Outdoor activity & sport item.png","stimuli/Hand labour tool & accessory.png","stimuli/Kitchen & utensil.png","stimuli/Electronic device & accessory.png",3,1,3,"stimuli/m5.jpg","Kitchen & utensil","stimuli/objects/dishrack.jpg",1,3,1,0.902,3,"Kitchen & utensil",NA,NA,NA,NA,0.256901485487172,1,0.00305561544546053,1.38390994104121,0.249182001895217,0.256901485487172,0.24559143320822,0.248325079409392,0.237903317123223,0.245273394974097,0.279738106520981,0.237085181381698
"stimuli/m5.jpg","stimuli/m2.jpg",2,"stimuli/Kitchen & utensil.png","stimuli/Outdoor activity & sport item.png","stimuli/Hand labour tool & accessory.png","stimuli/Electronic device & accessory.png",2,0,3,"stimuli/m2.jpg","Outdoor activity & sport item","stimuli/objects/catchermask.jpg",1,1,0,0.891,1,"Kitchen & utensil",NA,NA,NA,NA,0.245480308639644,0,0.00290228662584778,1.38545669428508,0.270263672061136,0.245480308639644,0.233024934199578,0.251231085099642,0.236893135418536,0.256706020339696,0.243681066843146,0.262719777398623
"stimuli/m5.jpg","stimuli/m2.jpg",1,"stimuli/Outdoor activity & sport item.png","stimuli/Hand labour tool & accessory.png","stimuli/Kitchen & utensil.png","stimuli/Electronic device & accessory.png",3,1,3,"stimuli/m5.jpg","Kitchen & utensil","stimuli/objects/spatula04.jpg",1,3,1,0.761,3,"Kitchen & utensil",NA,NA,NA,NA,0.247353101185494,1,0.00320848062255355,1.37921077467112,0.243225857589005,0.247353101185494,0.266653339651749,0.242767701573751,0.231318845591298,0.23524404184172,0.302553994170151,0.23088311839683
"stimuli/m5.jpg","stimuli/m2.jpg",2,"stimuli/Kitchen & utensil.png","stimuli/Hand labour tool & accessory.png","stimuli/Electronic device & accessory.png","stimuli/Outdoor activity & sport item.png",2,0,3,"stimuli/m2.jpg","Hand labour tool & accessory","stimuli/objects/bucket02.jpg",1,1,0,0.938,1,"Kitchen & utensil",NA,NA,NA,NA,0.25375537139023,0,0.0026876178954763,1.38211561389341,0.24266015583438,0.25375537139023,0.246461397432161,0.257123075343229,0.211709124197497,0.264125868318965,0.256533803589,0.267631203894538
"stimuli/m5.jpg","stimuli/m2.jpg",2,"stimuli/Outdoor activity & sport item.png","stimuli/Hand labour tool & accessory.png","stimuli/Electronic device & accessory.png","stimuli/Kitchen & utensil.png",3,1,3,"stimuli/m2.jpg","Electronic device & accessory","stimuli/objects/usbcable01a.jpg",1,1,0,1.483,1,"Outdoor activity & sport item",NA,NA,NA,NA,0.228557109550598,0,0.00257038066367161,1.37894074998073,0.228557109550598,0.25791048625862,0.25365893000984,0.259873474180941,0.198932402985301,0.267814683406738,0.263399860235837,0.269853053372124
"stimuli/m5.jpg","stimuli/m2.jpg",2,"stimuli/Kitchen & utensil.png","stimuli/Hand labour tool & accessory.png","stimuli/Outdoor activity & sport item.png","stimuli/Electronic device & accessory.png",4,1,3,"stimuli/m2.jpg","Electronic device & accessory","stimuli/objects/antenna.jpg",1,4,1,1.151,4,"Electronic device & accessory",NA,NA,NA,NA,0.257503921732069,1,0.00316987048785406,1.37889123377289,0.221402145671769,0.259976222707773,0.257503921732069,0.261117709888389,0.210777712648303,0.247500734010626,0.245147071434068,0.296574481907004
"stimuli/m2.jpg","stimuli/m5.jpg",2,"stimuli/Electronic device & accessory.png","stimuli/Hand labour tool & accessory.png","stimuli/Kitchen & utensil.png","stimuli/Outdoor activity & sport item.png",1,0,3,"stimuli/m5.jpg","Electronic device & accessory","stimuli/objects/computerkeyboard02.jpg",1,3,0,1.047,3,"Kitchen & utensil",NA,NA,NA,NA,0.241736663431363,0,0.00296919053752649,1.38622753505668,0.239538553531127,0.241736663431363,0.279430236735285,0.239294546302225,0.250881672639096,0.253183871931387,0.24530834474828,0.250626110681237
"stimuli/m2.jpg","stimuli/m5.jpg",1,"stimuli/Outdoor activity & sport item.png","stimuli/Hand labour tool & accessory.png","stimuli/Kitchen & utensil.png","stimuli/Electronic device & accessory.png",4,1,3,"stimuli/m2.jpg","Electronic device & accessory","stimuli/objects/ipad02.jpg",1,4,1,0.906,4,"Electronic device & accessory",NA,NA,NA,NA,0.247282360003078,1,0.00327168868360701,1.37579065179212,0.22803551908305,0.24860041104595,0.247282360003078,0.276081709867922,0.216497398691538,0.236021750126978,0.234770389710531,0.312710461470954
"stimuli/m5.jpg","stimuli/m2.jpg",2,"stimuli/Outdoor activity & sport item.png","stimuli/Kitchen & utensil.png","stimuli/Hand labour tool & accessory.png","stimuli/Electronic device & accessory.png",4,1,3,"stimuli/m2.jpg","Electronic device & accessory","stimuli/objects/fanblades.jpg",1,4,1,1.269,4,"Electronic device & accessory",NA,NA,NA,NA,0.241471418237897,1,0.00332926509922066,1.37293114093362,0.231238543267261,0.242172180071108,0.241471418237897,0.285117858423734,0.219175387097997,0.229538642483594,0.228874437702301,0.322411532716108
"stimuli/m2.jpg","stimuli/m5.jpg",1,"stimuli/Kitchen & utensil.png","stimuli/Hand labour tool & accessory.png","stimuli/Electronic device & accessory.png","stimuli/Outdoor activity & sport item.png",2,0,3,"stimuli/m2.jpg","Hand labour tool & accessory","stimuli/objects/pipewrench.jpg",1,2,1,0.843,2,"Hand labour tool & accessory",NA,NA,NA,NA,0.290550458321021,1,0.00300081601786788,1.38126220928079,0.232738216774878,0.238541639790812,0.238169685113288,0.290550458321021,0.222492906453264,0.272061606152317,0.227685277494289,0.277760209900129
"stimuli/m5.jpg","stimuli/m2.jpg",2,"stimuli/Outdoor activity & sport item.png","stimuli/Electronic device & accessory.png","stimuli/Hand labour tool & accessory.png","stimuli/Kitchen & utensil.png",2,1,3,"stimuli/m2.jpg","Electronic device & accessory","stimuli/objects/payphone.jpg",1,2,1,0.915,2,"Electronic device & accessory",NA,NA,NA,NA,0.237503755396802,1,0.00317859343626407,1.37929037044786,0.234596027613828,0.262354499445298,0.237503755396802,0.265545717544072,0.22328770786117,0.297911500427912,0.226055273358115,0.252745518352803
"stimuli/m5.jpg","stimuli/m2.jpg",1,"stimuli/Electronic device & accessory.png","stimuli/Hand labour tool & accessory.png","stimuli/Outdoor activity & sport item.png","stimuli/Kitchen & utensil.png",4,1,3,"stimuli/m5.jpg","Kitchen & utensil","stimuli/objects/martiniglass01b.jpg",1,4,1,1.088,4,"Kitchen & utensil",NA,NA,NA,NA,0.251782968281577,1,0.00309157531932303,1.38311821174514,0.250493736677894,0.251782968281577,0.247372673059037,0.250350621981493,0.238946093465747,0.240175892100069,0.235968909408875,0.284909105025309
"stimuli/m2.jpg","stimuli/m5.jpg",1,"stimuli/Kitchen & utensil.png","stimuli/Outdoor activity & sport item.png","stimuli/Hand labour tool & accessory.png","stimuli/Electronic device & accessory.png",4,1,3,"stimuli/m2.jpg","Electronic device & accessory","stimuli/objects/satellitedish01.jpg",1,2,0,0.895,2,"Outdoor activity & sport item",NA,NA,NA,NA,0.235041116402255,0,0.00295043919971225,1.38580183511594,0.235041116402255,0.27683044023963,0.236590953080545,0.25153749027757,0.246062853741964,0.24291899078025,0.247685366610058,0.263332788867729
"stimuli/m5.jpg","stimuli/m2.jpg",2,"stimuli/Electronic device & accessory.png","stimuli/Hand labour tool & accessory.png","stimuli/Kitchen & utensil.png","stimuli/Outdoor activity & sport item.png",1,1,3,"stimuli/m2.jpg","Electronic device & accessory","stimuli/objects/electricoutlet.jpg",1,1,1,0.547,1,"Electronic device & accessory",NA,NA,NA,NA,0.248703805301632,1,0.00307237023811767,1.38347832701086,0.2477951980955,0.24603463483694,0.248703805301632,0.257466361765928,0.282133689107691,0.234803041957387,0.237350363577483,0.245712905357438
"stimuli/m2.jpg","stimuli/m5.jpg",2,"stimuli/Hand labour tool & accessory.png","stimuli/Kitchen & utensil.png","stimuli/Outdoor activity & sport item.png","stimuli/Electronic device & accessory.png",2,1,3,"stimuli/m5.jpg","Kitchen & utensil","stimuli/objects/handmixer01d.jpg",1,2,1,0.93,2,"Kitchen & utensil",NA,NA,NA,NA,0.244498499576039,1,0.00304723983459127,1.38328725126301,0.243809812340818,0.244498499576039,0.24214258926897,0.269549098814173,0.23282118509665,0.278549320955465,0.23122910458241,0.257400389365474
"stimuli/m2.jpg","stimuli/m5.jpg",2,"stimuli/Electronic device & accessory.png","stimuli/Hand labour tool & accessory.png","stimuli/Outdoor activity & sport item.png","stimuli/Kitchen & utensil.png",4,1,3,"stimuli/m5.jpg","Kitchen & utensil","stimuli/objects/pitcher02b.jpg",1,4,1,1.471,4,"Kitchen & utensil",NA,NA,NA,NA,0.26598761973506,1,0.00311964444933403,1.38150363213327,0.240379863654124,0.26598761973506,0.23948829856615,0.254144218044666,0.229138400076719,0.253548598871005,0.228288529398214,0.289024471654062
"stimuli/m2.jpg","stimuli/m5.jpg",1,"stimuli/Electronic device & accessory.png","stimuli/Outdoor activity & sport item.png","stimuli/Hand labour tool & accessory.png","stimuli/Kitchen & utensil.png",1,1,3,"stimuli/m2.jpg","Electronic device & accessory","stimuli/objects/nintendods.jpg",1,1,1,0.77,1,"Electronic device & accessory",NA,NA,NA,NA,0.242916203603391,1,0.00321767026326855,1.37880957632852,0.267994865900307,0.241489703496137,0.242916203603391,0.247599227000165,0.304001263510924,0.22961113341801,0.23096746580695,0.235420137264116
"stimuli/m2.jpg","stimuli/m5.jpg",2,"stimuli/Outdoor activity & sport item.png","stimuli/Electronic device & accessory.png","stimuli/Hand labour tool & accessory.png","stimuli/Kitchen & utensil.png",4,1,3,"stimuli/m5.jpg","Kitchen & utensil","stimuli/objects/shotglass.jpg",1,4,1,0.963,4,"Kitchen & utensil",NA,NA,NA,NA,0.251987215367763,1,0.0032437409013388,1.3774333049967,0.238317504042963,0.251987215367763,0.237841576463,0.271853704126274,0.226434594756736,0.239422711415237,0.225982397721797,0.30816029610623
"stimuli/m2.jpg","stimuli/m5.jpg",1,"stimuli/Outdoor activity & sport item.png","stimuli/Electronic device & accessory.png","stimuli/Kitchen & utensil.png","stimuli/Hand labour tool & accessory.png",3,0,3,"stimuli/m2.jpg","Kitchen & utensil","stimuli/objects/cookiecutter.jpg",1,2,0,0.76,2,"Electronic device & accessory",NA,NA,NA,NA,0.239341780851892,0,0.00265424014420059,1.37927760973453,0.280240707566118,0.238582234714085,0.239341780851892,0.241835276867905,0.291493414463841,0.208008478981397,0.248952243698979,0.251545862855782
"stimuli/m2.jpg","stimuli/m5.jpg",1,"stimuli/Outdoor activity & sport item.png","stimuli/Electronic device & accessory.png","stimuli/Hand labour tool & accessory.png","stimuli/Kitchen & utensil.png",2,1,3,"stimuli/m2.jpg","Electronic device & accessory","stimuli/objects/cellphone.jpg",1,4,0,0.987,4,"Kitchen & utensil",NA,NA,NA,NA,0.226484748229583,0,0.00275348744510686,1.38140197254636,0.273236312099751,0.226484748229583,0.249413256471428,0.250865683199238,0.284796532419088,0.236066979699416,0.259965558884002,0.219170928997494
"stimuli/m2.jpg","stimuli/m5.jpg",1,"stimuli/Hand labour tool & accessory.png","stimuli/Outdoor activity & sport item.png","stimuli/Kitchen & utensil.png","stimuli/Electronic device & accessory.png",4,1,3,"stimuli/m2.jpg","Electronic device & accessory","stimuli/objects/vhstape.jpg",1,4,1,1.37,4,"Electronic device & accessory",NA,NA,NA,NA,0.255580712975041,1,0.0029543060810475,1.38494709655567,0.269486058154689,0.242197508631673,0.255580712975041,0.232735720238597,0.257899401806139,0.231784133927964,0.244591922271593,0.265724541994304
"stimuli/m5.jpg","stimuli/m2.jpg",1,"stimuli/Outdoor activity & sport item.png","stimuli/Electronic device & accessory.png","stimuli/Kitchen & utensil.png","stimuli/Hand labour tool & accessory.png",4,0,3,"stimuli/m5.jpg","Hand labour tool & accessory","stimuli/objects/snowshovel.jpg",1,3,0,1.157,3,"Kitchen & utensil",NA,NA,NA,NA,0.244076718392533,0,0.0026374487802493,1.37851465621269,0.236803373063772,0.244076718392533,0.236550142724206,0.282569765819489,0.24622769856423,0.253790509253929,0.206166285158515,0.293815507023326
"stimuli/m5.jpg","stimuli/m2.jpg",1,"stimuli/Hand labour tool & accessory.png","stimuli/Electronic device & accessory.png","stimuli/Kitchen & utensil.png","stimuli/Outdoor activity & sport item.png",4,0,3,"stimuli/m5.jpg","Outdoor activity & sport item","stimuli/objects/charcoalbarbecue.jpg",1,3,0,0.685,3,"Kitchen & utensil",NA,NA,NA,NA,0.2521226851822,0,0.0025438981018277,1.37731453134345,0.247887511195969,0.2521226851822,0.225453119688768,0.274536683933063,0.257272634888698,0.261668154313589,0.196128454470795,0.284930756326918
"stimuli/m2.jpg","stimuli/m5.jpg",2,"stimuli/Electronic device & accessory.png","stimuli/Outdoor activity & sport item.png","stimuli/Kitchen & utensil.png","stimuli/Hand labour tool & accessory.png",3,1,3,"stimuli/m5.jpg","Kitchen & utensil","stimuli/objects/butterknife.jpg",1,1,0,0.787,1,"Electronic device & accessory",NA,NA,NA,NA,0.219831934503645,0,0.00277876039000799,1.38132805903439,0.254072675537671,0.25653416641561,0.219831934503645,0.269561223543074,0.222092866026352,0.267532441322659,0.229256690990477,0.281118001660512
"stimuli/m2.jpg","stimuli/m5.jpg",1,"stimuli/Electronic device & accessory.png","stimuli/Kitchen & utensil.png","stimuli/Outdoor activity & sport item.png","stimuli/Hand labour tool & accessory.png",1,1,3,"stimuli/m2.jpg","Electronic device & accessory","stimuli/objects/gps.jpg",1,3,0,1.196,3,"Outdoor activity & sport item",NA,NA,NA,NA,0.254423665011438,0,0.00272244258525464,1.3826254214554,0.254423665011438,0.23979911499966,0.246971476472092,0.25880574351681,0.265013900299526,0.249780612002337,0.215627107454987,0.269578380243149
"stimuli/m5.jpg","stimuli/m2.jpg",1,"stimuli/Kitchen & utensil.png","stimuli/Outdoor activity & sport item.png","stimuli/Hand labour tool & accessory.png","stimuli/Electronic device & accessory.png",4,0,3,"stimuli/m5.jpg","Electronic device & accessory","stimuli/objects/ethernetcable02.jpg",1,1,0,1.003,1,"Kitchen & utensil",NA,NA,NA,NA,0.259818167140689,0,0.00261933363004555,1.37951207076944,0.234372004974757,0.259818167140689,0.238383746954667,0.267426080929887,0.204193091672894,0.270059472306299,0.247780167251029,0.277967268769778
"stimuli/m5.jpg","stimuli/m2.jpg",1,"stimuli/Kitchen & utensil.png","stimuli/Electronic device & accessory.png","stimuli/Outdoor activity & sport item.png","stimuli/Hand labour tool & accessory.png",1,1,3,"stimuli/m5.jpg","Kitchen & utensil","stimuli/objects/waterbottle03.jpg",1,2,0,0.719,2,"Electronic device & accessory",NA,NA,NA,NA,0.248756893660576,0,0.00283423067026518,1.38321153298802,0.224348131336821,0.261233304491528,0.248756893660576,0.265661670511075,0.234249551008481,0.22862844592601,0.259735573918243,0.277386429147266
"stimuli/m2.jpg","stimuli/m5.jpg",2,"stimuli/Outdoor activity & sport item.png","stimuli/Kitchen & utensil.png","stimuli/Electronic device & accessory.png","stimuli/Hand labour tool & accessory.png",2,1,3,"stimuli/m5.jpg","Kitchen & utensil","stimuli/objects/peeler01.jpg",1,2,1,0.543,2,"Kitchen & utensil",NA,NA,NA,NA,0.238031929718565,1,0.00299678282345748,1.38452650359303,0.241179748564749,0.238031929718565,0.255451921394216,0.265336400322469,0.23058452505452,0.271505809927553,0.244229709664599,0.253679955353328
"stimuli/m5.jpg","stimuli/m2.jpg",2,"stimuli/Electronic device & accessory.png","stimuli/Kitchen & utensil.png","stimuli/Outdoor activity & sport item.png","stimuli/Hand labour tool & accessory.png",1,1,3,"stimuli/m2.jpg","Electronic device & accessory","stimuli/objects/dvdplayer.jpg",1,1,1,0.413,1,"Electronic device & accessory",NA,NA,NA,NA,0.230751180174793,1,0.00315056307842309,1.3804885791036,0.258407784167735,0.249877142721309,0.230751180174793,0.260963892936163,0.293642818937554,0.238004809619636,0.219787572840389,0.248564798602421
"stimuli/m5.jpg","stimuli/m2.jpg",1,"stimuli/Outdoor activity & sport item.png","stimuli/Kitchen & utensil.png","stimuli/Hand labour tool & accessory.png","stimuli/Electronic device & accessory.png",2,1,3,"stimuli/m5.jpg","Kitchen & utensil","stimuli/objects/tupperware03a.jpg",1,2,1,0.674,2,"Kitchen & utensil",NA,NA,NA,NA,0.26204325355943,1,0.00317640348776101,1.38032442367663,0.239127334030531,0.26204325355943,0.246768637412176,0.252060774997864,0.227613606421737,0.2975750885127,0.234886989146929,0.239924315918634
"stimuli/m2.jpg","stimuli/m5.jpg",2,"stimuli/Outdoor activity & sport item.png","stimuli/Electronic device & accessory.png","stimuli/Kitchen & utensil.png","stimuli/Hand labour tool & accessory.png",3,1,3,"stimuli/m5.jpg","Kitchen & utensil","stimuli/objects/espressomachine.jpg",1,3,1,0.933,3,"Kitchen & utensil",NA,NA,NA,NA,0.276642049567112,1,0.003024321273613,1.38298847604705,0.237463619596173,0.276642049567112,0.24153671392228,0.244357616914435,0.226884890959572,0.264317967348453,0.275325372993028,0.233471768698947
"stimuli/m2.jpg","stimuli/m5.jpg",2,"stimuli/Hand labour tool & accessory.png","stimuli/Electronic device & accessory.png","stimuli/Outdoor activity & sport item.png","stimuli/Kitchen & utensil.png",4,1,3,"stimuli/m5.jpg","Kitchen & utensil","stimuli/objects/bowl02a.jpg",1,2,0,0.712,2,"Electronic device & accessory",NA,NA,NA,NA,0.264182208876096,0,0.00280948782159427,1.38377842249928,0.23705553893736,0.258018061715134,0.264182208876096,0.24074419047141,0.247383410742311,0.225691905682053,0.27569191667981,0.251232766895826
"stimuli/m2.jpg","stimuli/m5.jpg",2,"stimuli/Outdoor activity & sport item.png","stimuli/Kitchen & utensil.png","stimuli/Hand labour tool & accessory.png","stimuli/Electronic device & accessory.png",2,1,3,"stimuli/m5.jpg","Kitchen & utensil","stimuli/objects/towel01.jpg",1,2,1,1.118,2,"Kitchen & utensil",NA,NA,NA,NA,0.236387467181949,1,0.00298370511891855,1.38499941619137,0.248534710015694,0.236387467181949,0.264387473340694,0.250690349461662,0.237688515393938,0.269711947879371,0.252849455205414,0.239750081521278
"stimuli/m5.jpg","stimuli/m2.jpg",1,"stimuli/Electronic device & accessory.png","stimuli/Hand labour tool & accessory.png","stimuli/Kitchen & utensil.png","stimuli/Outdoor activity & sport item.png",2,0,3,"stimuli/m5.jpg","Hand labour tool & accessory","stimuli/objects/staplegun.jpg",1,3,0,1.02,3,"Kitchen & utensil",NA,NA,NA,NA,0.261038690812448,0,0.00275926367831631,1.38338016884462,0.243105568620605,0.261038690812448,0.251595694915032,0.244260045651916,0.253422202635226,0.272116350004083,0.219835775328088,0.254625672032602
"stimuli/m2.jpg","stimuli/m5.jpg",1,"stimuli/Kitchen & utensil.png","stimuli/Outdoor activity & sport item.png","stimuli/Electronic device & accessory.png","stimuli/Hand labour tool & accessory.png",3,1,3,"stimuli/m2.jpg","Electronic device & accessory","stimuli/objects/lightbulb01.jpg",1,3,1,0.842,3,"Electronic device & accessory",NA,NA,NA,NA,0.233081040790618,1,0.00295710732110821,1.38459773628015,0.27443997860503,0.243282693386996,0.233081040790618,0.249196287217356,0.262623572687008,0.232807808960527,0.266101833804478,0.238466784547987
"stimuli/m5.jpg","stimuli/m2.jpg",2,"stimuli/Outdoor activity & sport item.png","stimuli/Hand labour tool & accessory.png","stimuli/Kitchen & utensil.png","stimuli/Electronic device & accessory.png",4,1,3,"stimuli/m2.jpg","Electronic device & accessory","stimuli/objects/outletadapter.jpg",1,4,1,0.904,4,"Electronic device & accessory",NA,NA,NA,NA,0.259017026930507,1,0.00303986905790656,1.38392195331247,0.257069200704725,0.240372373017895,0.259017026930507,0.243541399346873,0.245526284662219,0.22957917759395,0.247386649634269,0.277507888109563
"stimuli/m5.jpg","stimuli/m2.jpg",2,"stimuli/Electronic device & accessory.png","stimuli/Outdoor activity & sport item.png","stimuli/Hand labour tool & accessory.png","stimuli/Kitchen & utensil.png",1,1,3,"stimuli/m2.jpg","Electronic device & accessory","stimuli/objects/securitycamera.jpg",1,1,1,1.011,1,"Electronic device & accessory",NA,NA,NA,NA,0.248536523795191,1,0.00307009626557139,1.38296994887791,0.247494719410842,0.238564339452612,0.248536523795191,0.265404417341355,0.281807171020577,0.227686372793206,0.237203849240007,0.25330260694621
"stimuli/m2.jpg","stimuli/m5.jpg",2,"stimuli/Electronic device & accessory.png","stimuli/Kitchen & utensil.png","stimuli/Hand labour tool & accessory.png","stimuli/Outdoor activity & sport item.png",2,1,3,"stimuli/m5.jpg","Kitchen & utensil","stimuli/objects/funnel.jpg",1,2,1,0.686,2,"Kitchen & utensil",NA,NA,NA,NA,0.262385156002287,1,0.00317880894753952,1.37992171495421,0.251916433475727,0.262385156002287,0.233108034183729,0.252590376338257,0.239771861194533,0.297944633663258,0.221870191017201,0.240413314125007
"stimuli/m5.jpg","stimuli/m2.jpg",2,"stimuli/Hand labour tool & accessory.png","stimuli/Outdoor activity & sport item.png","stimuli/Kitchen & utensil.png","stimuli/Electronic device & accessory.png",3,0,3,"stimuli/m2.jpg","Kitchen & utensil","stimuli/objects/rollingpin01a.jpg",1,4,0,0.864,4,"Electronic device & accessory",NA,NA,NA,NA,0.242834155574404,0,0.0027612683809875,1.38275356362737,0.267812015771523,0.237504368764195,0.242834155574404,0.251849459889878,0.279189063580994,0.247593903210975,0.253150107193615,0.220066926014417
"stimuli/m5.jpg","stimuli/m2.jpg",2,"stimuli/Kitchen & utensil.png","stimuli/Electronic device & accessory.png","stimuli/Outdoor activity & sport item.png","stimuli/Hand labour tool & accessory.png",3,0,3,"stimuli/m2.jpg","Outdoor activity & sport item","stimuli/objects/weight01.jpg",1,1,0,0.904,1,"Kitchen & utensil",NA,NA,NA,NA,0.248652585798146,0,0.00287302156866185,1.38511593736701,0.266345875605356,0.248652585798146,0.251764060028424,0.233237478568073,0.233304426247167,0.259851107755903,0.263102712893636,0.243741753103295
"stimuli/m2.jpg","stimuli/m5.jpg",1,"stimuli/Hand labour tool & accessory.png","stimuli/Outdoor activity & sport item.png","stimuli/Electronic device & accessory.png","stimuli/Kitchen & utensil.png",3,1,3,"stimuli/m2.jpg","Electronic device & accessory","stimuli/objects/expansioncard.jpg",1,2,0,1.015,2,"Outdoor activity & sport item",NA,NA,NA,NA,0.240650478698413,0,0.00279005281453473,1.38406091851789,0.240650478698413,0.255516620343306,0.257337519220436,0.246495381737845,0.251028943332617,0.223409497730005,0.268435641097143,0.257125917840234
"stimuli/m5.jpg","stimuli/m2.jpg",1,"stimuli/Electronic device & accessory.png","stimuli/Outdoor activity & sport item.png","stimuli/Kitchen & utensil.png","stimuli/Hand labour tool & accessory.png",2,0,4,"stimuli/m5.jpg","Outdoor activity & sport item","stimuli/objects/magneticcompass.jpg",1,3,0,1.009,3,"Kitchen & utensil",NA,NA,NA,NA,0.276848994851425,0,0.00261829288095168,1.37900837206534,0.244272242268938,0.276848994851425,0.234247306969633,0.244631455910004,0.253895445882526,0.287755572786462,0.204080170440991,0.254268810890021
"stimuli/m5.jpg","stimuli/m2.jpg",2,"stimuli/Outdoor activity & sport item.png","stimuli/Electronic device & accessory.png","stimuli/Kitchen & utensil.png","stimuli/Hand labour tool & accessory.png",3,1,4,"stimuli/m2.jpg","Kitchen & utensil","stimuli/objects/gasburner.jpg",1,2,0,1.303,2,"Electronic device & accessory",NA,NA,NA,NA,0.2603239590144,0,0.00262547926834176,1.38051767254213,0.250576208266266,0.235109318728803,0.2603239590144,0.253990513990531,0.260485522273595,0.204860868588865,0.270618758633859,0.26403485050368
"stimuli/m2.jpg","stimuli/m5.jpg",1,"stimuli/Hand labour tool & accessory.png","stimuli/Electronic device & accessory.png","stimuli/Outdoor activity & sport item.png","stimuli/Kitchen & utensil.png",4,1,4,"stimuli/m2.jpg","Kitchen & utensil","stimuli/objects/cork02.jpg",1,1,0,1.247,1,"Hand labour tool & accessory",NA,NA,NA,NA,0.257859516282061,0,0.00279282297258478,1.38265082524719,0.255871892473213,0.224722086409765,0.261546504834961,0.257859516282061,0.22373354377713,0.234427668956233,0.272842507079205,0.268996280187432
"stimuli/m5.jpg","stimuli/m2.jpg",2,"stimuli/Hand labour tool & accessory.png","stimuli/Kitchen & utensil.png","stimuli/Electronic device & accessory.png","stimuli/Outdoor activity & sport item.png",2,1,4,"stimuli/m2.jpg","Kitchen & utensil","stimuli/objects/hourglass.jpg",1,2,1,1.161,2,"Kitchen & utensil",NA,NA,NA,NA,0.24127949461549,1,0.00302231562441774,1.38376252344074,0.235290784515193,0.24127949461549,0.262791803964355,0.260637916904962,0.224819518895211,0.275045219692987,0.251096646469194,0.249038614942608
"stimuli/m2.jpg","stimuli/m5.jpg",1,"stimuli/Kitchen & utensil.png","stimuli/Hand labour tool & accessory.png","stimuli/Electronic device & accessory.png","stimuli/Outdoor activity & sport item.png",1,1,4,"stimuli/m2.jpg","Kitchen & utensil","stimuli/objects/cleaver01.jpg",1,1,1,0.613,1,"Kitchen & utensil",NA,NA,NA,NA,0.264025323028073,1,0.00297980070888875,1.38508477868287,0.235898930581318,0.264025323028073,0.250614122022749,0.249461624367861,0.269178817828153,0.252525884887817,0.239698799355125,0.238596497928906
"stimuli/m5.jpg","stimuli/m2.jpg",1,"stimuli/Kitchen & utensil.png","stimuli/Outdoor activity & sport item.png","stimuli/Hand labour tool & accessory.png","stimuli/Electronic device & accessory.png",3,1,4,"stimuli/m5.jpg","Hand labour tool & accessory","stimuli/objects/mallet01b.jpg",1,2,0,0.646,2,"Outdoor activity & sport item",NA,NA,NA,NA,0.252181449694215,0,0.00290880085039572,1.38474591837316,0.252181449694215,0.271143120760418,0.224284895446955,0.252390534098412,0.263752849740171,0.237699366129954,0.234576256102662,0.263971528027214
"stimuli/m2.jpg","stimuli/m5.jpg",2,"stimuli/Outdoor activity & sport item.png","stimuli/Hand labour tool & accessory.png","stimuli/Electronic device & accessory.png","stimuli/Kitchen & utensil.png",2,1,4,"stimuli/m5.jpg","Hand labour tool & accessory","stimuli/objects/hoe.jpg",1,2,1,0.734,2,"Hand labour tool & accessory",NA,NA,NA,NA,0.25782405569524,1,0.0030365484768341,1.38404668089755,0.257701595854496,0.243111645032774,0.241362703417491,0.25782405569524,0.246149787510964,0.277040147435098,0.230543307123454,0.246266757930483
"stimuli/m2.jpg","stimuli/m5.jpg",2,"stimuli/Electronic device & accessory.png","stimuli/Outdoor activity & sport item.png","stimuli/Kitchen & utensil.png","stimuli/Hand labour tool & accessory.png",1,0,4,"stimuli/m5.jpg","Electronic device & accessory","stimuli/objects/usbkey.jpg",1,4,0,1.234,4,"Hand labour tool & accessory",NA,NA,NA,NA,0.247909384441071,0,0.00272995531766921,1.38247520995111,0.24784388100614,0.265142482563655,0.239104251989134,0.247909384441071,0.258201051633658,0.276222546034931,0.249096201459758,0.216480200871653
"stimuli/m2.jpg","stimuli/m5.jpg",1,"stimuli/Hand labour tool & accessory.png","stimuli/Electronic device & accessory.png","stimuli/Kitchen & utensil.png","stimuli/Outdoor activity & sport item.png",3,1,4,"stimuli/m2.jpg","Kitchen & utensil","stimuli/objects/cookingpot.jpg",1,3,1,1.004,3,"Kitchen & utensil",NA,NA,NA,NA,0.251414495537177,1,0.00304518569614105,1.38393659810424,0.260740137983766,0.251414495537177,0.24423132763887,0.243614038840187,0.249000716003402,0.24009494620383,0.278258644771527,0.232645693021241
"stimuli/m2.jpg","stimuli/m5.jpg",1,"stimuli/Outdoor activity & sport item.png","stimuli/Hand labour tool & accessory.png","stimuli/Electronic device & accessory.png","stimuli/Kitchen & utensil.png",3,0,4,"stimuli/m2.jpg","Electronic device & accessory","stimuli/objects/atm.jpg",1,4,0,1.348,4,"Kitchen & utensil",NA,NA,NA,NA,0.244453169874145,0,0.00266820104900918,1.38124755115311,0.249440400961905,0.244453169874145,0.265824841072055,0.240281588091895,0.259530587635455,0.25434161660314,0.276577799528425,0.20954999623298
"stimuli/m2.jpg","stimuli/m5.jpg",1,"stimuli/Electronic device & accessory.png","stimuli/Kitchen & utensil.png","stimuli/Hand labour tool & accessory.png","stimuli/Outdoor activity & sport item.png",2,1,4,"stimuli/m2.jpg","Kitchen & utensil","stimuli/objects/tray.jpg",1,1,0,0.569,1,"Electronic device & accessory",NA,NA,NA,NA,0.264883567735918,0,0.00278865202912051,1.38278718564605,0.255337129075855,0.252431305297758,0.264883567735918,0.227347997890469,0.223245797340304,0.26330986131962,0.276298755434159,0.237145585905918
"stimuli/m5.jpg","stimuli/m2.jpg",1,"stimuli/Outdoor activity & sport item.png","stimuli/Electronic device & accessory.png","stimuli/Kitchen & utensil.png","stimuli/Hand labour tool & accessory.png",4,1,4,"stimuli/m5.jpg","Hand labour tool & accessory","stimuli/objects/jumpercables.jpg",1,4,1,0.783,4,"Hand labour tool & accessory",NA,NA,NA,NA,0.231228912488126,1,0.00294203103459204,1.38554967310235,0.254592588914849,0.264684625779562,0.249493872817464,0.231228912488126,0.243714124778394,0.253374939895591,0.23883327126862,0.264077664057395
"stimuli/m2.jpg","stimuli/m5.jpg",2,"stimuli/Kitchen & utensil.png","stimuli/Electronic device & accessory.png","stimuli/Outdoor activity & sport item.png","stimuli/Hand labour tool & accessory.png",4,1,4,"stimuli/m5.jpg","Hand labour tool & accessory","stimuli/objects/squeegee01b.jpg",1,4,1,0.796,4,"Hand labour tool & accessory",NA,NA,NA,NA,0.257883491872141,1,0.00314679676937964,1.38145247463872,0.246479909875901,0.251889966341531,0.243746631910427,0.257883491872141,0.234791622349279,0.239945129323563,0.232187958755892,0.293075289571266
"stimuli/m2.jpg","stimuli/m5.jpg",2,"stimuli/Outdoor activity & sport item.png","stimuli/Electronic device & accessory.png","stimuli/Hand labour tool & accessory.png","stimuli/Kitchen & utensil.png",3,1,4,"stimuli/m5.jpg","Hand labour tool & accessory","stimuli/objects/painttray.jpg",1,3,1,0.893,3,"Hand labour tool & accessory",NA,NA,NA,NA,0.274122162159909,1,0.00301250081148989,1.38361274526871,0.241483308515596,0.244369272421196,0.2400252569033,0.274122162159909,0.230789845133702,0.23354801159634,0.273678771659349,0.261983371610609
"stimuli/m2.jpg","stimuli/m5.jpg",1,"stimuli/Electronic device & accessory.png","stimuli/Hand labour tool & accessory.png","stimuli/Kitchen & utensil.png","stimuli/Outdoor activity & sport item.png",2,0,4,"stimuli/m2.jpg","Hand labour tool & accessory","stimuli/objects/setsquare.jpg",1,1,0,0.537,1,"Electronic device & accessory",NA,NA,NA,NA,0.264727303043129,0,0.00262471591871036,1.38008488789982,0.23501764651057,0.257453522338987,0.264727303043129,0.242801528107314,0.204777833057808,0.267630680612998,0.275191994448573,0.252399491880621
"stimuli/m2.jpg","stimuli/m5.jpg",2,"stimuli/Kitchen & utensil.png","stimuli/Outdoor activity & sport item.png","stimuli/Hand labour tool & accessory.png","stimuli/Electronic device & accessory.png",2,0,4,"stimuli/m5.jpg","Outdoor activity & sport item","stimuli/objects/hockeygoalieglove.jpg",1,3,0,0.648,3,"Hand labour tool & accessory",NA,NA,NA,NA,0.256710688101941,0,0.00284969008474352,1.38486502568282,0.239242313274873,0.24078688649395,0.263260112129235,0.256710688101941,0.24988664153708,0.251499935644799,0.230481206495816,0.268132216322305
"stimuli/m2.jpg","stimuli/m5.jpg",2,"stimuli/Hand labour tool & accessory.png","stimuli/Electronic device & accessory.png","stimuli/Outdoor activity & sport item.png","stimuli/Kitchen & utensil.png",1,1,4,"stimuli/m5.jpg","Hand labour tool & accessory","stimuli/objects/rope03.jpg",1,3,0,1.064,3,"Outdoor activity & sport item",NA,NA,NA,NA,0.249936519260765,0,0.00265825058331452,1.38137174928526,0.249936519260765,0.250839963961087,0.239069475637657,0.260154041140491,0.25999372061571,0.260933519048137,0.208450374742474,0.270622385593679
"stimuli/m5.jpg","stimuli/m2.jpg",1,"stimuli/Hand labour tool & accessory.png","stimuli/Kitchen & utensil.png","stimuli/Outdoor activity & sport item.png","stimuli/Electronic device & accessory.png",2,0,4,"stimuli/m5.jpg","Kitchen & utensil","stimuli/objects/contactlens.jpg",1,3,0,1.223,3,"Outdoor activity & sport item",NA,NA,NA,NA,0.255596483544798,0,0.00255484060223169,1.37844401921023,0.255596483544798,0.256122770666956,0.226732209855786,0.26154853593246,0.265330464576119,0.265876794496962,0.197283549619909,0.27150919130701
"stimuli/m5.jpg","stimuli/m2.jpg",2,"stimuli/Electronic device & accessory.png","stimuli/Hand labour tool & accessory.png","stimuli/Kitchen & utensil.png","stimuli/Outdoor activity & sport item.png",3,1,4,"stimuli/m2.jpg","Kitchen & utensil","stimuli/objects/watercooler.jpg",1,2,0,0.765,2,"Hand labour tool & accessory",NA,NA,NA,NA,0.251343715453148,0,0.00282379657501879,1.38317154611962,0.224675586512373,0.259873181143279,0.264107516891201,0.251343715453148,0.234537564550491,0.227385831065368,0.275700331988357,0.262376272395784
"stimuli/m5.jpg","stimuli/m2.jpg",1,"stimuli/Kitchen & utensil.png","stimuli/Outdoor activity & sport item.png","stimuli/Electronic device & accessory.png","stimuli/Hand labour tool & accessory.png",4,1,4,"stimuli/m5.jpg","Hand labour tool & accessory","stimuli/objects/hammer01.jpg",1,4,1,1.01,4,"Hand labour tool & accessory",NA,NA,NA,NA,0.262045147131925,1,0.00317641682171926,1.37856436934949,0.258585060162627,0.258891004918299,0.220478787787149,0.262045147131925,0.24613437803153,0.246425591770259,0.209862894890395,0.297577135307816
"stimuli/m5.jpg","stimuli/m2.jpg",1,"stimuli/Kitchen & utensil.png","stimuli/Electronic device & accessory.png","stimuli/Hand labour tool & accessory.png","stimuli/Outdoor activity & sport item.png",3,1,4,"stimuli/m5.jpg","Hand labour tool & accessory","stimuli/objects/jigsaw.jpg",1,3,1,1.049,3,"Hand labour tool & accessory",NA,NA,NA,NA,0.276643195772377,1,0.00291148385682435,1.38501742823133,0.247835251697657,0.247998331391345,0.227523221138621,0.276643195772377,0.237408092738491,0.237564311189166,0.260023594311032,0.265004001761312
"stimuli/m2.jpg","stimuli/m5.jpg",2,"stimuli/Hand labour tool & accessory.png","stimuli/Electronic device & accessory.png","stimuli/Kitchen & utensil.png","stimuli/Outdoor activity & sport item.png",1,1,4,"stimuli/m5.jpg","Hand labour tool & accessory","stimuli/objects/level03a.jpg",1,1,1,0.618,1,"Hand labour tool & accessory",NA,NA,NA,NA,0.258402240986335,1,0.00303528636977015,1.3841582406345,0.242948531933555,0.243036014265933,0.255613212814178,0.258402240986335,0.276862597218538,0.232148591676993,0.244162362306979,0.24682644879749
"stimuli/m5.jpg","stimuli/m2.jpg",1,"stimuli/Electronic device & accessory.png","stimuli/Outdoor activity & sport item.png","stimuli/Hand labour tool & accessory.png","stimuli/Kitchen & utensil.png",3,1,4,"stimuli/m5.jpg","Hand labour tool & accessory","stimuli/objects/toyhardhat.jpg",1,3,1,0.54,3,"Hand labour tool & accessory",NA,NA,NA,NA,0.248222811326595,1,0.0030643010490524,1.3831849605056,0.265043054442381,0.240003211339116,0.246730922891908,0.248222811326595,0.252993322401515,0.229091873210795,0.280977021333989,0.236937783053702
"stimuli/m2.jpg","stimuli/m5.jpg",1,"stimuli/Outdoor activity & sport item.png","stimuli/Kitchen & utensil.png","stimuli/Hand labour tool & accessory.png","stimuli/Electronic device & accessory.png",2,1,4,"stimuli/m2.jpg","Kitchen & utensil","stimuli/objects/jar02.jpg",1,1,0,1.158,1,"Outdoor activity & sport item",NA,NA,NA,NA,0.241341036148275,0,0.00267686748046605,1.38116547214987,0.241341036148275,0.237336065396606,0.26439218591348,0.256930712541639,0.210511489069691,0.246980666924073,0.275136264255935,0.267371579750301
"stimuli/m2.jpg","stimuli/m5.jpg",2,"stimuli/Hand labour tool & accessory.png","stimuli/Outdoor activity & sport item.png","stimuli/Kitchen & utensil.png","stimuli/Electronic device & accessory.png",1,1,4,"stimuli/m5.jpg","Hand labour tool & accessory","stimuli/objects/drill01b.jpg",1,1,1,0.939,1,"Hand labour tool & accessory",NA,NA,NA,NA,0.242685158510073,1,0.0031014437199688,1.38194809573564,0.251676260544848,0.238291448998045,0.267347131947034,0.242685158510073,0.286347836838815,0.227250852905034,0.254960318602018,0.231440991654132
"stimuli/m5.jpg","stimuli/m2.jpg",1,"stimuli/Hand labour tool & accessory.png","stimuli/Electronic device & accessory.png","stimuli/Kitchen & utensil.png","stimuli/Outdoor activity & sport item.png",3,0,4,"stimuli/m5.jpg","Kitchen & utensil","stimuli/objects/measuringcup01.jpg",1,1,0,0.885,1,"Hand labour tool & accessory",NA,NA,NA,NA,0.239606955326314,0,0.00290296247989588,1.3855376248752,0.270354788629737,0.237260477626819,0.25277777841713,0.239606955326314,0.236976654988211,0.248114125134774,0.264341275769179,0.250567944107836
"stimuli/m5.jpg","stimuli/m2.jpg",2,"stimuli/Kitchen & utensil.png","stimuli/Hand labour tool & accessory.png","stimuli/Electronic device & accessory.png","stimuli/Outdoor activity & sport item.png",4,0,4,"stimuli/m2.jpg","Outdoor activity & sport item","stimuli/objects/baseballglove.jpg",1,3,0,1.358,3,"Electronic device & accessory",NA,NA,NA,NA,0.264076307983324,0,0.00285588544501025,1.38422269487361,0.227886433879027,0.248309173477481,0.264076307983324,0.259728084660168,0.238058356010699,0.259392683514474,0.231227672096468,0.271321288378359
"stimuli/m2.jpg","stimuli/m5.jpg",1,"stimuli/Outdoor activity & sport item.png","stimuli/Hand labour tool & accessory.png","stimuli/Kitchen & utensil.png","stimuli/Electronic device & accessory.png",3,1,4,"stimuli/m2.jpg","Kitchen & utensil","stimuli/objects/saladspinner.jpg",1,3,1,0.997,3,"Kitchen & utensil",NA,NA,NA,NA,0.255259902768105,1,0.00300827487029788,1.38456301941231,0.243312679365992,0.255259902768105,0.239487496374022,0.261939921491881,0.232561279849129,0.243980584310693,0.273092706695811,0.250365429144367
"stimuli/m5.jpg","stimuli/m2.jpg",1,"stimuli/Electronic device & accessory.png","stimuli/Hand labour tool & accessory.png","stimuli/Outdoor activity & sport item.png","stimuli/Kitchen & utensil.png",2,1,4,"stimuli/m5.jpg","Hand labour tool & accessory","stimuli/objects/knifesharpener.jpg",1,2,1,0.968,2,"Hand labour tool & accessory",NA,NA,NA,NA,0.250318048700388,1,0.00308103293619719,1.38318082371613,0.242706926793398,0.248943910075474,0.25803111443074,0.250318048700388,0.231578237960017,0.283381614971719,0.246199775211178,0.238840371857086
"stimuli/m2.jpg","stimuli/m5.jpg",1,"stimuli/Kitchen & utensil.png","stimuli/Electronic device & accessory.png","stimuli/Hand labour tool & accessory.png","stimuli/Outdoor activity & sport item.png",4,0,4,"stimuli/m2.jpg","Outdoor activity & sport item","stimuli/objects/exercisemachine.jpg",1,4,1,1.169,4,"Outdoor activity & sport item",NA,NA,NA,NA,0.240234316715512,1,0.00309048465711668,1.38264626019921,0.240234316715512,0.246629127213988,0.262931915749654,0.250204640320845,0.229165788144072,0.235265964871324,0.250817620583136,0.284750626401468
"stimuli/m5.jpg","stimuli/m2.jpg",2,"stimuli/Electronic device & accessory.png","stimuli/Outdoor activity & sport item.png","stimuli/Hand labour tool & accessory.png","stimuli/Kitchen & utensil.png",4,1,4,"stimuli/m2.jpg","Kitchen & utensil","stimuli/objects/thermos.jpg",1,4,1,1.356,4,"Kitchen & utensil",NA,NA,NA,NA,0.241748940327941,1,0.00322763459581287,1.37826420222629,0.238332841360681,0.241748940327941,0.250457867526556,0.269460350784822,0.226548616192435,0.229795808184067,0.238074127672488,0.30558144795101
"stimuli/m5.jpg","stimuli/m2.jpg",2,"stimuli/Hand labour tool & accessory.png","stimuli/Kitchen & utensil.png","stimuli/Outdoor activity & sport item.png","stimuli/Electronic device & accessory.png",2,1,4,"stimuli/m2.jpg","Kitchen & utensil","stimuli/objects/aluminiumfoil.jpg",1,3,0,0.835,3,"Outdoor activity & sport item",NA,NA,NA,NA,0.236867225067764,0,0.00269299095918022,1.37982360377638,0.236867225067764,0.238685652583078,0.243321511496593,0.281125610852565,0.24657500013183,0.248467954147313,0.212309772493414,0.292647273227443
"stimuli/m5.jpg","stimuli/m2.jpg",1,"stimuli/Outdoor activity & sport item.png","stimuli/Electronic device & accessory.png","stimuli/Hand labour tool & accessory.png","stimuli/Kitchen & utensil.png",3,1,4,"stimuli/m5.jpg","Hand labour tool & accessory","stimuli/objects/wateringcan.jpg",1,3,1,0.869,3,"Hand labour tool & accessory",NA,NA,NA,NA,0.243750608239968,1,0.00307294997840345,1.38267100308786,0.23968381325761,0.268693704384163,0.247871874118259,0.243750608239968,0.22873890715829,0.256424092498431,0.282217004064876,0.232619996278403
"stimuli/m5.jpg","stimuli/m2.jpg",1,"stimuli/Kitchen & utensil.png","stimuli/Hand labour tool & accessory.png","stimuli/Electronic device & accessory.png","stimuli/Outdoor activity & sport item.png",2,1,4,"stimuli/m5.jpg","Hand labour tool & accessory","stimuli/objects/gardenshears01a.jpg",1,2,1,0.893,2,"Hand labour tool & accessory",NA,NA,NA,NA,0.240267197915906,1,0.00311563165835395,1.381423501792,0.238093788008642,0.253597491799121,0.26804152227633,0.240267197915906,0.226982068965446,0.288431726802196,0.255532157322478,0.22905404690988
"stimuli/m2.jpg","stimuli/m5.jpg",1,"stimuli/Kitchen & utensil.png","stimuli/Outdoor activity & sport item.png","stimuli/Electronic device & accessory.png","stimuli/Hand labour tool & accessory.png",1,1,4,"stimuli/m2.jpg","Kitchen & utensil","stimuli/objects/spoon01.jpg",1,1,1,1,1,"Kitchen & utensil",NA,NA,NA,NA,0.249142054322495,1,0.00307453761470107,1.38163258829258,0.248082000073825,0.249142054322495,0.228893472596312,0.273882473007368,0.282445311551624,0.237756044124916,0.21843284032679,0.26136580399667
"stimuli/m5.jpg","stimuli/m2.jpg",2,"stimuli/Hand labour tool & accessory.png","stimuli/Outdoor activity & sport item.png","stimuli/Kitchen & utensil.png","stimuli/Electronic device & accessory.png",3,1,4,"stimuli/m2.jpg","Kitchen & utensil","stimuli/objects/corkscrew03a.jpg",1,3,1,1.068,3,"Kitchen & utensil",NA,NA,NA,NA,0.243143384709953,1,0.00295094732991509,1.38509347013697,0.268169374468909,0.243143384709953,0.232322390583002,0.256364850238135,0.256658927438613,0.232707110784142,0.265272881208706,0.245361080568538
"stimuli/m2.jpg","stimuli/m5.jpg",1,"stimuli/Hand labour tool & accessory.png","stimuli/Outdoor activity & sport item.png","stimuli/Kitchen & utensil.png","stimuli/Electronic device & accessory.png",3,1,4,"stimuli/m2.jpg","Kitchen & utensil","stimuli/objects/bottlecap.jpg",1,1,0,0.833,1,"Hand labour tool & accessory",NA,NA,NA,NA,0.247402205118381,0,0.00277606472170405,1.38376016336793,0.253728999365623,0.24031598203912,0.258552813476876,0.247402205118381,0.221779586421066,0.250604408818156,0.269621996921935,0.257994007838843
"stimuli/m2.jpg","stimuli/m5.jpg",1,"stimuli/Hand labour tool & accessory.png","stimuli/Outdoor activity & sport item.png","stimuli/Electronic device & accessory.png","stimuli/Kitchen & utensil.png",4,1,4,"stimuli/m2.jpg","Kitchen & utensil","stimuli/objects/pot01.jpg",1,4,1,0.819,4,"Kitchen & utensil",NA,NA,NA,NA,0.250338468938167,1,0.00312207900714043,1.38158970251888,0.234196568395797,0.250338468938167,0.260988318276283,0.254476644389752,0.223230614110619,0.238616690839532,0.248767874625946,0.289384820423903
"stimuli/m5.jpg","stimuli/m2.jpg",1,"stimuli/Hand labour tool & accessory.png","stimuli/Outdoor activity & sport item.png","stimuli/Electronic device & accessory.png","stimuli/Kitchen & utensil.png",1,1,4,"stimuli/m5.jpg","Hand labour tool & accessory","stimuli/objects/gastank.jpg",1,1,1,0.647,1,"Hand labour tool & accessory",NA,NA,NA,NA,0.238270266269533,1,0.0029894631092746,1.38415140599116,0.23710995862065,0.27152176700923,0.253098008100588,0.238270266269533,0.270500211833978,0.259637773167894,0.242020387316618,0.22784162768151
"stimuli/m5.jpg","stimuli/m2.jpg",1,"stimuli/Hand labour tool & accessory.png","stimuli/Outdoor activity & sport item.png","stimuli/Kitchen & utensil.png","stimuli/Electronic device & accessory.png",1,1,4,"stimuli/m5.jpg","Hand labour tool & accessory","stimuli/objects/stubbywrench01a.jpg",1,1,1,0.523,1,"Hand labour tool & accessory",NA,NA,NA,NA,0.237591311501646,1,0.0031724322800203,1.38032598777544,0.261480118627028,0.255397152974021,0.245531416897306,0.237591311501646,0.296966323065092,0.243125207679215,0.23373352455108,0.226174944704612
"stimuli/m5.jpg","stimuli/m2.jpg",2,"stimuli/Kitchen & utensil.png","stimuli/Hand labour tool & accessory.png","stimuli/Outdoor activity & sport item.png","stimuli/Electronic device & accessory.png",1,1,4,"stimuli/m2.jpg","Kitchen & utensil","stimuli/objects/potatomasher03b.jpg",1,1,1,1.175,1,"Kitchen & utensil",NA,NA,NA,NA,0.243625346870138,1,0.00297266676993991,1.38458263986994,0.235009143901947,0.243625346870138,0.24931000979053,0.272055499437386,0.26820756458724,0.233052701863308,0.23849066663093,0.260249066918521
"stimuli/m2.jpg","stimuli/m5.jpg",2,"stimuli/Outdoor activity & sport item.png","stimuli/Kitchen & utensil.png","stimuli/Hand labour tool & accessory.png","stimuli/Electronic device & accessory.png",4,0,4,"stimuli/m5.jpg","Electronic device & accessory","stimuli/objects/airconditioner.jpg",1,3,0,0.933,3,"Hand labour tool & accessory",NA,NA,NA,NA,0.236657969034583,0,0.00267318778177641,1.380141083581,0.276301140916452,0.24615011630036,0.240890773748605,0.236657969034583,0.287507364884103,0.256133474761262,0.210102815446777,0.246256344907858
"stimuli/m5.jpg","stimuli/m2.jpg",2,"stimuli/Outdoor activity & sport item.png","stimuli/Hand labour tool & accessory.png","stimuli/Kitchen & utensil.png","stimuli/Electronic device & accessory.png",3,1,4,"stimuli/m2.jpg","Kitchen & utensil","stimuli/objects/oven.jpg",1,3,1,0.907,3,"Kitchen & utensil",NA,NA,NA,NA,0.240509513043453,1,0.0030399722853121,1.38391454445852,0.260196236168855,0.240509513043453,0.243554773313321,0.255739477474372,0.248512297268612,0.229709593349368,0.277522443023392,0.244255666358628
"stimuli/m2.jpg","stimuli/m5.jpg",1,"stimuli/Outdoor activity & sport item.png","stimuli/Electronic device & accessory.png","stimuli/Hand labour tool & accessory.png","stimuli/Kitchen & utensil.png",3,0,4,"stimuli/m2.jpg","Hand labour tool & accessory","stimuli/objects/aircompressor.jpg",1,4,0,1.496,4,"Kitchen & utensil",NA,NA,NA,NA,0.238637372275646,0,0.0027209315320341,1.38225357503377,0.249166886470423,0.238637372275646,0.2654125680931,0.246783173160832,0.259530074865518,0.24856262390934,0.276451436397542,0.215455864827601
"stimuli/m2.jpg","stimuli/m5.jpg",2,"stimuli/Outdoor activity & sport item.png","stimuli/Hand labour tool & accessory.png","stimuli/Kitchen & utensil.png","stimuli/Electronic device & accessory.png",2,1,4,"stimuli/m5.jpg","Hand labour tool & accessory","stimuli/objects/snowblower.jpg",1,4,0,0.99,4,"Electronic device & accessory",NA,NA,NA,NA,0.227657576650195,0,0.00272990867833476,1.3812118568013,0.271004124335097,0.253434745866307,0.227657576650195,0.247903553148401,0.282328862973541,0.264025294131496,0.237170946828418,0.216474896066546
"stimuli/m2.jpg","stimuli/m5.jpg",2,"stimuli/Electronic device & accessory.png","stimuli/Kitchen & utensil.png","stimuli/Outdoor activity & sport item.png","stimuli/Hand labour tool & accessory.png",4,1,4,"stimuli/m5.jpg","Hand labour tool & accessory","stimuli/objects/paintroller01.jpg",1,3,0,1.415,3,"Outdoor activity & sport item",NA,NA,NA,NA,0.268104163265183,0,0.00268888283964512,1.38075817879971,0.268104163265183,0.257854164713638,0.242815730223914,0.231225941797266,0.279068379860641,0.26839920391605,0.211850406017861,0.240682010205448
"stimuli/m5.jpg","stimuli/m2.jpg",2,"stimuli/Outdoor activity & sport item.png","stimuli/Kitchen & utensil.png","stimuli/Electronic device & accessory.png","stimuli/Hand labour tool & accessory.png",2,1,4,"stimuli/m2.jpg","Kitchen & utensil","stimuli/objects/pastaspoon.jpg",1,3,0,0.926,3,"Electronic device & accessory",NA,NA,NA,NA,0.264812804382623,0,0.00286146097381975,1.3846966666123,0.25533684192469,0.24919506938923,0.264812804382623,0.230655284303456,0.266767247642092,0.260350532597846,0.23190142402403,0.240980795736032
"stimuli/m5.jpg","stimuli/m2.jpg",2,"stimuli/Kitchen & utensil.png","stimuli/Outdoor activity & sport item.png","stimuli/Hand labour tool & accessory.png","stimuli/Electronic device & accessory.png",4,0,4,"stimuli/m2.jpg","Electronic device & accessory","stimuli/objects/headphones02b.jpg",1,1,0,0.7,1,"Kitchen & utensil",NA,NA,NA,NA,0.255796298254794,0,0.00282007570400163,1.38456712942172,0.259389658679571,0.255796298254794,0.239864797453457,0.244949245612178,0.226944220300165,0.267002492078538,0.250373047299509,0.255680240321788
"stimuli/m2.jpg","stimuli/m5.jpg",1,"stimuli/Kitchen & utensil.png","stimuli/Hand labour tool & accessory.png","stimuli/Electronic device & accessory.png","stimuli/Outdoor activity & sport item.png",4,1,5,"stimuli/m2.jpg","Outdoor activity & sport item","stimuli/objects/badmintonracket.jpg",1,1,0,1.044,1,"Kitchen & utensil",NA,NA,NA,NA,0.259521395563981,0,0.00264190972155566,1.38097703590322,0.237088763368092,0.259521395563981,0.250208906487725,0.253180934580201,0.206654449221439,0.269874311212782,0.260190325159648,0.263280914406131
"stimuli/m5.jpg","stimuli/m2.jpg",2,"stimuli/Kitchen & utensil.png","stimuli/Hand labour tool & accessory.png","stimuli/Outdoor activity & sport item.png","stimuli/Electronic device & accessory.png",4,0,5,"stimuli/m2.jpg","Electronic device & accessory","stimuli/objects/djmixer02.jpg",1,1,0,0.523,1,"Kitchen & utensil",NA,NA,NA,NA,0.261129614279158,0,0.00254624025561707,1.37817742240883,0.225726491564006,0.261129614279158,0.255706582089403,0.257437312067433,0.196375283976653,0.271028531693232,0.26539992286703,0.267196261463086
"stimuli/m5.jpg","stimuli/m2.jpg",2,"stimuli/Electronic device & accessory.png","stimuli/Kitchen & utensil.png","stimuli/Hand labour tool & accessory.png","stimuli/Outdoor activity & sport item.png",4,1,5,"stimuli/m2.jpg","Outdoor activity & sport item","stimuli/objects/shinpad.jpg",1,1,0,0.696,1,"Electronic device & accessory",NA,NA,NA,NA,0.258623956805537,0,0.00249652290641111,1.37649962508133,0.219970159026925,0.26177597774821,0.258623956805537,0.259629906419328,0.191182629543451,0.271436997470341,0.268168649060367,0.269211723925841
"stimuli/m5.jpg","stimuli/m2.jpg",2,"stimuli/Hand labour tool & accessory.png","stimuli/Outdoor activity & sport item.png","stimuli/Kitchen & utensil.png","stimuli/Electronic device & accessory.png",2,1,5,"stimuli/m2.jpg","Outdoor activity & sport item","stimuli/objects/surfboard.jpg",1,4,0,1.113,4,"Electronic device & accessory",NA,NA,NA,NA,0.260174443473806,0,0.00283059419385719,1.38220001100148,0.217062272544332,0.262004718583391,0.260174443473806,0.260758565398471,0.226623960473987,0.273546140894262,0.271635241366539,0.228194657265212
"stimuli/m2.jpg","stimuli/m5.jpg",2,"stimuli/Outdoor activity & sport item.png","stimuli/Kitchen & utensil.png","stimuli/Electronic device & accessory.png","stimuli/Hand labour tool & accessory.png",3,1,5,"stimuli/m5.jpg","Electronic device & accessory","stimuli/objects/alarmclock01.jpg",1,4,0,0.804,4,"Hand labour tool & accessory",NA,NA,NA,NA,0.244781925715051,0,0.00270481610177548,1.38092546992983,0.266278292721959,0.260303554192988,0.228636227370002,0.244781925715051,0.277259654040336,0.271038516295346,0.238065223618834,0.213636606045484
"stimuli/m5.jpg","stimuli/m2.jpg",2,"stimuli/Hand labour tool & accessory.png","stimuli/Kitchen & utensil.png","stimuli/Outdoor activity & sport item.png","stimuli/Electronic device & accessory.png",1,0,5,"stimuli/m2.jpg","Hand labour tool & accessory","stimuli/objects/sledgehammer.jpg",1,4,0,1.412,4,"Electronic device & accessory",NA,NA,NA,NA,0.262115735165262,0,0.00264769818627016,1.38030870972334,0.236909417865433,0.263185838900786,0.262115735165262,0.237789008068519,0.246389319035009,0.273717187820941,0.272604264016272,0.207289229127779
"stimuli/m5.jpg","stimuli/m2.jpg",2,"stimuli/Electronic device & accessory.png","stimuli/Outdoor activity & sport item.png","stimuli/Hand labour tool & accessory.png","stimuli/Kitchen & utensil.png",3,0,5,"stimuli/m2.jpg","Hand labour tool & accessory","stimuli/objects/chainsaw.jpg",1,1,0,0.684,1,"Electronic device & accessory",NA,NA,NA,NA,0.262658387849112,0,0.00273050419614859,1.38129436386801,0.247978018659605,0.263281625179727,0.262658387849112,0.226081968311556,0.216542639124004,0.274287098447307,0.273637809082956,0.235532453345733
"stimuli/m5.jpg","stimuli/m2.jpg",1,"stimuli/Outdoor activity & sport item.png","stimuli/Kitchen & utensil.png","stimuli/Hand labour tool & accessory.png","stimuli/Electronic device & accessory.png",4,1,5,"stimuli/m5.jpg","Electronic device & accessory","stimuli/objects/fan.jpg",1,4,1,1.049,4,"Electronic device & accessory",NA,NA,NA,NA,0.243316525226547,1,0.00292896689341877,1.38536968535139,0.265265406262588,0.261781569125394,0.243316525226547,0.229636499385471,0.254005648686281,0.250669690468366,0.232988434854867,0.262336225990486
"stimuli/m2.jpg","stimuli/m5.jpg",1,"stimuli/Kitchen & utensil.png","stimuli/Electronic device & accessory.png","stimuli/Hand labour tool & accessory.png","stimuli/Outdoor activity & sport item.png",4,1,5,"stimuli/m2.jpg","Outdoor activity & sport item","stimuli/objects/podium.jpg",1,3,0,0.916,3,"Hand labour tool & accessory",NA,NA,NA,NA,0.241898173873611,0,0.00284951571500508,1.38410984868019,0.231263877909442,0.263600775130492,0.263237173086455,0.241898173873611,0.24155229454032,0.275327788545993,0.230460230184901,0.252659686728786
"stimuli/m5.jpg","stimuli/m2.jpg",2,"stimuli/Electronic device & accessory.png","stimuli/Kitchen & utensil.png","stimuli/Outdoor activity & sport item.png","stimuli/Hand labour tool & accessory.png",3,1,5,"stimuli/m2.jpg","Outdoor activity & sport item","stimuli/objects/iceskate.jpg",1,3,1,1.017,3,"Outdoor activity & sport item",NA,NA,NA,NA,0.245269284942579,1,0.00300488990120589,1.38460659890568,0.245269284942579,0.264183561585756,0.239057728903545,0.25148942456812,0.234450018686746,0.252529952802741,0.272624251667447,0.240395776843066
"stimuli/m5.jpg","stimuli/m2.jpg",1,"stimuli/Outdoor activity & sport item.png","stimuli/Electronic device & accessory.png","stimuli/Hand labour tool & accessory.png","stimuli/Kitchen & utensil.png",2,1,5,"stimuli/m5.jpg","Electronic device & accessory","stimuli/objects/filmroll.jpg",1,3,0,0.602,3,"Hand labour tool & accessory",NA,NA,NA,NA,0.256908286554672,0,0.00266977323777623,1.38175126709056,0.252243163264317,0.250375026662285,0.240473523518726,0.256908286554672,0.262455205811535,0.260511437861493,0.209724160114027,0.267309196212945
"stimuli/m5.jpg","stimuli/m2.jpg",2,"stimuli/Electronic device & accessory.png","stimuli/Hand labour tool & accessory.png","stimuli/Kitchen & utensil.png","stimuli/Outdoor activity & sport item.png",3,0,5,"stimuli/m2.jpg","Kitchen & utensil","stimuli/objects/canister.jpg",1,4,0,0.982,4,"Outdoor activity & sport item",NA,NA,NA,NA,0.241292010464578,0,0.00270352088260815,1.38214117009653,0.241292010464578,0.251416773569535,0.262669580933771,0.244621635032117,0.251236148611573,0.261778173949239,0.273494732561417,0.213490944877771
"stimuli/m2.jpg","stimuli/m5.jpg",2,"stimuli/Kitchen & utensil.png","stimuli/Hand labour tool & accessory.png","stimuli/Electronic device & accessory.png","stimuli/Outdoor activity & sport item.png",3,1,5,"stimuli/m5.jpg","Electronic device & accessory","stimuli/objects/chandelier.jpg",1,3,1,1.341,3,"Electronic device & accessory",NA,NA,NA,NA,0.227445529663855,1,0.00291083794909752,1.38601895035287,0.25697491525446,0.255886405202436,0.227445529663855,0.259693149879249,0.246166760282777,0.245124032074163,0.259938539462853,0.248770668180208
"stimuli/m5.jpg","stimuli/m2.jpg",2,"stimuli/Kitchen & utensil.png","stimuli/Electronic device & accessory.png","stimuli/Hand labour tool & accessory.png","stimuli/Outdoor activity & sport item.png",4,1,5,"stimuli/m2.jpg","Outdoor activity & sport item","stimuli/objects/cooler01.jpg",1,4,1,0.972,4,"Outdoor activity & sport item",NA,NA,NA,NA,0.250692243222481,1,0.00292829515223224,1.38575370656165,0.250692243222481,0.256595777411574,0.263157050234394,0.229554929131552,0.240054694231521,0.245707725519731,0.251990585814909,0.262246994433839
"stimuli/m2.jpg","stimuli/m5.jpg",2,"stimuli/Electronic device & accessory.png","stimuli/Outdoor activity & sport item.png","stimuli/Hand labour tool & accessory.png","stimuli/Kitchen & utensil.png",1,1,5,"stimuli/m5.jpg","Electronic device & accessory","stimuli/objects/lectern01.jpg",1,1,1,0.801,1,"Electronic device & accessory",NA,NA,NA,NA,0.255565582099197,1,0.00307281020938559,1.38353260985262,0.247853385758355,0.247269457961531,0.255565582099197,0.249311574180917,0.282196915119904,0.235978965218599,0.243896282648219,0.237927837013278
"stimuli/m5.jpg","stimuli/m2.jpg",2,"stimuli/Hand labour tool & accessory.png","stimuli/Electronic device & accessory.png","stimuli/Kitchen & utensil.png","stimuli/Outdoor activity & sport item.png",4,1,5,"stimuli/m2.jpg","Outdoor activity & sport item","stimuli/objects/fishinghook03.jpg",1,4,1,0.834,4,"Outdoor activity & sport item",NA,NA,NA,NA,0.244430628769652,1,0.00313940335600534,1.3817146554722,0.244430628769652,0.247596326291049,0.251114728056349,0.25685831688295,0.232883421707477,0.235899567738704,0.239251755826461,0.291965254727358
"stimuli/m2.jpg","stimuli/m5.jpg",2,"stimuli/Hand labour tool & accessory.png","stimuli/Kitchen & utensil.png","stimuli/Electronic device & accessory.png","stimuli/Outdoor activity & sport item.png",3,1,5,"stimuli/m5.jpg","Electronic device & accessory","stimuli/objects/coffeemachine.jpg",1,3,1,1.131,3,"Electronic device & accessory",NA,NA,NA,NA,0.246581918283003,1,0.00306316799493791,1.38302106736618,0.268030272467146,0.242148220522415,0.246581918283003,0.243239588727435,0.255851756298245,0.231145709530809,0.280815045032736,0.23218748913821
"stimuli/m2.jpg","stimuli/m5.jpg",1,"stimuli/Outdoor activity & sport item.png","stimuli/Electronic device & accessory.png","stimuli/Hand labour tool & accessory.png","stimuli/Kitchen & utensil.png",1,1,5,"stimuli/m2.jpg","Outdoor activity & sport item","stimuli/objects/kiddiepool.jpg",1,1,1,0.608,1,"Outdoor activity & sport item",NA,NA,NA,NA,0.240414716156187,1,0.00301555467216183,1.38362062860618,0.240414716156187,0.242103757933674,0.243980983262818,0.27350054264732,0.274103141556878,0.231366195527117,0.233160163891169,0.261370499024836
"stimuli/m5.jpg","stimuli/m2.jpg",2,"stimuli/Hand labour tool & accessory.png","stimuli/Electronic device & accessory.png","stimuli/Outdoor activity & sport item.png","stimuli/Kitchen & utensil.png",3,1,5,"stimuli/m2.jpg","Outdoor activity & sport item","stimuli/objects/snowboard.jpg",1,3,1,1.327,3,"Outdoor activity & sport item",NA,NA,NA,NA,0.263497759271852,1,0.00301676832232637,1.3841818285835,0.263497759271852,0.239565069495185,0.240569691779055,0.256367479453908,0.25180415091093,0.22893355555983,0.274271992042594,0.244990301486646
"stimuli/m2.jpg","stimuli/m5.jpg",1,"stimuli/Hand labour tool & accessory.png","stimuli/Outdoor activity & sport item.png","stimuli/Electronic device & accessory.png","stimuli/Kitchen & utensil.png",2,1,5,"stimuli/m2.jpg","Outdoor activity & sport item","stimuli/objects/handgripper.jpg",1,3,0,1.307,3,"Electronic device & accessory",NA,NA,NA,NA,0.263592315543852,0,0.00285221377536957,1.38510755145084,0.251010324510121,0.238202791113505,0.263592315543852,0.247194568832522,0.26219295354802,0.248814838462606,0.23078500384461,0.258207204144764
"stimuli/m5.jpg","stimuli/m2.jpg",2,"stimuli/Hand labour tool & accessory.png","stimuli/Outdoor activity & sport item.png","stimuli/Electronic device & accessory.png","stimuli/Kitchen & utensil.png",2,1,5,"stimuli/m2.jpg","Outdoor activity & sport item","stimuli/objects/hockeypuck.jpg",1,2,1,0.609,2,"Outdoor activity & sport item",NA,NA,NA,NA,0.256828053986891,1,0.00308398101230331,1.38297920711404,0.256828053986891,0.249336309539059,0.239239602152981,0.254596034321068,0.245034168074973,0.283807784855256,0.228253401348185,0.242904645721586
"stimuli/m2.jpg","stimuli/m5.jpg",2,"stimuli/Electronic device & accessory.png","stimuli/Kitchen & utensil.png","stimuli/Outdoor activity & sport item.png","stimuli/Hand labour tool & accessory.png",4,0,5,"stimuli/m5.jpg","Hand labour tool & accessory","stimuli/objects/flooringstapler.jpg",1,1,0,0.587,1,"Electronic device & accessory",NA,NA,NA,NA,0.267256425218332,0,0.00277251463377204,1.38300268856088,0.253276983527017,0.239441597337253,0.267256425218332,0.240024993917398,0.221367604606488,0.249673547458276,0.278676973873064,0.250281874062172
"stimuli/m2.jpg","stimuli/m5.jpg",1,"stimuli/Outdoor activity & sport item.png","stimuli/Hand labour tool & accessory.png","stimuli/Electronic device & accessory.png","stimuli/Kitchen & utensil.png",1,1,5,"stimuli/m2.jpg","Outdoor activity & sport item","stimuli/objects/backpack01a.jpg",1,1,1,0.805,1,"Outdoor activity & sport item",NA,NA,NA,NA,0.247219134121985,1,0.00306800776627904,1.3827353578974,0.247219134121985,0.268932359518943,0.237821904754984,0.246026601604088,0.281507671799547,0.256682715884171,0.226989316266925,0.234820296049356
"stimuli/m5.jpg","stimuli/m2.jpg",1,"stimuli/Electronic device & accessory.png","stimuli/Kitchen & utensil.png","stimuli/Outdoor activity & sport item.png","stimuli/Hand labour tool & accessory.png",4,0,5,"stimuli/m5.jpg","Hand labour tool & accessory","stimuli/objects/ladder.jpg",1,1,0,0.981,1,"Electronic device & accessory",NA,NA,NA,NA,0.266059105368916,0,0.00261594241254696,1.37999902033193,0.233965858579633,0.249817186576634,0.266059105368916,0.250157849474816,0.203825320107609,0.259646545499234,0.276527522202577,0.26000061219058
"stimuli/m5.jpg","stimuli/m2.jpg",1,"stimuli/Outdoor activity & sport item.png","stimuli/Electronic device & accessory.png","stimuli/Kitchen & utensil.png","stimuli/Hand labour tool & accessory.png",1,0,5,"stimuli/m5.jpg","Outdoor activity & sport item","stimuli/objects/downhillski.jpg",1,2,0,0.8,2,"Electronic device & accessory",NA,NA,NA,NA,0.264855412433443,0,0.00278915890183498,1.38240416562043,0.224142179260261,0.255402065479571,0.264855412433443,0.255600342826725,0.233804174599625,0.22330501977055,0.276272414663825,0.266618390966
"stimuli/m5.jpg","stimuli/m2.jpg",1,"stimuli/Outdoor activity & sport item.png","stimuli/Hand labour tool & accessory.png","stimuli/Kitchen & utensil.png","stimuli/Electronic device & accessory.png",4,1,5,"stimuli/m5.jpg","Electronic device & accessory","stimuli/objects/crocodileclips.jpg",1,4,1,1.073,4,"Electronic device & accessory",NA,NA,NA,NA,0.264712552211742,1,0.00315699436019187,1.38023469898887,0.24093033777579,0.235050811071508,0.264712552211742,0.25930629894096,0.229445185353939,0.223845935766232,0.252093701309876,0.294615177569953
"stimuli/m5.jpg","stimuli/m2.jpg",2,"stimuli/Kitchen & utensil.png","stimuli/Outdoor activity & sport item.png","stimuli/Electronic device & accessory.png","stimuli/Hand labour tool & accessory.png",1,0,5,"stimuli/m2.jpg","Kitchen & utensil","stimuli/objects/servingspoon01.jpg",1,2,0,0.815,2,"Outdoor activity & sport item",NA,NA,NA,NA,0.267644296207747,0,0.00277616926765936,1.38298586553903,0.267644296207747,0.253742320895136,0.237114017109478,0.24149936578764,0.279103332286441,0.221791729046066,0.247265916908279,0.251839021759214
"stimuli/m2.jpg","stimuli/m5.jpg",2,"stimuli/Outdoor activity & sport item.png","stimuli/Kitchen & utensil.png","stimuli/Hand labour tool & accessory.png","stimuli/Electronic device & accessory.png",4,1,5,"stimuli/m5.jpg","Electronic device & accessory","stimuli/objects/fluorescentlightbulb.jpg",1,3,0,1.161,3,"Hand labour tool & accessory",NA,NA,NA,NA,0.274984499439173,0,0.00275591659725465,1.38173700539238,0.238489303798206,0.23535372402909,0.251172472733531,0.274984499439173,0.248592292268432,0.245323881694117,0.219450312646375,0.286633513391076
"stimuli/m2.jpg","stimuli/m5.jpg",1,"stimuli/Outdoor activity & sport item.png","stimuli/Kitchen & utensil.png","stimuli/Hand labour tool & accessory.png","stimuli/Electronic device & accessory.png",4,0,5,"stimuli/m2.jpg","Electronic device & accessory","stimuli/objects/dvdcase01.jpg",1,2,0,0.573,2,"Kitchen & utensil",NA,NA,NA,NA,0.234203368265797,0,0.00261792606725615,1.38002791938125,0.266297866080407,0.234203368265797,0.248468913468636,0.25102985218516,0.276786732706962,0.204040382540257,0.258255538245534,0.260917346507247
"stimuli/m5.jpg","stimuli/m2.jpg",1,"stimuli/Electronic device & accessory.png","stimuli/Kitchen & utensil.png","stimuli/Hand labour tool & accessory.png","stimuli/Outdoor activity & sport item.png",4,0,5,"stimuli/m5.jpg","Outdoor activity & sport item","stimuli/objects/skiboot01a.jpg",1,1,0,0.532,1,"Electronic device & accessory",NA,NA,NA,NA,0.23289217508197,0,0.00274034934047715,1.38192728538526,0.249211683670322,0.247381373748705,0.23289217508197,0.270514767499003,0.217665181232517,0.257775804429489,0.242677800949039,0.281881213388954
"stimuli/m2.jpg","stimuli/m5.jpg",2,"stimuli/Kitchen & utensil.png","stimuli/Hand labour tool & accessory.png","stimuli/Outdoor activity & sport item.png","stimuli/Electronic device & accessory.png",4,1,5,"stimuli/m5.jpg","Electronic device & accessory","stimuli/objects/ipod.jpg",1,3,0,0.983,3,"Outdoor activity & sport item",NA,NA,NA,NA,0.23189250149021,0,0.0027138288163597,1.38147209671954,0.23189250149021,0.254354450480514,0.245899568531462,0.267853479497815,0.241501261064596,0.26489394936744,0.214652461814523,0.278952327753441
"stimuli/m5.jpg","stimuli/m2.jpg",1,"stimuli/Hand labour tool & accessory.png","stimuli/Kitchen & utensil.png","stimuli/Outdoor activity & sport item.png","stimuli/Electronic device & accessory.png",4,1,5,"stimuli/m5.jpg","Electronic device & accessory","stimuli/objects/telephone01b.jpg",1,4,1,1.05,4,"Electronic device & accessory",NA,NA,NA,NA,0.230205378616133,1,0.00320545211641996,1.3785879213428,0.245240706196174,0.258340611645766,0.230205378616133,0.266213303541927,0.233253901767968,0.245713513821379,0.218953466588179,0.302079117822473
"stimuli/m2.jpg","stimuli/m5.jpg",2,"stimuli/Kitchen & utensil.png","stimuli/Outdoor activity & sport item.png","stimuli/Electronic device & accessory.png","stimuli/Hand labour tool & accessory.png",3,1,5,"stimuli/m5.jpg","Electronic device & accessory","stimuli/objects/slidetray.jpg",1,3,1,0.904,3,"Electronic device & accessory",NA,NA,NA,NA,0.23261394128938,1,0.00295331715438239,1.38409646793094,0.240622184990062,0.247599567739972,0.23261394128938,0.279164305980585,0.230281722654249,0.236959260385584,0.265591476745859,0.267167540214308
"stimuli/m5.jpg","stimuli/m2.jpg",1,"stimuli/Kitchen & utensil.png","stimuli/Outdoor activity & sport item.png","stimuli/Hand labour tool & accessory.png","stimuli/Electronic device & accessory.png",4,1,5,"stimuli/m5.jpg","Electronic device & accessory","stimuli/objects/photocopier.jpg",1,4,1,0.933,4,"Electronic device & accessory",NA,NA,NA,NA,0.258731226977681,1,0.00315918876067228,1.38067870347359,0.23895776468638,0.242697185815927,0.258731226977681,0.259613822520012,0.227553780297605,0.231114741856104,0.246383576851247,0.294947900995044
"stimuli/m5.jpg","stimuli/m2.jpg",1,"stimuli/Hand labour tool & accessory.png","stimuli/Kitchen & utensil.png","stimuli/Electronic device & accessory.png","stimuli/Outdoor activity & sport item.png",3,1,5,"stimuli/m5.jpg","Electronic device & accessory","stimuli/objects/desktopcomputer.jpg",1,3,1,0.864,3,"Electronic device & accessory",NA,NA,NA,NA,0.247974803036698,1,0.00307372787494952,1.38189044966756,0.237430116966659,0.239424255439418,0.247974803036698,0.275170824557225,0.226583827032454,0.22848686920993,0.282328841304038,0.262600462453579
"stimuli/m2.jpg","stimuli/m5.jpg",1,"stimuli/Kitchen & utensil.png","stimuli/Hand labour tool & accessory.png","stimuli/Outdoor activity & sport item.png","stimuli/Electronic device & accessory.png",3,1,5,"stimuli/m2.jpg","Outdoor activity & sport item","stimuli/objects/bikewheel.jpg",1,3,1,0.901,3,"Outdoor activity & sport item",NA,NA,NA,NA,0.265000570315899,1,0.00312315031817801,1.38047250180624,0.265000570315899,0.224262614222544,0.254623101417499,0.256113714044058,0.25258545140528,0.213756044295316,0.28954356524178,0.244114939057624
"stimuli/m5.jpg","stimuli/m2.jpg",1,"stimuli/Kitchen & utensil.png","stimuli/Outdoor activity & sport item.png","stimuli/Electronic device & accessory.png","stimuli/Hand labour tool & accessory.png",3,1,5,"stimuli/m5.jpg","Electronic device & accessory","stimuli/objects/fuse.jpg",1,3,1,0.923,3,"Electronic device & accessory",NA,NA,NA,NA,0.268104151130261,1,0.00321841601207503,1.37831966682809,0.236886943138174,0.237952646757561,0.268104151130261,0.257056258974004,0.225230259160403,0.226243521855269,0.304119131533553,0.244407087450776
"stimuli/m2.jpg","stimuli/m5.jpg",1,"stimuli/Hand labour tool & accessory.png","stimuli/Kitchen & utensil.png","stimuli/Outdoor activity & sport item.png","stimuli/Electronic device & accessory.png",3,1,5,"stimuli/m2.jpg","Outdoor activity & sport item","stimuli/objects/poolnet.jpg",1,3,1,0.679,3,"Outdoor activity & sport item",NA,NA,NA,NA,0.251447852786957,1,0.00324568305666236,1.37707750748651,0.251447852786957,0.229703384805377,0.272144396535397,0.246704365872269,0.238897505068969,0.218238354106751,0.30847336419497,0.234390776629311
"stimuli/m2.jpg","stimuli/m5.jpg",2,"stimuli/Hand labour tool & accessory.png","stimuli/Outdoor activity & sport item.png","stimuli/Electronic device & accessory.png","stimuli/Kitchen & utensil.png",3,1,5,"stimuli/m5.jpg","Electronic device & accessory","stimuli/objects/floppydisk02a.jpg",1,3,1,1.072,3,"Electronic device & accessory",NA,NA,NA,NA,0.280306713658789,1,0.00329897406527313,1.37471287045586,0.236128945129826,0.23669637223895,0.280306713658789,0.246867968972434,0.224007859917289,0.224546159583618,0.317250357504893,0.2341956229942
"stimuli/m2.jpg","stimuli/m5.jpg",1,"stimuli/Kitchen & utensil.png","stimuli/Outdoor activity & sport item.png","stimuli/Hand labour tool & accessory.png","stimuli/Electronic device & accessory.png",2,1,5,"stimuli/m2.jpg","Outdoor activity & sport item","stimuli/objects/hockeygoaliepad.jpg",1,2,1,0.957,2,"Outdoor activity & sport item",NA,NA,NA,NA,0.243782602838623,1,0.00295006124351538,1.38369931719489,0.243782602838623,0.23221347829978,0.282745083949183,0.241258834912414,0.233323587110828,0.265153857196985,0.270614459181268,0.230908096510918
"stimuli/m5.jpg","stimuli/m2.jpg",2,"stimuli/Outdoor activity & sport item.png","stimuli/Hand labour tool & accessory.png","stimuli/Kitchen & utensil.png","stimuli/Electronic device & accessory.png",1,1,5,"stimuli/m2.jpg","Outdoor activity & sport item","stimuli/objects/skihelmet01.jpg",1,1,1,1.027,1,"Outdoor activity & sport item",NA,NA,NA,NA,0.240661208782064,1,0.00301748459686052,1.38418959177419,0.240661208782064,0.258486160030312,0.26154409714151,0.239308534046114,0.274371697967215,0.247010788295073,0.249932969723685,0.228684544014028
