"first_character","second_character","Cue","left_categ","centleft_categ","centright_categ","right_categ","corr_ans","trial_cond","switch_cond","cuedCharacter","obj_category","image","participant","task_resp.keys","task_resp.corr","task_resp.rt","response","respCat","V1","V2","V3","V4","P1","P2","P3","P4","Delta1","Delta2","Delta3","Delta4","Prob","Delta","accuracy"
"stimuli/m2.jpg","stimuli/m5.jpg",2,"stimuli/Electronic device & accessory.png","stimuli/Kitchen & utensil.png","stimuli/Hand labour tool & accessory.png","stimuli/Outdoor activity & sport item.png",2,0,2,"stimuli/m5.jpg","Kitchen & utensil","stimuli/objects/travelmug.jpg",1,1,0,1.175,1,"Electronic device & accessory",0.130652956547711,0.130652956547711,0.130652956547711,0.130652956547711,0.25,0.25,0.25,0.25,-0.25,-0.25,-0.25,-0.25,0.25,NA,0
"stimuli/m2.jpg","stimuli/m5.jpg",1,"stimuli/Kitchen & utensil.png","stimuli/Outdoor activity & sport item.png","stimuli/Electronic device & accessory.png","stimuli/Hand labour tool & accessory.png",2,1,2,"stimuli/m2.jpg","Outdoor activity & sport item","stimuli/objects/swimgoggles.jpg",1,2,1,0.518,2,"Outdoor activity & sport item",0.130652956547711,0.130652956547711,0.130652956547711,0.608041130356868,0.25,0.25,0.25,0.25,-0.25,-0.25,-0.25,0.75,0.25,NA,1
"stimuli/m2.jpg","stimuli/m5.jpg",2,"stimuli/Electronic device & accessory.png","stimuli/Hand labour tool & accessory.png","stimuli/Outdoor activity & sport item.png","stimuli/Kitchen & utensil.png",3,0,2,"stimuli/m5.jpg","Outdoor activity & sport item","stimuli/objects/outdoorheater.jpg",1,4,0,1.1,4,"Kitchen & utensil",0.068280780218632,0.068280780218632,0.068280780218632,0.068280780218632,0.25,0.25,0.25,0.25,-0.130652956547711,-0.130652956547711,-0.130652956547711,-0.130652956547711,0.25,NA,0
"stimuli/m2.jpg","stimuli/m5.jpg",2,"stimuli/Kitchen & utensil.png","stimuli/Hand labour tool & accessory.png","stimuli/Electronic device & accessory.png","stimuli/Outdoor activity & sport item.png",2,1,2,"stimuli/m5.jpg","Hand labour tool & accessory","stimuli/objects/adjustablewrench01b.jpg",1,2,1,0.913,2,"Hand labour tool & accessory",0.0356843432437949,0.513072517052952,0.0356843432437949,0.0356843432437949,0.25,0.25,0.25,0.25,-0.068280780218632,0.931719219781368,-0.068280780218632,-0.068280780218632,0.25,NA,1
"stimuli/m2.jpg","stimuli/m5.jpg",1,"stimuli/Kitchen & utensil.png","stimuli/Hand labour tool & accessory.png","stimuli/Electronic device & accessory.png","stimuli/Outdoor activity & sport item.png",3,0,2,"stimuli/m2.jpg","Electronic device & accessory","stimuli/objects/phonejack.jpg",1,4,0,1.059,4,"Outdoor activity & sport item",0.068280780218632,0.068280780218632,0.068280780218632,0.317769485534947,0.107435736687715,0.107435736687715,0.107435736687715,0.677692789936855,-0.130652956547711,-0.130652956547711,-0.130652956547711,-0.608041130356868,0.677692789936855,NA,0
"stimuli/m5.jpg","stimuli/m2.jpg",2,"stimuli/Hand labour tool & accessory.png","stimuli/Electronic device & accessory.png","stimuli/Kitchen & utensil.png","stimuli/Outdoor activity & sport item.png",4,1,2,"stimuli/m2.jpg","Outdoor activity & sport item","stimuli/objects/patioumbrella.jpg",1,1,0,1.119,1,"Hand labour tool & accessory",0.0356843432437949,0.0356843432437949,0.0356843432437949,0.166070091143143,0.177987971975717,0.177987971975717,0.177987971975717,0.466036084072848,-0.068280780218632,-0.068280780218632,-0.068280780218632,-0.317769485534947,0.177987971975717,NA,0
"stimuli/m5.jpg","stimuli/m2.jpg",1,"stimuli/Electronic device & accessory.png","stimuli/Outdoor activity & sport item.png","stimuli/Kitchen & utensil.png","stimuli/Hand labour tool & accessory.png",1,0,2,"stimuli/m5.jpg","Electronic device & accessory","stimuli/objects/wire.jpg",1,4,0,1.041,4,"Hand labour tool & accessory",0.0186490597890605,0.268137765105376,0.0186490597890605,0.0186490597890605,0.107435736687715,0.677692789936855,0.107435736687715,0.107435736687715,-0.0356843432437949,-0.513072517052952,-0.0356843432437949,-0.0356843432437949,0.677692789936855,NA,0
"stimuli/m2.jpg","stimuli/m5.jpg",2,"stimuli/Electronic device & accessory.png","stimuli/Kitchen & utensil.png","stimuli/Outdoor activity & sport item.png","stimuli/Hand labour tool & accessory.png",2,0,2,"stimuli/m5.jpg","Kitchen & utensil","stimuli/objects/cowbell.jpg",1,1,0,1.104,1,"Electronic device & accessory",0.00974621919310314,0.140131967092452,0.00974621919310314,0.00974621919310314,0.177987971975717,0.466036084072848,0.177987971975717,0.177987971975717,-0.0186490597890605,-0.268137765105376,-0.0186490597890605,-0.0186490597890605,0.177987971975717,NA,0
"stimuli/m5.jpg","stimuli/m2.jpg",2,"stimuli/Outdoor activity & sport item.png","stimuli/Hand labour tool & accessory.png","stimuli/Kitchen & utensil.png","stimuli/Electronic device & accessory.png",1,1,2,"stimuli/m2.jpg","Outdoor activity & sport item","stimuli/objects/baseball01a.jpg",1,1,1,0.738,1,"Outdoor activity & sport item",0.0186490597890605,0.0186490597890605,0.0186490597890605,0.564178367417155,0.214881002976819,0.214881002976819,0.214881002976819,0.355356991069544,-0.0356843432437949,-0.0356843432437949,-0.0356843432437949,0.833929908856857,0.355356991069544,NA,1
"stimuli/m2.jpg","stimuli/m5.jpg",1,"stimuli/Electronic device & accessory.png","stimuli/Hand labour tool & accessory.png","stimuli/Kitchen & utensil.png","stimuli/Outdoor activity & sport item.png",4,1,2,"stimuli/m2.jpg","Outdoor activity & sport item","stimuli/objects/bikehelmet.jpg",1,4,1,0.978,4,"Outdoor activity & sport item",0.00974621919310314,0.00974621919310314,0.00974621919310314,0.772234460702405,0.0892490522072846,0.0892490522072846,0.0892490522072846,0.732252843378146,-0.0186490597890605,-0.0186490597890605,-0.0186490597890605,0.435821632582845,0.732252843378146,NA,1
"stimuli/m2.jpg","stimuli/m5.jpg",1,"stimuli/Electronic device & accessory.png","stimuli/Outdoor activity & sport item.png","stimuli/Hand labour tool & accessory.png","stimuli/Kitchen & utensil.png",2,1,2,"stimuli/m2.jpg","Outdoor activity & sport item","stimuli/objects/canoepaddle02.jpg",1,2,1,0.954,2,"Outdoor activity & sport item",0.00509348941096388,0.00509348941096388,0.00509348941096388,0.880967035564341,0.045560611546992,0.045560611546992,0.045560611546992,0.863318165359024,-0.00974621919310314,-0.00974621919310314,-0.00974621919310314,0.227765539297595,0.863318165359024,NA,1
"stimuli/m5.jpg","stimuli/m2.jpg",1,"stimuli/Electronic device & accessory.png","stimuli/Outdoor activity & sport item.png","stimuli/Hand labour tool & accessory.png","stimuli/Kitchen & utensil.png",3,1,2,"stimuli/m5.jpg","Hand labour tool & accessory","stimuli/objects/leafrake.jpg",1,1,0,0.583,1,"Electronic device & accessory",0.00509348941096388,0.0732346232299013,0.00509348941096388,0.00509348941096388,0.214881002976819,0.355356991069544,0.214881002976819,0.214881002976819,-0.00974621919310314,-0.140131967092452,-0.00974621919310314,-0.00974621919310314,0.214881002976819,NA,0
"stimuli/m2.jpg","stimuli/m5.jpg",2,"stimuli/Kitchen & utensil.png","stimuli/Hand labour tool & accessory.png","stimuli/Outdoor activity & sport item.png","stimuli/Electronic device & accessory.png",2,1,2,"stimuli/m5.jpg","Hand labour tool & accessory","stimuli/objects/lawnmower.jpg",1,2,1,1.262,2,"Hand labour tool & accessory",0.00266191780274755,0.515661453995734,0.00266191780274755,0.00266191780274755,0.232520900324266,0.302437299027202,0.232520900324266,0.232520900324266,-0.00509348941096388,0.926765376770099,-0.00509348941096388,-0.00509348941096388,0.302437299027202,NA,1
"stimuli/m5.jpg","stimuli/m2.jpg",2,"stimuli/Kitchen & utensil.png","stimuli/Outdoor activity & sport item.png","stimuli/Hand labour tool & accessory.png","stimuli/Electronic device & accessory.png",2,1,2,"stimuli/m2.jpg","Outdoor activity & sport item","stimuli/objects/reflector.jpg",1,2,1,1.416,2,"Outdoor activity & sport item",0.00266191780274755,0.00266191780274755,0.00266191780274755,0.937791965079371,0.0309148001999982,0.0309148001999982,0.0309148001999982,0.907255599400005,-0.00509348941096388,-0.00509348941096388,-0.00509348941096388,0.119032964435659,0.907255599400005,NA,1
"stimuli/m2.jpg","stimuli/m5.jpg",1,"stimuli/Outdoor activity & sport item.png","stimuli/Kitchen & utensil.png","stimuli/Hand labour tool & accessory.png","stimuli/Electronic device & accessory.png",2,0,2,"stimuli/m2.jpg","Kitchen & utensil","stimuli/objects/fryingpan02a.jpg",1,1,0,0.45,1,"Outdoor activity & sport item",0.00139114972406382,0.00139114972406382,0.00139114972406382,0.490101171457229,0.0250720714449516,0.0250720714449516,0.0250720714449516,0.924783785665145,-0.00266191780274755,-0.00266191780274755,-0.00266191780274755,-0.937791965079371,0.924783785665145,NA,0
"stimuli/m2.jpg","stimuli/m5.jpg",1,"stimuli/Electronic device & accessory.png","stimuli/Hand labour tool & accessory.png","stimuli/Outdoor activity & sport item.png","stimuli/Kitchen & utensil.png",4,0,2,"stimuli/m2.jpg","Kitchen & utensil","stimuli/objects/muffintray01.jpg",1,4,1,1.046,4,"Kitchen & utensil",0.000727031297797879,0.000727031297797879,0.478115205106955,0.256132668233534,0.104280414787523,0.104280414787523,0.104280414787523,0.687158755637431,-0.00139114972406382,-0.00139114972406382,0.998608850275936,-0.490101171457229,0.104280414787523,NA,1
"stimuli/m5.jpg","stimuli/m2.jpg",1,"stimuli/Kitchen & utensil.png","stimuli/Outdoor activity & sport item.png","stimuli/Hand labour tool & accessory.png","stimuli/Electronic device & accessory.png",3,1,2,"stimuli/m5.jpg","Hand labour tool & accessory","stimuli/objects/pliers02b.jpg",1,3,1,1.069,3,"Hand labour tool & accessory",0.00139114972406382,0.746878947978093,0.00139114972406382,0.00139114972406382,0.0976858430507282,0.706942470847815,0.0976858430507282,0.0976858430507282,-0.00266191780274755,0.484338546004266,-0.00266191780274755,-0.00266191780274755,0.706942470847815,NA,1
"stimuli/m2.jpg","stimuli/m5.jpg",2,"stimuli/Outdoor activity & sport item.png","stimuli/Electronic device & accessory.png","stimuli/Hand labour tool & accessory.png","stimuli/Kitchen & utensil.png",2,0,2,"stimuli/m5.jpg","Electronic device & accessory","stimuli/objects/papershredder.jpg",1,2,1,0.954,2,"Electronic device & accessory",0.478115205106955,0.390327770946327,0.000727031297797879,0.000727031297797879,0.0482024528160781,0.855392641551766,0.0482024528160781,0.0482024528160781,0.998608850275936,-0.746878947978093,-0.00139114972406382,-0.00139114972406382,0.0482024528160781,NA,1
"stimuli/m5.jpg","stimuli/m2.jpg",2,"stimuli/Electronic device & accessory.png","stimuli/Outdoor activity & sport item.png","stimuli/Kitchen & utensil.png","stimuli/Hand labour tool & accessory.png",2,1,2,"stimuli/m2.jpg","Outdoor activity & sport item","stimuli/objects/boatmotor.jpg",1,3,0,1.099,3,"Kitchen & utensil",0.000379955154240048,0.000379955154240048,0.249868660470555,0.133857961492661,0.0910190892648548,0.0910190892648548,0.574138386752127,0.243823434718163,-0.000727031297797879,-0.000727031297797879,-0.478115205106955,-0.256132668233534,0.574138386752127,NA,0
"stimuli/m2.jpg","stimuli/m5.jpg",2,"stimuli/Hand labour tool & accessory.png","stimuli/Outdoor activity & sport item.png","stimuli/Kitchen & utensil.png","stimuli/Electronic device & accessory.png",1,1,2,"stimuli/m5.jpg","Hand labour tool & accessory","stimuli/objects/drillbit03a.jpg",1,1,1,0.653,1,"Hand labour tool & accessory",0.249868660470555,0.681378082996418,0.000379955154240048,0.000379955154240048,0.492667628577018,0.351125575646703,0.0781033978881396,0.0781033978881396,-0.478115205106955,0.609672229053673,-0.000727031297797879,-0.000727031297797879,0.351125575646703,NA,1
"stimuli/m2.jpg","stimuli/m5.jpg",1,"stimuli/Hand labour tool & accessory.png","stimuli/Electronic device & accessory.png","stimuli/Outdoor activity & sport item.png","stimuli/Kitchen & utensil.png",3,1,2,"stimuli/m2.jpg","Outdoor activity & sport item","stimuli/objects/lifesaver.jpg",1,3,1,0.596,3,"Outdoor activity & sport item",0.000198569057028015,0.000198569057028015,0.130584316956377,0.54734392751502,0.158933410733462,0.158933410733462,0.41614443686492,0.265988741668156,-0.000379955154240048,-0.000379955154240048,-0.249868660470555,0.866142038507339,0.265988741668156,NA,1
"stimuli/m5.jpg","stimuli/m2.jpg",1,"stimuli/Electronic device & accessory.png","stimuli/Kitchen & utensil.png","stimuli/Outdoor activity & sport item.png","stimuli/Hand labour tool & accessory.png",4,1,2,"stimuli/m5.jpg","Hand labour tool & accessory","stimuli/objects/tape02a.jpg",1,1,0,0.56,1,"Electronic device & accessory",0.130584316956377,0.356096244281174,0.000198569057028015,0.000198569057028015,0.141875364954565,0.749754878519756,0.0541848782628396,0.0541848782628396,-0.249868660470555,-0.681378082996418,-0.000379955154240048,-0.000379955154240048,0.141875364954565,NA,0
"stimuli/m2.jpg","stimuli/m5.jpg",1,"stimuli/Hand labour tool & accessory.png","stimuli/Kitchen & utensil.png","stimuli/Electronic device & accessory.png","stimuli/Outdoor activity & sport item.png",4,1,2,"stimuli/m2.jpg","Outdoor activity & sport item","stimuli/objects/ellipticalmachine.jpg",1,2,0,0.838,2,"Kitchen & utensil",0.000103774537518405,0.000103774537518405,0.0682449083564558,0.286048409513093,0.0839654986135172,0.0839654986135172,0.138856979107512,0.693212023665453,-0.000198569057028015,-0.000198569057028015,-0.130584316956377,-0.54734392751502,0.138856979107512,NA,0
"stimuli/m2.jpg","stimuli/m5.jpg",2,"stimuli/Kitchen & utensil.png","stimuli/Electronic device & accessory.png","stimuli/Hand labour tool & accessory.png","stimuli/Outdoor activity & sport item.png",3,1,2,"stimuli/m5.jpg","Hand labour tool & accessory","stimuli/objects/wheelbarrow01.jpg",1,3,1,0.606,3,"Hand labour tool & accessory",0.0682449083564558,0.663488282332642,0.000103774537518405,0.000103774537518405,0.217561852558336,0.519322968834802,0.131557589303431,0.131557589303431,-0.130584316956377,0.643903755718826,-0.000198569057028015,-0.000198569057028015,0.519322968834802,NA,1
"stimuli/m5.jpg","stimuli/m2.jpg",2,"stimuli/Electronic device & accessory.png","stimuli/Hand labour tool & accessory.png","stimuli/Kitchen & utensil.png","stimuli/Outdoor activity & sport item.png",1,0,2,"stimuli/m2.jpg","Electronic device & accessory","stimuli/objects/scanner.jpg",1,4,0,1.105,4,"Outdoor activity & sport item",5.42338005646036e-05,5.42338005646036e-05,0.0356655961843941,0.149492281674624,0.158366313529658,0.158366313529658,0.205985268653316,0.477282104287367,-0.000103774537518405,-0.000103774537518405,-0.0682449083564558,-0.286048409513093,0.477282104287367,NA,0
"stimuli/m2.jpg","stimuli/m5.jpg",2,"stimuli/Hand labour tool & accessory.png","stimuli/Outdoor activity & sport item.png","stimuli/Electronic device & accessory.png","stimuli/Kitchen & utensil.png",1,1,2,"stimuli/m5.jpg","Hand labour tool & accessory","stimuli/objects/boltcutter.jpg",1,1,1,0.552,1,"Hand labour tool & accessory",0.0356655961843941,0.824134996695244,5.42338005646036e-05,5.42338005646036e-05,0.080147859246954,0.796613026721095,0.0616195570159755,0.0616195570159755,-0.0682449083564558,0.336511717667358,-0.000103774537518405,-0.000103774537518405,0.796613026721095,NA,1
"stimuli/m5.jpg","stimuli/m2.jpg",1,"stimuli/Kitchen & utensil.png","stimuli/Hand labour tool & accessory.png","stimuli/Outdoor activity & sport item.png","stimuli/Electronic device & accessory.png",2,1,2,"stimuli/m5.jpg","Hand labour tool & accessory","stimuli/objects/gluetube.jpg",1,2,1,0.651,2,"Hand labour tool & accessory",0.0186392623541114,0.908090869459843,2.83432255543375e-05,2.83432255543375e-05,0.0422121288083513,0.884201242794197,0.0367933141987259,0.0367933141987259,-0.0356655961843941,0.175865003304756,-5.42338005646036e-05,-5.42338005646036e-05,0.884201242794197,NA,1
"stimuli/m5.jpg","stimuli/m2.jpg",2,"stimuli/Kitchen & utensil.png","stimuli/Hand labour tool & accessory.png","stimuli/Electronic device & accessory.png","stimuli/Outdoor activity & sport item.png",4,1,2,"stimuli/m2.jpg","Outdoor activity & sport item","stimuli/objects/volleyball.jpg",1,3,0,0.758,3,"Electronic device & accessory",2.83432255543375e-05,2.83432255543375e-05,0.0186392623541114,0.078126434327411,0.202956949773794,0.202956949773794,0.232847871766283,0.361238228686129,-5.42338005646036e-05,-5.42338005646036e-05,-0.0356655961843941,-0.149492281674624,0.202956949773794,NA,0
"stimuli/m2.jpg","stimuli/m5.jpg",1,"stimuli/Hand labour tool & accessory.png","stimuli/Kitchen & utensil.png","stimuli/Outdoor activity & sport item.png","stimuli/Electronic device & accessory.png",3,1,2,"stimuli/m2.jpg","Outdoor activity & sport item","stimuli/objects/sportbag.jpg",1,3,1,1.592,3,"Outdoor activity & sport item",1.48125048670913e-05,1.48125048670913e-05,0.00974109893773238,0.518217972326784,0.225934099429654,0.225934099429654,0.24275331284486,0.305378488295831,-2.83432255543375e-05,-2.83432255543375e-05,-0.0186392623541114,0.921873565672589,0.305378488295831,NA,1
"stimuli/m5.jpg","stimuli/m2.jpg",2,"stimuli/Electronic device & accessory.png","stimuli/Outdoor activity & sport item.png","stimuli/Hand labour tool & accessory.png","stimuli/Kitchen & utensil.png",2,1,2,"stimuli/m2.jpg","Outdoor activity & sport item","stimuli/objects/hockeygoaliemask.jpg",1,2,1,0.601,2,"Outdoor activity & sport item",7.74119021905132e-06,7.74119021905132e-06,0.005090813504954,0.748215014691773,0.0959518701795674,0.0959518701795674,0.0996208513059176,0.708475408334948,-1.48125048670913e-05,-1.48125048670913e-05,-0.00974109893773238,0.481782027673216,0.708475408334948,NA,1
"stimuli/m2.jpg","stimuli/m5.jpg",2,"stimuli/Kitchen & utensil.png","stimuli/Outdoor activity & sport item.png","stimuli/Electronic device & accessory.png","stimuli/Hand labour tool & accessory.png",4,1,2,"stimuli/m5.jpg","Hand labour tool & accessory","stimuli/objects/pressurewasher.jpg",1,4,1,0.832,4,"Hand labour tool & accessory",0.00974109893773238,0.951967201444796,1.48125048670913e-05,1.48125048670913e-05,0.029597424971566,0.915309052488858,0.027546761269788,0.027546761269788,-0.0186392623541114,0.0919091305401569,-2.83432255543375e-05,-2.83432255543375e-05,0.915309052488858,NA,1
"stimuli/m2.jpg","stimuli/m5.jpg",2,"stimuli/Hand labour tool & accessory.png","stimuli/Kitchen & utensil.png","stimuli/Outdoor activity & sport item.png","stimuli/Electronic device & accessory.png",1,1,2,"stimuli/m5.jpg","Hand labour tool & accessory","stimuli/objects/saw02b.jpg",1,1,1,0.78,1,"Hand labour tool & accessory",0.005090813504954,0.974897491430008,7.74119021905132e-06,7.74119021905132e-06,0.0244887277839886,0.928337629381412,0.0235868214172996,0.0235868214172996,-0.00974109893773238,0.048032798555204,-1.48125048670913e-05,-1.48125048670913e-05,0.928337629381412,NA,1
"stimuli/m5.jpg","stimuli/m2.jpg",2,"stimuli/Kitchen & utensil.png","stimuli/Hand labour tool & accessory.png","stimuli/Outdoor activity & sport item.png","stimuli/Electronic device & accessory.png",2,0,2,"stimuli/m2.jpg","Hand labour tool & accessory","stimuli/objects/sewingmachine01a.jpg",1,3,0,1.148,3,"Outdoor activity & sport item",4.04563755726911e-06,4.04563755726911e-06,0.00266051934262102,0.391026015211476,0.0477263062568455,0.0477263062568455,0.0486714995227578,0.855875887963551,-7.74119021905132e-06,-7.74119021905132e-06,-0.005090813504954,-0.748215014691773,0.855875887963551,NA,0
"stimuli/m5.jpg","stimuli/m2.jpg",1,"stimuli/Outdoor activity & sport item.png","stimuli/Hand labour tool & accessory.png","stimuli/Kitchen & utensil.png","stimuli/Electronic device & accessory.png",2,1,2,"stimuli/m5.jpg","Hand labour tool & accessory","stimuli/objects/wheel01.jpg",1,2,1,0.641,2,"Hand labour tool & accessory",0.00266051934262102,0.986881132154265,4.04563755726911e-06,4.04563755726911e-06,0.022160092719461,0.934380413236614,0.0217297470219623,0.0217297470219623,-0.005090813504954,0.0251025085699921,-7.74119021905132e-06,-7.74119021905132e-06,0.934380413236614,NA,1
"stimuli/m5.jpg","stimuli/m2.jpg",1,"stimuli/Electronic device & accessory.png","stimuli/Hand labour tool & accessory.png","stimuli/Kitchen & utensil.png","stimuli/Outdoor activity & sport item.png",2,1,2,"stimuli/m5.jpg","Hand labour tool & accessory","stimuli/objects/puttyknife.jpg",1,2,1,0.675,2,"Hand labour tool & accessory",0.00139041887226323,0.993143924517584,2.11429803191067e-06,2.11429803191067e-06,0.0210279140854263,0.93734508184956,0.0208135020325068,0.0208135020325068,-0.00266051934262102,0.0131188678457349,-4.04563755726911e-06,-4.04563755726911e-06,0.93734508184956,NA,1
"stimuli/m5.jpg","stimuli/m2.jpg",1,"stimuli/Outdoor activity & sport item.png","stimuli/Hand labour tool & accessory.png","stimuli/Electronic device & accessory.png","stimuli/Kitchen & utensil.png",1,0,2,"stimuli/m5.jpg","Outdoor activity & sport item","stimuli/objects/treadmill.jpg",1,2,0,0.445,2,"Hand labour tool & accessory",0.000726649346003701,0.519028760062476,1.10495715556854e-06,1.10495715556854e-06,0.0204582446372414,0.93884383664145,0.0203489593606545,0.0203489593606545,-0.00139041887226323,-0.993143924517584,-2.11429803191067e-06,-2.11429803191067e-06,0.93884383664145,NA,0
"stimuli/m2.jpg","stimuli/m5.jpg",1,"stimuli/Outdoor activity & sport item.png","stimuli/Electronic device & accessory.png","stimuli/Kitchen & utensil.png","stimuli/Hand labour tool & accessory.png",1,1,2,"stimuli/m2.jpg","Outdoor activity & sport item","stimuli/objects/exercisebike.jpg",1,4,0,1.569,4,"Hand labour tool & accessory",2.11429803191067e-06,2.11429803191067e-06,0.00139041887226323,0.204354819897798,0.132790303054053,0.132790303054053,0.134158253600826,0.600261140291069,-4.04563755726911e-06,-4.04563755726911e-06,-0.00266051934262102,-0.391026015211476,0.132790303054053,NA,0
"stimuli/m5.jpg","stimuli/m2.jpg",2,"stimuli/Hand labour tool & accessory.png","stimuli/Outdoor activity & sport item.png","stimuli/Kitchen & utensil.png","stimuli/Electronic device & accessory.png",2,1,2,"stimuli/m2.jpg","Outdoor activity & sport item","stimuli/objects/bikelock.jpg",1,2,1,0.824,2,"Outdoor activity & sport item",1.10495715556854e-06,1.10495715556854e-06,0.000726649346003701,0.584186419426846,0.192113220966751,0.192113220966751,0.193144976257882,0.422628581808617,-2.11429803191067e-06,-2.11429803191067e-06,-0.00139041887226323,0.795645180102202,0.422628581808617,NA,1
"stimuli/m5.jpg","stimuli/m2.jpg",2,"stimuli/Outdoor activity & sport item.png","stimuli/Electronic device & accessory.png","stimuli/Hand labour tool & accessory.png","stimuli/Kitchen & utensil.png",1,1,2,"stimuli/m2.jpg","Outdoor activity & sport item","stimuli/objects/bikepump01.jpg",1,1,1,1.024,1,"Outdoor activity & sport item",5.77463676934315e-07,5.77463676934315e-07,0.000379755541715376,0.782690905301711,0.0798277308806927,0.0798277308806927,0.0800514982984834,0.760293039940131,-1.10495715556854e-06,-1.10495715556854e-06,-0.000726649346003701,0.415813580573154,0.760293039940131,NA,1
"stimuli/m2.jpg","stimuli/m5.jpg",1,"stimuli/Hand labour tool & accessory.png","stimuli/Outdoor activity & sport item.png","stimuli/Electronic device & accessory.png","stimuli/Kitchen & utensil.png",2,1,2,"stimuli/m2.jpg","Outdoor activity & sport item","stimuli/objects/propanetank01.jpg",1,2,1,1.359,2,"Outdoor activity & sport item",3.01789346761521e-07,3.01789346761521e-07,0.000198464737161966,0.886431697171848,0.0425781595052943,0.0425781595052943,0.0426404926309264,0.872203188358485,-5.77463676934315e-07,-5.77463676934315e-07,-0.000379755541715376,0.217309094698289,0.872203188358485,NA,1
"stimuli/m5.jpg","stimuli/m2.jpg",1,"stimuli/Outdoor activity & sport item.png","stimuli/Electronic device & accessory.png","stimuli/Kitchen & utensil.png","stimuli/Hand labour tool & accessory.png",4,1,2,"stimuli/m5.jpg","Hand labour tool & accessory","stimuli/objects/metalbrush.jpg",1,4,1,0.994,4,"Hand labour tool & accessory",0.000379755541715376,0.748638741950976,5.77463676934315e-07,5.77463676934315e-07,0.0963309216553148,0.711545781396094,0.0960616484742953,0.0960616484742953,-0.000726649346003701,0.480971239937524,-1.10495715556854e-06,-1.10495715556854e-06,0.711545781396094,NA,1
"stimuli/m2.jpg","stimuli/m5.jpg",1,"stimuli/Kitchen & utensil.png","stimuli/Hand labour tool & accessory.png","stimuli/Outdoor activity & sport item.png","stimuli/Electronic device & accessory.png",2,0,2,"stimuli/m2.jpg","Hand labour tool & accessory","stimuli/objects/bungeecord02.jpg",1,3,0,1.002,3,"Outdoor activity & sport item",1.5771868163598e-07,1.5771868163598e-07,0.0001037200187227,0.463259688052428,0.0297904527058451,0.0297904527058451,0.0298132370577041,0.910605857530606,-3.01789346761521e-07,-3.01789346761521e-07,-0.000198464737161966,-0.886431697171848,0.910605857530606,NA,0
"stimuli/m2.jpg","stimuli/m5.jpg",2,"stimuli/Outdoor activity & sport item.png","stimuli/Hand labour tool & accessory.png","stimuli/Kitchen & utensil.png","stimuli/Electronic device & accessory.png",2,1,2,"stimuli/m5.jpg","Hand labour tool & accessory","stimuli/objects/weedwacker.jpg",1,2,1,0.702,2,"Hand labour tool & accessory",0.000198464737161966,0.868635633897372,3.01789346761521e-07,3.01789346761521e-07,0.0477699657962124,0.856829765691956,0.047700134255916,0.047700134255916,-0.000379755541715376,0.251361258049024,-5.77463676934315e-07,-5.77463676934315e-07,0.856829765691956,NA,1
"stimuli/m5.jpg","stimuli/m2.jpg",2,"stimuli/Electronic device & accessory.png","stimuli/Kitchen & utensil.png","stimuli/Outdoor activity & sport item.png","stimuli/Hand labour tool & accessory.png",3,1,2,"stimuli/m2.jpg","Outdoor activity & sport item","stimuli/objects/toyhockeystick01.jpg",1,3,1,0.744,3,"Outdoor activity & sport item",8.24256482341918e-08,8.24256482341918e-08,5.42053083972189e-05,0.719493165382837,0.111437333979901,0.111437333979901,0.111481867831867,0.66564346420833,-1.5771868163598e-07,-1.5771868163598e-07,-0.0001037200187227,0.536740311947572,0.66564346420833,NA,1
"stimuli/m2.jpg","stimuli/m5.jpg",2,"stimuli/Outdoor activity & sport item.png","stimuli/Electronic device & accessory.png","stimuli/Kitchen & utensil.png","stimuli/Hand labour tool & accessory.png",4,1,2,"stimuli/m5.jpg","Hand labour tool & accessory","stimuli/objects/hedgeshears.jpg",1,4,1,1.11,4,"Hand labour tool & accessory",0.0001037200187227,0.931347428734703,1.5771868163598e-07,1.5771868163598e-07,0.0317304858340414,0.904857041663029,0.031706236251465,0.031706236251465,-0.000198464737161966,0.131364366102628,-3.01789346761521e-07,-3.01789346761521e-07,0.904857041663029,NA,1
"stimuli/m2.jpg","stimuli/m5.jpg",2,"stimuli/Electronic device & accessory.png","stimuli/Hand labour tool & accessory.png","stimuli/Kitchen & utensil.png","stimuli/Outdoor activity & sport item.png",2,1,2,"stimuli/m5.jpg","Hand labour tool & accessory","stimuli/objects/caulking.jpg",1,2,1,0.664,2,"Hand labour tool & accessory",5.42053083972189e-05,0.964121354358346,8.24256482341918e-08,8.24256482341918e-08,0.0254224595482812,0.923752932461745,0.0254123039949869,0.0254123039949869,-0.0001037200187227,0.068652571265297,-1.5771868163598e-07,-1.5771868163598e-07,0.923752932461745,NA,1
"stimuli/m5.jpg","stimuli/m2.jpg",2,"stimuli/Electronic device & accessory.png","stimuli/Kitchen & utensil.png","stimuli/Hand labour tool & accessory.png","stimuli/Outdoor activity & sport item.png",4,1,2,"stimuli/m2.jpg","Outdoor activity & sport item","stimuli/objects/soccerball.jpg",1,4,1,0.848,4,"Outdoor activity & sport item",4.3076618548635e-08,4.3076618548635e-08,2.83283352107084e-05,0.853403810901711,0.0524861331580508,0.0524861331580508,0.0524970939500851,0.842530639733813,-8.24256482341918e-08,-8.24256482341918e-08,-5.42053083972189e-05,0.280506834617163,0.842530639733813,NA,1
"stimuli/m5.jpg","stimuli/m2.jpg",1,"stimuli/Hand labour tool & accessory.png","stimuli/Electronic device & accessory.png","stimuli/Kitchen & utensil.png","stimuli/Outdoor activity & sport item.png",1,1,2,"stimuli/m5.jpg","Hand labour tool & accessory","stimuli/objects/axe01.jpg",1,1,1,0.76,1,"Hand labour tool & accessory",2.83283352107084e-05,0.981249395479961,4.3076618548635e-08,4.3076618548635e-08,0.0226033827334342,0.932199290454631,0.0225986634059673,0.0225986634059673,-5.42053083972189e-05,0.0358786456416539,-8.24256482341918e-08,-8.24256482341918e-08,0.932199290454631,NA,1
"stimuli/m2.jpg","stimuli/m5.jpg",2,"stimuli/Outdoor activity & sport item.png","stimuli/Hand labour tool & accessory.png","stimuli/Electronic device & accessory.png","stimuli/Kitchen & utensil.png",4,1,3,"stimuli/m5.jpg","Kitchen & utensil","stimuli/objects/toothpick02.jpg",1,3,0,0.768,3,"Electronic device & accessory",1.48047229974147e-05,0.512812538520443,2.25123502858285e-08,2.25123502858285e-08,0.0212480578038571,0.936260463798688,0.0212457391987274,0.0212457391987274,-2.83283352107084e-05,-0.981249395479961,-4.3076618548635e-08,-4.3076618548635e-08,0.0212480578038571,NA,0
"stimuli/m5.jpg","stimuli/m2.jpg",1,"stimuli/Electronic device & accessory.png","stimuli/Kitchen & utensil.png","stimuli/Outdoor activity & sport item.png","stimuli/Hand labour tool & accessory.png",2,1,3,"stimuli/m5.jpg","Kitchen & utensil","stimuli/objects/woodenspoon.jpg",1,2,1,0.835,2,"Kitchen & utensil",7.73712332192847e-06,0.268001897249731,0.477388185574377,1.17652204947248e-08,0.0977407079971521,0.706789024178344,0.0977351339122522,0.0977351339122522,-1.48047229974147e-05,-0.512812538520443,0.99999997748765,-2.25123502858285e-08,0.0977351339122522,NA,1
"stimuli/m5.jpg","stimuli/m2.jpg",1,"stimuli/Hand labour tool & accessory.png","stimuli/Kitchen & utensil.png","stimuli/Electronic device & accessory.png","stimuli/Outdoor activity & sport item.png",4,0,3,"stimuli/m5.jpg","Outdoor activity & sport item","stimuli/objects/baseballbat.jpg",1,2,0,0.527,2,"Kitchen & utensil",4.0435121487368e-06,0.140060960944293,0.249488711464958,6.14864336828606e-09,0.0899296498479567,0.252893964821808,0.567249415799188,0.0899269695310471,-7.73712332192847e-06,-0.268001897249731,-0.477388185574377,-1.17652204947248e-08,0.567249415799188,NA,0
"stimuli/m5.jpg","stimuli/m2.jpg",1,"stimuli/Electronic device & accessory.png","stimuli/Outdoor activity & sport item.png","stimuli/Hand labour tool & accessory.png","stimuli/Kitchen & utensil.png",4,1,3,"stimuli/m5.jpg","Kitchen & utensil","stimuli/objects/gravyboat.jpg",1,2,0,0.896,2,"Outdoor activity & sport item",2.1131872682762e-06,0.0731975145771411,0.130385751112702,3.21335373929619e-09,0.157855452522295,0.270976034567171,0.413315519199277,0.157852993711257,-4.0435121487368e-06,-0.140060960944293,-0.249488711464958,-6.14864336828606e-09,0.157852993711257,NA,0
"stimuli/m2.jpg","stimuli/m5.jpg",1,"stimuli/Hand labour tool & accessory.png","stimuli/Electronic device & accessory.png","stimuli/Outdoor activity & sport item.png","stimuli/Kitchen & utensil.png",2,1,3,"stimuli/m2.jpg","Electronic device & accessory","stimuli/objects/videocamera01a.jpg",1,3,0,0.975,3,"Outdoor activity & sport item",2.25123502858285e-08,2.25123502858285e-08,1.48047229974147e-05,0.445998924093568,0.0334334810482071,0.0334334810482071,0.0334371297346536,0.899695908168932,-4.3076618548635e-08,-4.3076618548635e-08,-2.83283352107084e-05,-0.853403810901711,0.899695908168932,NA,0
"stimuli/m2.jpg","stimuli/m5.jpg",2,"stimuli/Hand labour tool & accessory.png","stimuli/Kitchen & utensil.png","stimuli/Electronic device & accessory.png","stimuli/Outdoor activity & sport item.png",2,1,3,"stimuli/m5.jpg","Kitchen & utensil","stimuli/objects/coffeepot03a.jpg",1,2,1,0.707,2,"Kitchen & utensil",1.10437665735706e-06,0.0382538867657906,0.545529309307431,1.67933666589076e-09,0.200802503186377,0.266324497755907,0.332072130486552,0.200800868571163,-2.1131872682762e-06,-0.0731975145771411,0.869614248887298,-3.21335373929619e-09,0.332072130486552,NA,1
"stimuli/m5.jpg","stimuli/m2.jpg",2,"stimuli/Electronic device & accessory.png","stimuli/Kitchen & utensil.png","stimuli/Hand labour tool & accessory.png","stimuli/Outdoor activity & sport item.png",1,1,3,"stimuli/m2.jpg","Electronic device & accessory","stimuli/objects/filmnegative.jpg",1,1,1,0.913,1,"Electronic device & accessory",0.477388185574377,1.17652204947248e-08,7.73712332192847e-06,0.233084312199691,0.116434903288203,0.116434903288203,0.116441543868824,0.650688649554769,0.99999997748765,-2.25123502858285e-08,-1.48047229974147e-05,-0.445998924093568,0.116434903288203,NA,1
"stimuli/m2.jpg","stimuli/m5.jpg",2,"stimuli/Outdoor activity & sport item.png","stimuli/Hand labour tool & accessory.png","stimuli/Kitchen & utensil.png","stimuli/Electronic device & accessory.png",3,1,3,"stimuli/m5.jpg","Kitchen & utensil","stimuli/objects/dishrack.jpg",1,3,1,0.902,3,"Kitchen & utensil",5.77160301703914e-07,0.0199919336215675,0.762488242386943,8.77641201750411e-10,0.0880003572465222,0.101994931783045,0.722004728102434,0.0879999828679991,-1.10437665735706e-06,-0.0382538867657906,0.454470690692569,-1.67933666589076e-09,0.722004728102434,NA,1
"stimuli/m5.jpg","stimuli/m2.jpg",2,"stimuli/Kitchen & utensil.png","stimuli/Outdoor activity & sport item.png","stimuli/Hand labour tool & accessory.png","stimuli/Electronic device & accessory.png",2,0,3,"stimuli/m2.jpg","Outdoor activity & sport item","stimuli/objects/catchermask.jpg",1,1,0,0.891,1,"Kitchen & utensil",0.249488711464958,6.14864336828606e-09,4.0435121487368e-06,0.121812618055117,0.585924866664569,0.0928876190340237,0.0928903875945267,0.228297126706881,-0.477388185574377,-1.17652204947248e-08,-7.73712332192847e-06,-0.233084312199691,0.0928903875945267,NA,0
"stimuli/m5.jpg","stimuli/m2.jpg",1,"stimuli/Outdoor activity & sport item.png","stimuli/Hand labour tool & accessory.png","stimuli/Kitchen & utensil.png","stimuli/Electronic device & accessory.png",3,1,3,"stimuli/m5.jpg","Kitchen & utensil","stimuli/objects/spatula04.jpg",1,3,1,0.761,3,"Kitchen & utensil",3.01630799278341e-07,0.0104480209390535,0.875873546612043,4.58665671187109e-10,0.0453948723523745,0.0490346594530742,0.860175696770478,0.045394771424073,-5.77160301703914e-07,-0.0199919336215675,0.237511757613057,-8.77641201750411e-10,0.860175696770478,NA,1
"stimuli/m5.jpg","stimuli/m2.jpg",2,"stimuli/Kitchen & utensil.png","stimuli/Hand labour tool & accessory.png","stimuli/Electronic device & accessory.png","stimuli/Outdoor activity & sport item.png",2,0,3,"stimuli/m2.jpg","Hand labour tool & accessory","stimuli/objects/bucket02.jpg",1,1,0,0.938,1,"Kitchen & utensil",0.130385751112702,3.21335373929619e-09,2.1131872682762e-06,0.0636607147748725,0.421072342214746,0.160815470748297,0.16081797570462,0.257294211332337,-0.249488711464958,-6.14864336828606e-09,-4.0435121487368e-06,-0.121812618055117,0.16081797570462,NA,0
"stimuli/m5.jpg","stimuli/m2.jpg",2,"stimuli/Outdoor activity & sport item.png","stimuli/Hand labour tool & accessory.png","stimuli/Electronic device & accessory.png","stimuli/Kitchen & utensil.png",3,1,3,"stimuli/m2.jpg","Electronic device & accessory","stimuli/objects/usbcable01a.jpg",1,1,0,1.483,1,"Outdoor activity & sport item",0.0681411354982741,1.67933666589076e-09,1.10437665735706e-06,0.0332698424051105,0.335298029149994,0.202751538904721,0.202753189399327,0.259197242545958,-0.130385751112702,-3.21335373929619e-09,-2.1131872682762e-06,-0.0636607147748725,0.259197242545958,NA,0
"stimuli/m5.jpg","stimuli/m2.jpg",2,"stimuli/Kitchen & utensil.png","stimuli/Hand labour tool & accessory.png","stimuli/Outdoor activity & sport item.png","stimuli/Electronic device & accessory.png",4,1,3,"stimuli/m2.jpg","Electronic device & accessory","stimuli/objects/antenna.jpg",1,4,1,1.151,4,"Electronic device & accessory",0.512999537070628,8.77641201750411e-10,5.77160301703914e-07,0.0173872130964163,0.293102865275827,0.22534436837246,0.225345327055508,0.256207439296205,0.931858864501726,-1.67933666589076e-09,-1.10437665735706e-06,-0.0332698424051105,0.293102865275827,NA,1
"stimuli/m2.jpg","stimuli/m5.jpg",2,"stimuli/Electronic device & accessory.png","stimuli/Hand labour tool & accessory.png","stimuli/Kitchen & utensil.png","stimuli/Outdoor activity & sport item.png",1,0,3,"stimuli/m5.jpg","Electronic device & accessory","stimuli/objects/computerkeyboard02.jpg",1,3,0,1.047,3,"Kitchen & utensil",1.57635822846257e-07,0.00546025930303894,0.457741873707171,2.39704104030144e-10,0.030875573317853,0.0321455326717036,0.906103356568313,0.0308755374421302,-3.01630799278341e-07,-0.0104480209390535,-0.875873546612043,-4.58665671187109e-10,0.906103356568313,NA,0
"stimuli/m2.jpg","stimuli/m5.jpg",1,"stimuli/Outdoor activity & sport item.png","stimuli/Hand labour tool & accessory.png","stimuli/Kitchen & utensil.png","stimuli/Electronic device & accessory.png",4,1,3,"stimuli/m2.jpg","Electronic device & accessory","stimuli/objects/ipad02.jpg",1,4,1,0.906,4,"Electronic device & accessory",0.745487798712695,4.58665671187109e-10,3.01630799278341e-07,0.00908676318868749,0.702183150577264,0.0970281965912933,0.0970284123185847,0.103760240512858,0.487000462929372,-8.77641201750411e-10,-5.77160301703914e-07,-0.0173872130964163,0.702183150577264,NA,1
"stimuli/m5.jpg","stimuli/m2.jpg",2,"stimuli/Outdoor activity & sport item.png","stimuli/Kitchen & utensil.png","stimuli/Hand labour tool & accessory.png","stimuli/Electronic device & accessory.png",4,1,3,"stimuli/m2.jpg","Electronic device & accessory","stimuli/objects/fanblades.jpg",1,4,1,1.269,4,"Electronic device & accessory",0.86698891369739,2.39704104030144e-10,1.57635822846257e-07,0.0047488499042037,0.853923993783361,0.0481196926643991,0.0481197485769078,0.0498365649753317,0.254512201287305,-4.58665671187109e-10,-3.01630799278341e-07,-0.00908676318868749,0.853923993783361,NA,1
"stimuli/m2.jpg","stimuli/m5.jpg",1,"stimuli/Kitchen & utensil.png","stimuli/Hand labour tool & accessory.png","stimuli/Electronic device & accessory.png","stimuli/Outdoor activity & sport item.png",2,0,3,"stimuli/m2.jpg","Hand labour tool & accessory","stimuli/objects/pipewrench.jpg",1,2,1,0.843,2,"Hand labour tool & accessory",0.453098659474608,0.477388173934429,8.23823452507788e-08,0.00248180512074211,0.903797897391096,0.0318709267153684,0.0318709460688872,0.0324602298246481,-0.86698891369739,0.999999999760296,-1.57635822846257e-07,-0.0047488499042037,0.0318709267153684,NA,1
"stimuli/m5.jpg","stimuli/m2.jpg",2,"stimuli/Outdoor activity & sport item.png","stimuli/Electronic device & accessory.png","stimuli/Hand labour tool & accessory.png","stimuli/Kitchen & utensil.png",2,1,3,"stimuli/m2.jpg","Electronic device & accessory","stimuli/objects/payphone.jpg",1,2,1,0.915,2,"Electronic device & accessory",0.714182891681805,0.249488705381784,4.3053987897394e-08,0.00129702070640082,0.408475123169581,0.44860459981649,0.0711180370718338,0.0718022399420953,0.546901340525392,-0.477388173934429,-8.23823452507788e-08,-0.00248180512074211,0.408475123169581,NA,1
"stimuli/m5.jpg","stimuli/m2.jpg",1,"stimuli/Electronic device & accessory.png","stimuli/Hand labour tool & accessory.png","stimuli/Outdoor activity & sport item.png","stimuli/Kitchen & utensil.png",4,1,3,"stimuli/m5.jpg","Kitchen & utensil","stimuli/objects/martiniglass01b.jpg",1,4,1,1.088,4,"Kitchen & utensil",8.23823452507788e-08,0.00285359608583672,0.716609490351279,1.25272199552633e-10,0.112755762157327,0.115156213548588,0.659332330607294,0.112755693686791,-1.57635822846257e-07,-0.00546025930303894,0.542258126292829,-2.39704104030144e-10,0.659332330607294,NA,1
"stimuli/m2.jpg","stimuli/m5.jpg",1,"stimuli/Kitchen & utensil.png","stimuli/Outdoor activity & sport item.png","stimuli/Hand labour tool & accessory.png","stimuli/Electronic device & accessory.png",4,1,3,"stimuli/m2.jpg","Electronic device & accessory","stimuli/objects/satellitedish01.jpg",1,2,0,0.895,2,"Outdoor activity & sport item",0.373240425256085,0.130385747933563,2.25005232398556e-08,0.000677838359979469,0.772810459769941,0.128664342808077,0.0491393478376485,0.0493858495843331,-0.714182891681805,-0.249488705381784,-4.3053987897394e-08,-0.00129702070640082,0.0493858495843331,NA,0
"stimuli/m5.jpg","stimuli/m2.jpg",2,"stimuli/Electronic device & accessory.png","stimuli/Hand labour tool & accessory.png","stimuli/Kitchen & utensil.png","stimuli/Outdoor activity & sport item.png",1,1,3,"stimuli/m2.jpg","Electronic device & accessory","stimuli/objects/electricoutlet.jpg",1,1,1,0.547,1,"Electronic device & accessory",0.672448034060486,0.0681411338368185,1.17590395406304e-08,0.000354246343171076,0.535819442422259,0.209944824589068,0.126951655719434,0.127284077269239,0.626759574743915,-0.130385747933563,-2.25005232398556e-08,-0.000677838359979469,0.535819442422259,NA,1
"stimuli/m2.jpg","stimuli/m5.jpg",2,"stimuli/Hand labour tool & accessory.png","stimuli/Kitchen & utensil.png","stimuli/Outdoor activity & sport item.png","stimuli/Electronic device & accessory.png",2,1,3,"stimuli/m5.jpg","Kitchen & utensil","stimuli/objects/handmixer01d.jpg",1,2,1,0.93,2,"Kitchen & utensil",4.3053987897394e-08,0.00149132306163017,0.851896768227328,6.54687329791454e-11,0.0529495230336518,0.0535356691551102,0.840565301581341,0.0529495062298971,-8.23823452507788e-08,-0.00285359608583672,0.283390509648721,-1.25272199552633e-10,0.840565301581341,NA,1
"stimuli/m2.jpg","stimuli/m5.jpg",2,"stimuli/Electronic device & accessory.png","stimuli/Hand labour tool & accessory.png","stimuli/Outdoor activity & sport item.png","stimuli/Kitchen & utensil.png",4,1,3,"stimuli/m5.jpg","Kitchen & utensil","stimuli/objects/pitcher02b.jpg",1,4,1,1.471,4,"Kitchen & utensil",2.25005232398556e-08,0.000779383068679062,0.922599499578518,3.42147341006318e-11,0.0336023886730535,0.0337962764329592,0.898998951793994,0.0336023830999938,-4.3053987897394e-08,-0.00149132306163017,0.148103231772672,-6.54687329791454e-11,0.898998951793994,NA,1
"stimuli/m2.jpg","stimuli/m5.jpg",1,"stimuli/Electronic device & accessory.png","stimuli/Outdoor activity & sport item.png","stimuli/Hand labour tool & accessory.png","stimuli/Kitchen & utensil.png",1,1,3,"stimuli/m2.jpg","Electronic device & accessory","stimuli/objects/nintendods.jpg",1,1,1,0.77,1,"Electronic device & accessory",0.82881746890795,0.0356113623931744,6.1454131285792e-09,0.000185133328326064,0.802154070966195,0.0779320306635852,0.0599159786611116,0.0599979197091085,0.327551965939514,-0.0681411338368185,-1.17590395406304e-08,-0.000354246343171076,0.802154070966195,NA,1
"stimuli/m2.jpg","stimuli/m5.jpg",2,"stimuli/Outdoor activity & sport item.png","stimuli/Electronic device & accessory.png","stimuli/Hand labour tool & accessory.png","stimuli/Kitchen & utensil.png",4,1,3,"stimuli/m5.jpg","Kitchen & utensil","stimuli/objects/shotglass.jpg",1,4,1,0.963,4,"Kitchen & utensil",1.17590395406304e-08,0.000407314808824588,0.959549583126644,1.78810246709653e-11,0.0262141900242945,0.0262931303760997,0.921278491847473,0.0262141877521328,-2.25005232398556e-08,-0.000779383068679062,0.0774005004214816,-3.42147341006318e-11,0.921278491847473,NA,1
"stimuli/m2.jpg","stimuli/m5.jpg",1,"stimuli/Outdoor activity & sport item.png","stimuli/Electronic device & accessory.png","stimuli/Kitchen & utensil.png","stimuli/Hand labour tool & accessory.png",3,0,3,"stimuli/m2.jpg","Kitchen & utensil","stimuli/objects/cookiecutter.jpg",1,2,0,0.76,2,"Electronic device & accessory",0.433149811004856,0.0186109191334408,3.21166557782396e-09,9.67528668052735e-05,0.886036349233944,0.041533747776075,0.0362020184978286,0.0362278844921521,-0.82881746890795,-0.0356113623931744,-6.1454131285792e-09,-0.000185133328326064,0.886036349233944,NA,0
"stimuli/m2.jpg","stimuli/m5.jpg",1,"stimuli/Outdoor activity & sport item.png","stimuli/Electronic device & accessory.png","stimuli/Hand labour tool & accessory.png","stimuli/Kitchen & utensil.png",2,1,3,"stimuli/m2.jpg","Electronic device & accessory","stimuli/objects/cellphone.jpg",1,4,0,0.987,4,"Kitchen & utensil",0.226369213743466,0.00972628643541758,1.67845441274085e-09,5.05641924103034e-05,0.633643811026234,0.12801702531132,0.119147340747938,0.119191822914508,-0.433149811004856,-0.0186109191334408,-3.21166557782396e-09,-9.67528668052735e-05,0.119147340747938,NA,0
"stimuli/m2.jpg","stimuli/m5.jpg",1,"stimuli/Hand labour tool & accessory.png","stimuli/Outdoor activity & sport item.png","stimuli/Kitchen & utensil.png","stimuli/Electronic device & accessory.png",4,1,3,"stimuli/m2.jpg","Electronic device & accessory","stimuli/objects/vhstape.jpg",1,4,1,1.37,4,"Electronic device & accessory",0.595691401997015,0.00508307231606881,8.77180125820574e-10,2.64254449354138e-05,0.4407813492927,0.191085974770028,0.184048384675175,0.184084291262098,0.773630786256534,-0.00972628643541758,-1.67845441274085e-09,-5.05641924103034e-05,0.4407813492927,NA,1
"stimuli/m5.jpg","stimuli/m2.jpg",1,"stimuli/Outdoor activity & sport item.png","stimuli/Electronic device & accessory.png","stimuli/Kitchen & utensil.png","stimuli/Hand labour tool & accessory.png",4,0,3,"stimuli/m5.jpg","Hand labour tool & accessory","stimuli/objects/snowshovel.jpg",1,3,0,1.157,3,"Kitchen & utensil",6.1454131285792e-09,0.000212867536074392,0.501471959958478,9.34483495745671e-12,0.0229723579726588,0.0230084852809066,0.931046799814385,0.0229723569320497,-1.17590395406304e-08,-0.000407314808824588,-0.959549583126644,-1.78810246709653e-11,0.931046799814385,NA,0
"stimuli/m5.jpg","stimuli/m2.jpg",1,"stimuli/Hand labour tool & accessory.png","stimuli/Electronic device & accessory.png","stimuli/Kitchen & utensil.png","stimuli/Outdoor activity & sport item.png",4,0,3,"stimuli/m5.jpg","Outdoor activity & sport item","stimuli/objects/charcoalbarbecue.jpg",1,3,0,0.685,3,"Kitchen & utensil",3.21166557782396e-09,0.000111247091764583,0.262075176777402,4.88372126256848e-12,0.100776832742662,0.100859628300688,0.697586708599722,0.100776830356928,-6.1454131285792e-09,-0.000212867536074392,-0.501471959958478,-9.34483495745671e-12,0.697586708599722,NA,0
"stimuli/m2.jpg","stimuli/m5.jpg",2,"stimuli/Electronic device & accessory.png","stimuli/Outdoor activity & sport item.png","stimuli/Kitchen & utensil.png","stimuli/Hand labour tool & accessory.png",3,1,3,"stimuli/m5.jpg","Kitchen & utensil","stimuli/objects/butterknife.jpg",1,1,0,0.787,1,"Electronic device & accessory",1.67845441274085e-09,5.81390457855092e-05,0.136963586734926,2.55229048763796e-12,0.173941162762156,0.174015832184833,0.478101844442857,0.173941160610153,-3.21166557782396e-09,-0.000111247091764583,-0.262075176777402,-4.88372126256848e-12,0.173941162762156,NA,0
"stimuli/m2.jpg","stimuli/m5.jpg",1,"stimuli/Electronic device & accessory.png","stimuli/Kitchen & utensil.png","stimuli/Outdoor activity & sport item.png","stimuli/Hand labour tool & accessory.png",1,1,3,"stimuli/m2.jpg","Electronic device & accessory","stimuli/objects/gps.jpg",1,3,0,1.196,3,"Outdoor activity & sport item",0.311315371443844,0.00265647370576084,4.58424707453404e-10,1.38102500356022e-05,0.767276921827204,0.0785892006504834,0.0770630103485108,0.0770708671738013,-0.595691401997015,-0.00508307231606881,-8.77180125820574e-10,-2.64254449354138e-05,0.0770708671738013,NA,0
"stimuli/m5.jpg","stimuli/m2.jpg",1,"stimuli/Kitchen & utensil.png","stimuli/Outdoor activity & sport item.png","stimuli/Hand labour tool & accessory.png","stimuli/Electronic device & accessory.png",4,0,3,"stimuli/m5.jpg","Electronic device & accessory","stimuli/objects/ethernetcable02.jpg",1,1,0,1.003,1,"Kitchen & utensil",8.77180125820574e-10,3.0384152890958e-05,0.0715787901851875,1.33385719271399e-12,0.212925961452729,0.212973725792735,0.361174352678535,0.212925960076001,-1.67845441274085e-09,-5.81390457855092e-05,-0.136963586734926,-2.55229048763796e-12,0.361174352678535,NA,0
"stimuli/m5.jpg","stimuli/m2.jpg",1,"stimuli/Kitchen & utensil.png","stimuli/Electronic device & accessory.png","stimuli/Outdoor activity & sport item.png","stimuli/Hand labour tool & accessory.png",1,1,3,"stimuli/m5.jpg","Kitchen & utensil","stimuli/objects/waterbottle03.jpg",1,2,0,0.719,2,"Electronic device & accessory",4.58424707453404e-10,1.58791176296053e-05,0.0374079222552121,6.97089543362052e-13,0.231579501029634,0.231606648618221,0.305234350105036,0.231579500247108,-8.77180125820574e-10,-3.0384152890958e-05,-0.0715787901851875,-1.33385719271399e-12,0.231579501029634,NA,0
"stimuli/m2.jpg","stimuli/m5.jpg",2,"stimuli/Outdoor activity & sport item.png","stimuli/Kitchen & utensil.png","stimuli/Electronic device & accessory.png","stimuli/Hand labour tool & accessory.png",2,1,3,"stimuli/m5.jpg","Kitchen & utensil","stimuli/objects/peeler01.jpg",1,2,1,0.543,2,"Kitchen & utensil",2.39578173533226e-10,8.29861466270726e-06,0.496937996372958,3.64307239274983e-13,0.240655461335478,0.240670204609869,0.278018873144161,0.240655460910493,-4.58424707453404e-10,-1.58791176296053e-05,0.962592077744788,-6.97089543362052e-13,0.278018873144161,NA,1
"stimuli/m5.jpg","stimuli/m2.jpg",2,"stimuli/Electronic device & accessory.png","stimuli/Kitchen & utensil.png","stimuli/Outdoor activity & sport item.png","stimuli/Hand labour tool & accessory.png",1,1,3,"stimuli/m2.jpg","Electronic device & accessory","stimuli/objects/dvdplayer.jpg",1,1,1,0.413,1,"Electronic device & accessory",0.640085268600705,0.00138830457459563,2.39578173533226e-10,7.21739999125821e-06,0.524735110368317,0.159503079217468,0.157876699317852,0.157885111096363,0.688684628556156,-0.00265647370576084,-4.58424707453404e-10,-1.38102500356022e-05,0.524735110368317,NA,1
"stimuli/m5.jpg","stimuli/m2.jpg",1,"stimuli/Outdoor activity & sport item.png","stimuli/Kitchen & utensil.png","stimuli/Hand labour tool & accessory.png","stimuli/Electronic device & accessory.png",2,1,3,"stimuli/m5.jpg","Kitchen & utensil","stimuli/objects/tupperware03a.jpg",1,2,1,0.674,2,"Kitchen & utensil",1.25206386785666e-10,4.33695416373155e-06,0.737093847597247,1.90391271612043e-13,0.102019006333329,0.102022272604203,0.693939714823293,0.102019006239175,-2.39578173533226e-10,-8.29861466270726e-06,0.503062003627042,-3.64307239274983e-13,0.693939714823293,NA,1
"stimuli/m2.jpg","stimuli/m5.jpg",2,"stimuli/Outdoor activity & sport item.png","stimuli/Electronic device & accessory.png","stimuli/Kitchen & utensil.png","stimuli/Hand labour tool & accessory.png",3,1,3,"stimuli/m5.jpg","Kitchen & utensil","stimuli/objects/espressomachine.jpg",1,3,1,0.933,3,"Kitchen & utensil",6.54343384488140e-11,2.26654353561373e-06,0.862602135575989,9.95007301479668e-14,0.0495531187142362,0.0495539478354291,0.851339814759999,0.0495531186903356,-1.25206386785666e-10,-4.33695416373155e-06,0.262906152402753,-1.90391271612043e-13,0.851339814759999,NA,1
"stimuli/m2.jpg","stimuli/m5.jpg",2,"stimuli/Hand labour tool & accessory.png","stimuli/Electronic device & accessory.png","stimuli/Outdoor activity & sport item.png","stimuli/Kitchen & utensil.png",4,1,3,"stimuli/m5.jpg","Kitchen & utensil","stimuli/objects/bowl02a.jpg",1,2,0,0.712,2,"Electronic device & accessory",3.41967591123244e-11,1.18452245628814e-06,0.450806077349489,5.20002582899512e-14,0.0323811463449035,0.032381429495018,0.902856277823337,0.0323811463367413,-6.54343384488140e-11,-2.26654353561373e-06,-0.862602135575989,-9.95007301479668e-14,0.0323811463449035,NA,0
"stimuli/m2.jpg","stimuli/m5.jpg",2,"stimuli/Outdoor activity & sport item.png","stimuli/Kitchen & utensil.png","stimuli/Hand labour tool & accessory.png","stimuli/Electronic device & accessory.png",2,1,3,"stimuli/m5.jpg","Kitchen & utensil","stimuli/objects/towel01.jpg",1,2,1,1.118,2,"Kitchen & utensil",1.78716307295002e-11,6.19045444044808e-07,0.712984761150704,2.71759499473069e-14,0.115034420355521,0.11503494604666,0.654896213257452,0.115034420340367,-3.41967591123244e-11,-1.18452245628814e-06,0.549193922650511,-5.20002582899512e-14,0.654896213257452,NA,1
"stimuli/m5.jpg","stimuli/m2.jpg",1,"stimuli/Electronic device & accessory.png","stimuli/Hand labour tool & accessory.png","stimuli/Kitchen & utensil.png","stimuli/Outdoor activity & sport item.png",2,0,3,"stimuli/m5.jpg","Hand labour tool & accessory","stimuli/objects/staplegun.jpg",1,3,0,1.02,3,"Kitchen & utensil",9.3399255725525e-12,3.23520470007379e-07,0.372614268071211,1.4202472830433e-14,0.0536066768936743,0.0536068049203574,0.839179841295984,0.0536066768899837,-1.78716307295002e-11,-6.19045444044808e-07,-0.712984761150704,-2.71759499473069e-14,0.839179841295984,NA,0
"stimuli/m2.jpg","stimuli/m5.jpg",1,"stimuli/Kitchen & utensil.png","stimuli/Outdoor activity & sport item.png","stimuli/Electronic device & accessory.png","stimuli/Hand labour tool & accessory.png",3,1,3,"stimuli/m2.jpg","Electronic device & accessory","stimuli/objects/lightbulb01.jpg",1,3,1,0.842,3,"Electronic device & accessory",0.811904304950428,0.000725544389038523,1.25206386785666e-10,3.77189858978123e-06,0.797232972899582,0.0678299419253103,0.0674676032778962,0.0674694818972111,0.359914731399295,-0.00138830457459563,-2.39578173533226e-10,-7.21739999125821e-06,0.797232972899582,NA,1
"stimuli/m5.jpg","stimuli/m2.jpg",2,"stimuli/Outdoor activity & sport item.png","stimuli/Hand labour tool & accessory.png","stimuli/Kitchen & utensil.png","stimuli/Electronic device & accessory.png",4,1,3,"stimuli/m2.jpg","Electronic device & accessory","stimuli/objects/outletadapter.jpg",1,4,1,0.904,4,"Electronic device & accessory",0.901698965311507,0.000379178078137942,6.54343384488140e-11,1.97123881021223e-06,0.884202151386933,0.0386711606277196,0.0385630634096585,0.0385636245756892,0.188095695049572,-0.000725544389038523,-1.25206386785666e-10,-3.77189858978123e-06,0.884202151386933,NA,1
"stimuli/m5.jpg","stimuli/m2.jpg",2,"stimuli/Electronic device & accessory.png","stimuli/Outdoor activity & sport item.png","stimuli/Hand labour tool & accessory.png","stimuli/Kitchen & utensil.png",1,1,3,"stimuli/m2.jpg","Electronic device & accessory","stimuli/objects/securitycamera.jpg",1,1,1,1.011,1,"Electronic device & accessory",0.948626716744997,0.000198162947867204,3.41967591123244e-11,1.03019271446328e-06,0.915267953690519,0.0282714959377855,0.0282301678410412,0.0282303825306538,0.098301034688493,-0.000379178078137942,-6.54343384488140e-11,-1.97123881021223e-06,0.915267953690519,NA,1
"stimuli/m2.jpg","stimuli/m5.jpg",2,"stimuli/Electronic device & accessory.png","stimuli/Kitchen & utensil.png","stimuli/Hand labour tool & accessory.png","stimuli/Outdoor activity & sport item.png",2,1,3,"stimuli/m5.jpg","Kitchen & utensil","stimuli/objects/funnel.jpg",1,2,1,0.686,2,"Kitchen & utensil",4.88115555995822e-12,1.69075623640676e-07,0.672120796910617,7.42238026233844e-15,0.13868711480615,0.138687287906006,0.583938482486684,0.13868711480116,-9.3399255725525e-12,-3.23520470007379e-07,0.627385731928789,-1.4202472830433e-14,0.583938482486684,NA,1
"stimuli/m5.jpg","stimuli/m2.jpg",2,"stimuli/Hand labour tool & accessory.png","stimuli/Outdoor activity & sport item.png","stimuli/Kitchen & utensil.png","stimuli/Electronic device & accessory.png",3,0,3,"stimuli/m2.jpg","Kitchen & utensil","stimuli/objects/rollingpin01a.jpg",1,4,0,0.864,4,"Electronic device & accessory",0.495763540811527,0.00010356230006824,1.78716307295002e-11,5.38390895834157e-07,0.928309578240311,0.0239089569923751,0.0238906849076024,0.0238907798597118,-0.948626716744997,-0.000198162947867204,-3.41967591123244e-11,-1.03019271446328e-06,0.928309578240311,NA,0
"stimuli/m5.jpg","stimuli/m2.jpg",2,"stimuli/Kitchen & utensil.png","stimuli/Electronic device & accessory.png","stimuli/Outdoor activity & sport item.png","stimuli/Hand labour tool & accessory.png",3,0,3,"stimuli/m2.jpg","Outdoor activity & sport item","stimuli/objects/weight01.jpg",1,1,0,0.904,1,"Kitchen & utensil",0.259091889422351,5.41228827631872e-05,9.3399255725525e-12,2.81369449276413e-07,0.692950295421667,0.10237709516959,0.102336198423741,0.102336410985002,-0.495763540811527,-0.00010356230006824,-1.78716307295002e-11,-5.38390895834157e-07,0.102336198423741,NA,0
"stimuli/m2.jpg","stimuli/m5.jpg",1,"stimuli/Hand labour tool & accessory.png","stimuli/Outdoor activity & sport item.png","stimuli/Electronic device & accessory.png","stimuli/Kitchen & utensil.png",3,1,3,"stimuli/m2.jpg","Electronic device & accessory","stimuli/objects/expansioncard.jpg",1,2,0,1.015,2,"Outdoor activity & sport item",0.135404485482251,2.82852585995822e-05,4.88115555995822e-12,1.47047001720658e-07,0.475248915081158,0.174941315510647,0.174904789773642,0.174904979634552,-0.259091889422351,-5.41228827631872e-05,-9.3399255725525e-12,-2.81369449276413e-07,0.174904979634552,NA,0
"stimuli/m5.jpg","stimuli/m2.jpg",1,"stimuli/Electronic device & accessory.png","stimuli/Outdoor activity & sport item.png","stimuli/Kitchen & utensil.png","stimuli/Hand labour tool & accessory.png",2,0,4,"stimuli/m5.jpg","Outdoor activity & sport item","stimuli/objects/magneticcompass.jpg",1,3,0,1.009,3,"Kitchen & utensil",2.55094962111135e-12,8.83609204352094e-08,0.351258277094302,3.87902370358356e-15,0.0610832803641455,0.0610833202080646,0.816750119064793,0.061083280362997,-4.88115555995822e-12,-1.69075623640676e-07,-0.672120796910617,-7.42238026233844e-15,0.816750119064793,NA,0
"stimuli/m5.jpg","stimuli/m2.jpg",2,"stimuli/Outdoor activity & sport item.png","stimuli/Electronic device & accessory.png","stimuli/Kitchen & utensil.png","stimuli/Hand labour tool & accessory.png",3,1,4,"stimuli/m2.jpg","Kitchen & utensil","stimuli/objects/gasburner.jpg",1,2,0,1.303,2,"Electronic device & accessory",0.0707639854323105,1.47822106510079e-05,2.55094962111135e-12,7.68485021051211e-08,0.359796459383534,0.21341666531537,0.21339337712149,0.213393498179606,-0.135404485482251,-2.82852585995822e-05,-4.88115555995822e-12,-1.47047001720658e-07,0.359796459383534,NA,0
"stimuli/m2.jpg","stimuli/m5.jpg",1,"stimuli/Hand labour tool & accessory.png","stimuli/Electronic device & accessory.png","stimuli/Outdoor activity & sport item.png","stimuli/Kitchen & utensil.png",4,1,4,"stimuli/m2.jpg","Kitchen & utensil","stimuli/objects/cork02.jpg",1,1,0,1.247,1,"Hand labour tool & accessory",0.036982095655322,7.72535810346097e-06,1.33315644000984e-12,4.01619360251882e-08,0.304572340213,0.231818010632913,0.231804790214559,0.231804858939529,-0.0707639854323105,-1.47822106510079e-05,-2.55094962111135e-12,-7.68485021051211e-08,0.231818010632913,NA,0
"stimuli/m5.jpg","stimuli/m2.jpg",2,"stimuli/Hand labour tool & accessory.png","stimuli/Kitchen & utensil.png","stimuli/Electronic device & accessory.png","stimuli/Outdoor activity & sport item.png",2,1,4,"stimuli/m2.jpg","Kitchen & utensil","stimuli/objects/hourglass.jpg",1,2,1,1.161,2,"Kitchen & utensil",0.0193272805467923,4.03736350642797e-06,0.477388173809854,2.09891027294834e-08,0.277691321932048,0.240774331041274,0.240767154860773,0.240767192165906,-0.036982095655322,-7.72535810346097e-06,0.999999999998667,-4.01619360251882e-08,0.240767154860773,NA,1
"stimuli/m2.jpg","stimuli/m5.jpg",1,"stimuli/Kitchen & utensil.png","stimuli/Hand labour tool & accessory.png","stimuli/Electronic device & accessory.png","stimuli/Outdoor activity & sport item.png",1,1,4,"stimuli/m2.jpg","Kitchen & utensil","stimuli/objects/cleaver01.jpg",1,1,1,0.613,1,"Kitchen & utensil",0.0101006653818619,2.10997391509058e-06,0.726876879125836,1.09691533075625e-08,0.114798045553984,0.106551012777166,0.672101579938941,0.106549361729909,-0.0193272805467923,-4.03736350642797e-06,0.522611826190146,-2.09891027294834e-08,0.672101579938941,NA,1
"stimuli/m5.jpg","stimuli/m2.jpg",1,"stimuli/Kitchen & utensil.png","stimuli/Outdoor activity & sport item.png","stimuli/Hand labour tool & accessory.png","stimuli/Electronic device & accessory.png",3,1,4,"stimuli/m5.jpg","Hand labour tool & accessory","stimuli/objects/mallet01b.jpg",1,2,0,0.646,2,"Outdoor activity & sport item",1.33315644000984e-12,4.61784619925486e-08,0.183571729656903,2.02722366156737e-15,0.14540236144555,0.145402411012286,0.563792866098042,0.145402361444121,-2.55094962111135e-12,-8.83609204352094e-08,-0.351258277094302,-3.87902370358356e-15,0.145402361444121,NA,0
"stimuli/m2.jpg","stimuli/m5.jpg",2,"stimuli/Outdoor activity & sport item.png","stimuli/Hand labour tool & accessory.png","stimuli/Electronic device & accessory.png","stimuli/Kitchen & utensil.png",2,1,4,"stimuli/m5.jpg","Hand labour tool & accessory","stimuli/objects/hoe.jpg",1,2,1,0.734,2,"Hand labour tool & accessory",6.96723321711627e-13,0.477388197942567,0.0959367568730056,1.05945105986901e-15,0.198791230492702,0.198791265908358,0.403626273107259,0.198791230491681,-1.33315644000984e-12,0.999999953821538,-0.183571729656903,-2.02722366156737e-15,0.198791265908358,NA,1
"stimuli/m2.jpg","stimuli/m5.jpg",2,"stimuli/Electronic device & accessory.png","stimuli/Outdoor activity & sport item.png","stimuli/Kitchen & utensil.png","stimuli/Hand labour tool & accessory.png",1,0,4,"stimuli/m5.jpg","Electronic device & accessory","stimuli/objects/usbkey.jpg",1,4,0,1.234,4,"Hand labour tool & accessory",3.64115847509464e-13,0.249488717928721,0.0501376837082284,5.53681653157969e-16,0.102502963338425,0.646577459334403,0.148416613989023,0.102502963338149,-6.96723321711627e-13,-0.477388197942567,-0.0959367568730056,-1.05945105986901e-15,0.646577459334403,NA,0
"stimuli/m2.jpg","stimuli/m5.jpg",1,"stimuli/Hand labour tool & accessory.png","stimuli/Electronic device & accessory.png","stimuli/Kitchen & utensil.png","stimuli/Outdoor activity & sport item.png",3,1,4,"stimuli/m2.jpg","Kitchen & utensil","stimuli/objects/cookingpot.jpg",1,3,1,1.004,3,"Kitchen & utensil",0.00527872718095747,1.10269732098053e-06,0.857262627025011,5.73260924183259e-09,0.0531670835652579,0.0511354734041085,0.844562383726346,0.051135059304288,-0.0101006653818619,-2.10997391509058e-06,0.273123120874164,-1.09691533075625e-08,0.844562383726346,NA,1
"stimuli/m2.jpg","stimuli/m5.jpg",1,"stimuli/Outdoor activity & sport item.png","stimuli/Hand labour tool & accessory.png","stimuli/Electronic device & accessory.png","stimuli/Kitchen & utensil.png",3,0,4,"stimuli/m2.jpg","Electronic device & accessory","stimuli/objects/atm.jpg",1,4,0,1.348,4,"Kitchen & utensil",0.00275872525200342,5.76282660653387e-07,0.448015587034701,2.99592938471263e-09,0.0336443150617306,0.0329661938432435,0.900423436770232,0.0329660543247937,-0.00527872718095747,-1.10269732098053e-06,-0.857262627025011,-5.73260924183259e-09,0.900423436770232,NA,0
"stimuli/m2.jpg","stimuli/m5.jpg",1,"stimuli/Electronic device & accessory.png","stimuli/Kitchen & utensil.png","stimuli/Hand labour tool & accessory.png","stimuli/Outdoor activity & sport item.png",2,1,4,"stimuli/m2.jpg","Kitchen & utensil","stimuli/objects/tray.jpg",1,1,0,0.569,1,"Electronic device & accessory",0.0014417424419083,3.01172133686185e-07,0.234138244102168,1.56570812688348e-09,0.11694148448484,0.11570368935691,0.651651392712788,0.115703433445462,-0.00275872525200342,-5.76282660653387e-07,-0.448015587034701,-2.99592938471263e-09,0.11694148448484,NA,0
"stimuli/m5.jpg","stimuli/m2.jpg",1,"stimuli/Outdoor activity & sport item.png","stimuli/Electronic device & accessory.png","stimuli/Kitchen & utensil.png","stimuli/Hand labour tool & accessory.png",4,1,4,"stimuli/m5.jpg","Hand labour tool & accessory","stimuli/objects/jumpercables.jpg",1,4,1,0.783,4,"Hand labour tool & accessory",1.90291248011948e-13,0.607773928299898,0.0262025464437361,2.89360579885251e-16,0.171474585921378,0.448981734789124,0.208069093368362,0.171474585921137,-3.64115847509464e-13,0.750511282071279,-0.0501376837082284,-5.53681653157969e-16,0.448981734789124,NA,1
"stimuli/m2.jpg","stimuli/m5.jpg",2,"stimuli/Kitchen & utensil.png","stimuli/Electronic device & accessory.png","stimuli/Outdoor activity & sport item.png","stimuli/Hand labour tool & accessory.png",4,1,4,"stimuli/m5.jpg","Hand labour tool & accessory","stimuli/objects/squeegee01b.jpg",1,4,1,0.796,4,"Hand labour tool & accessory",9.94484566316586e-14,0.795018016389149,0.0136937606478113,1.51223261081472e-16,0.0738662719470605,0.770543448292151,0.081724007813782,0.0738662719470064,-1.90291248011948e-13,0.392226071700102,-0.0262025464437361,-2.89360579885251e-16,0.770543448292151,NA,1
"stimuli/m2.jpg","stimuli/m5.jpg",2,"stimuli/Outdoor activity & sport item.png","stimuli/Electronic device & accessory.png","stimuli/Hand labour tool & accessory.png","stimuli/Kitchen & utensil.png",3,1,4,"stimuli/m5.jpg","Hand labour tool & accessory","stimuli/objects/painttray.jpg",1,3,1,0.893,3,"Hand labour tool & accessory",5.19729395321319e-14,0.892873991208912,0.00715652125957298,7.9031064636323e-17,0.0407550646219587,0.87552375819191,0.0429661125641888,0.0407550646219431,-9.94484566316586e-14,0.204981983610851,-0.0136937606478113,-1.51223261081472e-16,0.87552375819191,NA,1
"stimuli/m2.jpg","stimuli/m5.jpg",1,"stimuli/Electronic device & accessory.png","stimuli/Hand labour tool & accessory.png","stimuli/Kitchen & utensil.png","stimuli/Outdoor activity & sport item.png",2,0,4,"stimuli/m2.jpg","Hand labour tool & accessory","stimuli/objects/setsquare.jpg",1,1,0,0.537,1,"Electronic device & accessory",0.000753471650462544,1.5739611878353e-07,0.122363415331351,8.18257583472419e-10,0.183721852753164,0.182702975594426,0.450872407245182,0.182702764407228,-0.0014417424419083,-3.01172133686185e-07,-0.234138244102168,-1.56570812688348e-09,0.183721852753164,NA,0
"stimuli/m2.jpg","stimuli/m5.jpg",2,"stimuli/Kitchen & utensil.png","stimuli/Outdoor activity & sport item.png","stimuli/Hand labour tool & accessory.png","stimuli/Electronic device & accessory.png",2,0,4,"stimuli/m5.jpg","Outdoor activity & sport item","stimuli/objects/hockeygoalieglove.jpg",1,3,0,0.648,3,"Hand labour tool & accessory",2.71616728413937e-14,0.466626507103996,0.00374008264463903,4.13025690153953e-17,0.0290999429902906,0.911885514538614,0.0299145994808106,0.0290999429902848,-5.19729395321319e-14,-0.892873991208912,-0.00715652125957298,-7.9031064636323e-17,0.911885514538614,NA,0
"stimuli/m2.jpg","stimuli/m5.jpg",2,"stimuli/Hand labour tool & accessory.png","stimuli/Electronic device & accessory.png","stimuli/Outdoor activity & sport item.png","stimuli/Kitchen & utensil.png",1,1,4,"stimuli/m5.jpg","Hand labour tool & accessory","stimuli/objects/rope03.jpg",1,3,0,1.064,3,"Outdoor activity & sport item",1.4195011446039e-14,0.243864531026674,0.00195461142101948,2.15852110195091e-17,0.110303604111844,0.667486019429983,0.11190677234634,0.110303604111833,-2.71616728413937e-14,-0.466626507103996,-0.00374008264463903,-4.13025690153953e-17,0.110303604111833,NA,0
"stimuli/m5.jpg","stimuli/m2.jpg",1,"stimuli/Hand labour tool & accessory.png","stimuli/Kitchen & utensil.png","stimuli/Outdoor activity & sport item.png","stimuli/Electronic device & accessory.png",2,0,4,"stimuli/m5.jpg","Kitchen & utensil","stimuli/objects/contactlens.jpg",1,3,0,1.223,3,"Outdoor activity & sport item",7.41848085461437e-15,0.127446487903024,0.00102150304423247,1.12806865496204e-17,0.179542102261191,0.460014640258016,0.180901155219611,0.179542102261181,-1.4195011446039e-14,-0.243864531026674,-0.00195461142101948,-2.15852110195091e-17,0.179542102261181,NA,0
"stimuli/m5.jpg","stimuli/m2.jpg",2,"stimuli/Electronic device & accessory.png","stimuli/Hand labour tool & accessory.png","stimuli/Kitchen & utensil.png","stimuli/Outdoor activity & sport item.png",3,1,4,"stimuli/m2.jpg","Kitchen & utensil","stimuli/objects/watercooler.jpg",1,2,0,0.765,2,"Hand labour tool & accessory",0.000393773195231259,8.22570730728113e-08,0.0639485679452661,4.27631089993027e-10,0.21772835368623,0.217096478475226,0.348078820509032,0.217096347329512,-0.000753471650462544,-1.5739611878353e-07,-0.122363415331351,-8.18257583472419e-10,0.217096478475226,NA,0
"stimuli/m5.jpg","stimuli/m2.jpg",1,"stimuli/Kitchen & utensil.png","stimuli/Outdoor activity & sport item.png","stimuli/Electronic device & accessory.png","stimuli/Hand labour tool & accessory.png",4,1,4,"stimuli/m5.jpg","Hand labour tool & accessory","stimuli/objects/hammer01.jpg",1,4,1,1.01,4,"Hand labour tool & accessory",3.87698582699182e-15,0.543993215593765,0.000533849571405837,5.89542019838358e-18,0.215561838670719,0.352463270086738,0.216413052571829,0.215561838670713,-7.41848085461437e-15,0.872553512096976,-0.00102150304423247,-1.12806865496204e-17,0.352463270086738,NA,1
"stimuli/m5.jpg","stimuli/m2.jpg",1,"stimuli/Kitchen & utensil.png","stimuli/Electronic device & accessory.png","stimuli/Hand labour tool & accessory.png","stimuli/Outdoor activity & sport item.png",3,1,4,"stimuli/m5.jpg","Hand labour tool & accessory","stimuli/objects/jigsaw.jpg",1,3,1,1.049,3,"Hand labour tool & accessory",2.02615864316021e-15,0.761685461646043,0.000278996099423603,3.08101631603962e-18,0.0896203271361204,0.730954243324082,0.0898051024036782,0.0896203271361191,-3.87698582699182e-15,0.456006784406235,-0.000533849571405837,-5.89542019838358e-18,0.730954243324082,NA,1
"stimuli/m2.jpg","stimuli/m5.jpg",2,"stimuli/Hand labour tool & accessory.png","stimuli/Electronic device & accessory.png","stimuli/Kitchen & utensil.png","stimuli/Outdoor activity & sport item.png",1,1,4,"stimuli/m5.jpg","Hand labour tool & accessory","stimuli/objects/level03a.jpg",1,1,1,0.618,1,"Hand labour tool & accessory",1.05889446865432e-15,0.875454003903011,0.000145806661019891,1.61017556344925e-18,0.0456803239098579,0.862909832002486,0.0457295201777985,0.0456803239098576,-2.02615864316021e-15,0.238314538353957,-0.000278996099423603,-3.08101631603962e-18,0.862909832002486,NA,1
"stimuli/m5.jpg","stimuli/m2.jpg",1,"stimuli/Electronic device & accessory.png","stimuli/Outdoor activity & sport item.png","stimuli/Hand labour tool & accessory.png","stimuli/Kitchen & utensil.png",3,1,4,"stimuli/m5.jpg","Hand labour tool & accessory","stimuli/objects/toyhardhat.jpg",1,3,1,0.54,3,"Hand labour tool & accessory",5.53390772006817e-16,0.934910789534995,7.62002853863947e-05,8.41496791702083e-19,0.0309596894315454,0.907103510940676,0.0309771101962333,0.0309596894315453,-1.05889446865432e-15,0.124545996096989,-0.000145806661019891,-1.61017556344925e-18,0.907103510940676,NA,1
"stimuli/m2.jpg","stimuli/m5.jpg",1,"stimuli/Outdoor activity & sport item.png","stimuli/Kitchen & utensil.png","stimuli/Hand labour tool & accessory.png","stimuli/Electronic device & accessory.png",2,1,4,"stimuli/m2.jpg","Kitchen & utensil","stimuli/objects/jar02.jpg",1,1,0,1.158,1,"Outdoor activity & sport item",0.000205790528664811,4.29885191756956e-08,0.0334202778761647,2.23485064877237e-10,0.233926866561838,0.233571826928133,0.298929553321547,0.233571753188483,-0.000393773195231259,-8.22570730728113e-08,-0.0639485679452661,-4.27631089993027e-10,0.233571753188483,NA,0
"stimuli/m2.jpg","stimuli/m5.jpg",2,"stimuli/Hand labour tool & accessory.png","stimuli/Outdoor activity & sport item.png","stimuli/Kitchen & utensil.png","stimuli/Electronic device & accessory.png",1,1,4,"stimuli/m5.jpg","Hand labour tool & accessory","stimuli/objects/drill01b.jpg",1,1,1,0.939,1,"Hand labour tool & accessory",2.89208561955643e-16,0.965983608853564,3.98231703020471e-05,4.39776175045161e-19,0.0250915069374853,0.924718101533629,0.0250988845914005,0.0250915069374853,-5.53390772006817e-16,0.065089210465005,-7.62002853863947e-05,-8.41496791702083e-19,0.924718101533629,NA,1
"stimuli/m5.jpg","stimuli/m2.jpg",1,"stimuli/Hand labour tool & accessory.png","stimuli/Electronic device & accessory.png","stimuli/Kitchen & utensil.png","stimuli/Outdoor activity & sport item.png",3,0,4,"stimuli/m5.jpg","Kitchen & utensil","stimuli/objects/measuringcup01.jpg",1,1,0,0.885,1,"Hand labour tool & accessory",1.51143814713666e-16,0.504834457893382,2.08120597562618e-05,2.29832229955576e-19,0.0224477970437085,0.932653159703503,0.0224512462090803,0.0224477970437084,-2.89208561955643e-16,-0.965983608853564,-3.98231703020471e-05,-4.39776175045161e-19,0.932653159703503,NA,0
"stimuli/m5.jpg","stimuli/m2.jpg",2,"stimuli/Kitchen & utensil.png","stimuli/Hand labour tool & accessory.png","stimuli/Electronic device & accessory.png","stimuli/Outdoor activity & sport item.png",4,0,4,"stimuli/m2.jpg","Outdoor activity & sport item","stimuli/objects/baseballglove.jpg",1,3,0,1.358,3,"Electronic device & accessory",0.000107548563998296,2.24663085116503e-08,0.0174658324526679,1.16795937881872e-10,0.241830383920091,0.241638497493605,0.274892660960841,0.241638457625462,-0.000205790528664811,-4.29885191756956e-08,-0.0334202778761647,-2.23485064877237e-10,0.241830383920091,NA,0
"stimuli/m2.jpg","stimuli/m5.jpg",1,"stimuli/Outdoor activity & sport item.png","stimuli/Hand labour tool & accessory.png","stimuli/Kitchen & utensil.png","stimuli/Electronic device & accessory.png",3,1,4,"stimuli/m2.jpg","Kitchen & utensil","stimuli/objects/saladspinner.jpg",1,3,1,0.997,3,"Kitchen & utensil",5.62061514353523e-05,1.17411585190405e-08,0.486516024403189,6.10389383881173e-11,0.245794855644274,0.245692910231009,0.26281934507887,0.245692889045848,-0.000107548563998296,-2.24663085116503e-08,0.982534167547332,-1.16795937881872e-10,0.26281934507887,NA,1
"stimuli/m5.jpg","stimuli/m2.jpg",1,"stimuli/Electronic device & accessory.png","stimuli/Hand labour tool & accessory.png","stimuli/Outdoor activity & sport item.png","stimuli/Kitchen & utensil.png",2,1,4,"stimuli/m5.jpg","Hand labour tool & accessory","stimuli/objects/knifesharpener.jpg",1,2,1,0.968,2,"Hand labour tool & accessory",7.89895450249595e-17,0.741220631772882,1.08766285560129e-05,1.20113041414597e-19,0.0998745747980254,0.700368255898226,0.0998825945057237,0.0998745747980253,-1.51143814713666e-16,0.495165542106618,-2.08120597562618e-05,-2.29832229955576e-19,0.700368255898226,NA,1
"stimuli/m2.jpg","stimuli/m5.jpg",1,"stimuli/Kitchen & utensil.png","stimuli/Electronic device & accessory.png","stimuli/Hand labour tool & accessory.png","stimuli/Outdoor activity & sport item.png",4,0,4,"stimuli/m2.jpg","Outdoor activity & sport item","stimuli/objects/exercisemachine.jpg",1,4,1,1.169,4,"Outdoor activity & sport item",2.93739994447886e-05,6.13606829523191e-09,0.254259027984459,0.477388173841057,0.10490828448635,0.104885542577107,0.685320635085874,0.104885537850669,-5.62061514353523e-05,-1.17411585190405e-08,-0.486516024403189,0.999999999938961,0.104885537850669,NA,1
"stimuli/m5.jpg","stimuli/m2.jpg",2,"stimuli/Electronic device & accessory.png","stimuli/Outdoor activity & sport item.png","stimuli/Hand labour tool & accessory.png","stimuli/Kitchen & utensil.png",4,1,4,"stimuli/m2.jpg","Kitchen & utensil","stimuli/objects/thermos.jpg",1,4,1,1.356,4,"Kitchen & utensil",1.53511994923698e-05,3.20678185740288e-09,0.610266948749624,0.249488705332986,0.0911265368975305,0.0911162125239739,0.243006234544318,0.574751016034177,-2.93739994447886e-05,-6.13606829523191e-09,0.745740972015541,-0.477388173841057,0.243006234544318,NA,1
"stimuli/m5.jpg","stimuli/m2.jpg",2,"stimuli/Hand labour tool & accessory.png","stimuli/Kitchen & utensil.png","stimuli/Outdoor activity & sport item.png","stimuli/Electronic device & accessory.png",2,1,4,"stimuli/m2.jpg","Kitchen & utensil","stimuli/objects/aluminiumfoil.jpg",1,3,0,0.835,3,"Outdoor activity & sport item",8.02271840092731e-06,1.67590212269299e-09,0.318932724549955,0.130385747908061,0.066006871851342,0.06600296345162,0.695170833681732,0.172819331015306,-1.53511994923698e-05,-3.20678185740288e-09,-0.610266948749624,-0.249488705332986,0.172819331015306,NA,0
"stimuli/m5.jpg","stimuli/m2.jpg",1,"stimuli/Outdoor activity & sport item.png","stimuli/Electronic device & accessory.png","stimuli/Hand labour tool & accessory.png","stimuli/Kitchen & utensil.png",3,1,4,"stimuli/m5.jpg","Hand labour tool & accessory","stimuli/objects/wateringcan.jpg",1,3,1,0.869,3,"Hand labour tool & accessory",4.12808703754779e-17,0.864758841790313,5.68425471245739e-06,6.2772495923019e-20,0.0488851374513976,0.853342536241108,0.0488871888560974,0.0488851374513976,-7.89895450249595e-17,0.258779368227118,-1.08766285560129e-05,-1.20113041414597e-19,0.853342536241108,NA,1
"stimuli/m5.jpg","stimuli/m2.jpg",1,"stimuli/Kitchen & utensil.png","stimuli/Hand labour tool & accessory.png","stimuli/Electronic device & accessory.png","stimuli/Outdoor activity & sport item.png",2,1,4,"stimuli/m5.jpg","Hand labour tool & accessory","stimuli/objects/gardenshears01a.jpg",1,2,1,0.893,2,"Hand labour tool & accessory",2.1573871053676e-17,0.929321371331871,2.97065873581126e-06,3.28056487288862e-20,0.0321386855680784,0.903583238476933,0.0321393903869102,0.0321386855680784,-4.12808703754779e-17,0.135241158209687,-5.68425471245739e-06,-6.2772495923019e-20,0.903583238476933,NA,1
"stimuli/m2.jpg","stimuli/m5.jpg",1,"stimuli/Kitchen & utensil.png","stimuli/Outdoor activity & sport item.png","stimuli/Electronic device & accessory.png","stimuli/Hand labour tool & accessory.png",1,1,4,"stimuli/m2.jpg","Kitchen & utensil","stimuli/objects/spoon01.jpg",1,1,1,1,1,"Kitchen & utensil",4.1927675145235e-06,8.75846268857692e-10,0.64406618741823,0.0681411338234907,0.141315190546038,0.141310817500074,0.483682851770474,0.233691140183414,-8.02271840092731e-06,-1.67590212269299e-09,0.681067275450045,-0.130385747908061,0.483682851770474,NA,1
"stimuli/m5.jpg","stimuli/m2.jpg",2,"stimuli/Hand labour tool & accessory.png","stimuli/Outdoor activity & sport item.png","stimuli/Kitchen & utensil.png","stimuli/Electronic device & accessory.png",3,1,4,"stimuli/m2.jpg","Kitchen & utensil","stimuli/objects/corkscrew03a.jpg",1,3,1,1.068,3,"Kitchen & utensil",2.19118988755877e-06,4.57727618030154e-10,0.813984780203572,0.0356113623862091,0.0653600112562289,0.0653589542202909,0.784269384011144,0.0850116505123361,-4.1927675145235e-06,-8.75846268857692e-10,0.35593381258177,-0.0681411338234907,0.784269384011144,NA,1
"stimuli/m2.jpg","stimuli/m5.jpg",1,"stimuli/Hand labour tool & accessory.png","stimuli/Outdoor activity & sport item.png","stimuli/Kitchen & utensil.png","stimuli/Electronic device & accessory.png",3,1,4,"stimuli/m2.jpg","Kitchen & utensil","stimuli/objects/bottlecap.jpg",1,1,0,0.833,1,"Hand labour tool & accessory",1.145141748668e-06,2.39213866356724e-10,0.425398072473741,0.0186109191298006,0.0380798944751287,0.0380795726245601,0.880152709262323,0.0436878236379885,-2.19118988755877e-06,-4.57727618030154e-10,-0.813984780203572,-0.0356113623862091,0.0380795726245601,NA,0
"stimuli/m2.jpg","stimuli/m5.jpg",1,"stimuli/Hand labour tool & accessory.png","stimuli/Outdoor activity & sport item.png","stimuli/Electronic device & accessory.png","stimuli/Kitchen & utensil.png",4,1,4,"stimuli/m2.jpg","Kitchen & utensil","stimuli/objects/pot01.jpg",1,4,1,0.819,4,"Kitchen & utensil",5.98464620518758e-07,1.2501599554686e-10,0.699706237322723,0.00972628643351521,0.12142007996801,0.121419543641619,0.626701997108717,0.130458379281654,-1.145141748668e-06,-2.39213866356724e-10,0.574601927526259,-0.0186109191298006,0.626701997108717,NA,1
"stimuli/m5.jpg","stimuli/m2.jpg",1,"stimuli/Hand labour tool & accessory.png","stimuli/Outdoor activity & sport item.png","stimuli/Electronic device & accessory.png","stimuli/Kitchen & utensil.png",1,1,4,"stimuli/m5.jpg","Hand labour tool & accessory","stimuli/objects/gastank.jpg",1,1,1,0.647,1,"Hand labour tool & accessory",1.12747601493674e-17,0.963062512799084,1.55250138691211e-06,1.71446199915785e-20,0.0255966471714433,0.923209765119906,0.0255969405372077,0.0255966471714433,-2.1573871053676e-17,0.0706786286681294,-2.97065873581126e-06,-3.28056487288862e-20,0.923209765119906,NA,1
"stimuli/m5.jpg","stimuli/m2.jpg",1,"stimuli/Hand labour tool & accessory.png","stimuli/Outdoor activity & sport item.png","stimuli/Kitchen & utensil.png","stimuli/Electronic device & accessory.png",1,1,4,"stimuli/m5.jpg","Hand labour tool & accessory","stimuli/objects/stubbywrench01a.jpg",1,1,1,0.523,1,"Hand labour tool & accessory",5.89232299152463e-18,0.980696032359029,8.11355584977953e-07,8.9599811631469e-21,0.0226849716234346,0.931944949253734,0.0226851074993972,0.0226849716234346,-1.12747601493674e-17,0.0369374872009156,-1.55250138691211e-06,-1.71446199915785e-20,0.931944949253734,NA,1
"stimuli/m5.jpg","stimuli/m2.jpg",2,"stimuli/Kitchen & utensil.png","stimuli/Hand labour tool & accessory.png","stimuli/Outdoor activity & sport item.png","stimuli/Electronic device & accessory.png",1,1,4,"stimuli/m2.jpg","Kitchen & utensil","stimuli/objects/potatomasher03b.jpg",1,1,1,1.175,1,"Kitchen & utensil",3.12764688239918e-07,6.53348377358107e-11,0.843062928293509,0.00508307231507461,0.0558321828169797,0.0558320539318087,0.830368818680283,0.0579669445709288,-5.98464620518758e-07,-1.2501599554686e-10,0.300293762677277,-0.00972628643351521,0.830368818680283,NA,1
"stimuli/m2.jpg","stimuli/m5.jpg",2,"stimuli/Outdoor activity & sport item.png","stimuli/Kitchen & utensil.png","stimuli/Hand labour tool & accessory.png","stimuli/Electronic device & accessory.png",4,0,4,"stimuli/m5.jpg","Electronic device & accessory","stimuli/objects/airconditioner.jpg",1,3,0,0.933,3,"Hand labour tool & accessory",3.07939767910698e-18,0.512523344409266,4.24024023955468e-07,4.68259211830776e-21,0.0212882903289996,0.93613506237472,0.0212883569672813,0.0212882903289996,-5.89232299152463e-18,-0.980696032359029,-8.11355584977953e-07,-8.9599811631469e-21,0.93613506237472,NA,0
"stimuli/m5.jpg","stimuli/m2.jpg",2,"stimuli/Outdoor activity & sport item.png","stimuli/Hand labour tool & accessory.png","stimuli/Kitchen & utensil.png","stimuli/Electronic device & accessory.png",3,1,4,"stimuli/m2.jpg","Kitchen & utensil","stimuli/objects/oven.jpg",1,3,1,0.907,3,"Kitchen & utensil",1.63454524889073e-07,3.41447588629944e-11,0.917982830358427,0.00265647370524126,0.0346292327203163,0.0346291909429858,0.895426573307511,0.0353150030291866,-3.12764688239918e-07,-6.53348377358107e-11,0.156937071706491,-0.00508307231507461,0.895426573307511,NA,1
"stimuli/m2.jpg","stimuli/m5.jpg",1,"stimuli/Outdoor activity & sport item.png","stimuli/Electronic device & accessory.png","stimuli/Hand labour tool & accessory.png","stimuli/Kitchen & utensil.png",3,0,4,"stimuli/m2.jpg","Hand labour tool & accessory","stimuli/objects/aircompressor.jpg",1,4,0,1.496,4,"Kitchen & utensil",8.54232677514352e-08,1.78444547842355e-11,0.479748683385457,0.00138830457432409,0.026642426265406,0.0266424094676624,0.919798295766553,0.026916868500378,-1.63454524889073e-07,-3.41447588629944e-11,-0.917982830358427,-0.00265647370524126,0.919798295766553,NA,0
"stimuli/m2.jpg","stimuli/m5.jpg",2,"stimuli/Outdoor activity & sport item.png","stimuli/Hand labour tool & accessory.png","stimuli/Kitchen & utensil.png","stimuli/Electronic device & accessory.png",2,1,4,"stimuli/m5.jpg","Hand labour tool & accessory","stimuli/objects/snowblower.jpg",1,4,0,0.99,4,"Electronic device & accessory",1.60932964464594e-18,0.267850760987165,2.21599969508157e-07,2.44717801825567e-21,0.0978127484681045,0.70656159458191,0.0978129084818816,0.0978127484681045,-3.07939767910698e-18,-0.512523344409266,-4.24024023955468e-07,-4.68259211830776e-21,0.0978127484681045,NA,0
"stimuli/m2.jpg","stimuli/m5.jpg",2,"stimuli/Electronic device & accessory.png","stimuli/Kitchen & utensil.png","stimuli/Outdoor activity & sport item.png","stimuli/Hand labour tool & accessory.png",4,1,4,"stimuli/m5.jpg","Hand labour tool & accessory","stimuli/objects/paintroller01.jpg",1,3,0,1.415,3,"Outdoor activity & sport item",8.41054704531477e-19,0.139981975346109,1.15810764748493e-07,1.27892417313468e-21,0.172099960410088,0.483699971632786,0.172100107547038,0.172099960410088,-1.60932964464594e-18,-0.267850760987165,-2.21599969508157e-07,-2.44717801825567e-21,0.172099960410088,NA,0
"stimuli/m5.jpg","stimuli/m2.jpg",2,"stimuli/Outdoor activity & sport item.png","stimuli/Kitchen & utensil.png","stimuli/Electronic device & accessory.png","stimuli/Hand labour tool & accessory.png",2,1,4,"stimuli/m2.jpg","Kitchen & utensil","stimuli/objects/pastaspoon.jpg",1,3,0,0.926,3,"Electronic device & accessory",4.46432099587669e-08,9.32572310216924e-12,0.250722335536726,0.000725544388896614,0.106712582629254,0.106712547467373,0.679289216464876,0.107285653438497,-8.54232677514352e-08,-1.78444547842355e-11,-0.479748683385457,-0.00138830457432409,0.106712582629254,NA,0
"stimuli/m5.jpg","stimuli/m2.jpg",2,"stimuli/Kitchen & utensil.png","stimuli/Outdoor activity & sport item.png","stimuli/Hand labour tool & accessory.png","stimuli/Electronic device & accessory.png",4,0,4,"stimuli/m2.jpg","Electronic device & accessory","stimuli/objects/headphones02b.jpg",1,1,0,0.7,1,"Kitchen & utensil",2.33310694835724e-08,4.8737331809748e-12,0.131030457641682,0.000379178078063779,0.177504779123031,0.177504748556525,0.46698815508342,0.178002317237024,-4.46432099587669e-08,-9.32572310216924e-12,-0.250722335536726,-0.000725544388896614,0.46698815508342,NA,0
"stimuli/m2.jpg","stimuli/m5.jpg",1,"stimuli/Kitchen & utensil.png","stimuli/Hand labour tool & accessory.png","stimuli/Electronic device & accessory.png","stimuli/Outdoor activity & sport item.png",4,1,5,"stimuli/m2.jpg","Outdoor activity & sport item","stimuli/objects/badmintonracket.jpg",1,1,0,1.044,1,"Kitchen & utensil",1.21930928297952e-08,2.54707059807615e-12,0.0684780667547412,0.000198162947828445,0.214623561445579,0.214623542130682,0.355815151983716,0.214937744440023,-2.33310694835724e-08,-4.8737331809748e-12,-0.131030457641682,-0.000379178078063779,0.355815151983716,NA,0
"stimuli/m5.jpg","stimuli/m2.jpg",2,"stimuli/Kitchen & utensil.png","stimuli/Hand labour tool & accessory.png","stimuli/Outdoor activity & sport item.png","stimuli/Electronic device & accessory.png",4,0,5,"stimuli/m2.jpg","Electronic device & accessory","stimuli/objects/djmixer02.jpg",1,1,0,0.523,1,"Kitchen & utensil",6.37225451069376e-09,1.33112921669758e-12,0.0357874475207138,0.000103562300047985,0.232388160507237,0.232388149577537,0.30265780509639,0.232565884818837,-1.21930928297952e-08,-2.54707059807615e-12,-0.0684780667547412,-0.000198162947828445,0.30265780509639,NA,0
"stimuli/m5.jpg","stimuli/m2.jpg",2,"stimuli/Electronic device & accessory.png","stimuli/Kitchen & utensil.png","stimuli/Hand labour tool & accessory.png","stimuli/Outdoor activity & sport item.png",4,1,5,"stimuli/m2.jpg","Outdoor activity & sport item","stimuli/objects/shinpad.jpg",1,1,0,0.696,1,"Electronic device & accessory",3.3302155667865e-09,6.95663870834309e-13,0.0187029433035092,5.41228827526013e-05,0.24105351710138,0.241053511176399,0.276743128007508,0.241149843714712,-6.37225451069376e-09,-1.33112921669758e-12,-0.0357874475207138,-0.000103562300047985,0.24105351710138,NA,0
"stimuli/m5.jpg","stimuli/m2.jpg",2,"stimuli/Hand labour tool & accessory.png","stimuli/Outdoor activity & sport item.png","stimuli/Kitchen & utensil.png","stimuli/Electronic device & accessory.png",2,1,5,"stimuli/m2.jpg","Outdoor activity & sport item","stimuli/objects/surfboard.jpg",1,4,0,1.113,4,"Electronic device & accessory",1.74041003896747e-09,3.63562165951709e-13,0.00977437935499074,2.82852585940499e-05,0.245396765725997,0.24539676257374,0.263758462393639,0.245448009306624,-3.3302155667865e-09,-6.95663870834309e-13,-0.0187029433035092,-5.41228827526013e-05,0.245396765725997,NA,0
"stimuli/m2.jpg","stimuli/m5.jpg",2,"stimuli/Outdoor activity & sport item.png","stimuli/Kitchen & utensil.png","stimuli/Electronic device & accessory.png","stimuli/Hand labour tool & accessory.png",3,1,5,"stimuli/m5.jpg","Electronic device & accessory","stimuli/objects/alarmclock01.jpg",1,4,0,0.804,4,"Hand labour tool & accessory",4.39545135061595e-19,0.0731562357694318,6.05240752577681e-08,6.6838089768153e-22,0.212039031842205,0.363882809732827,0.212039126582762,0.212039031842205,-8.41054704531477e-19,-0.139981975346109,-1.15810764748493e-07,-1.27892417313468e-21,0.363882809732827,NA,0
"stimuli/m5.jpg","stimuli/m2.jpg",2,"stimuli/Hand labour tool & accessory.png","stimuli/Kitchen & utensil.png","stimuli/Outdoor activity & sport item.png","stimuli/Electronic device & accessory.png",1,0,5,"stimuli/m2.jpg","Hand labour tool & accessory","stimuli/objects/sledgehammer.jpg",1,4,0,1.412,4,"Electronic device & accessory",9.09558868785665e-10,1.90001887481921e-13,0.00510820624459379,1.47822106481166e-05,0.247614267772406,0.247614266110112,0.257130177191412,0.24764128892607,-1.74041003896747e-09,-3.63562165951709e-13,-0.00977437935499074,-2.82852585940499e-05,0.247614267772406,NA,0
"stimuli/m5.jpg","stimuli/m2.jpg",2,"stimuli/Electronic device & accessory.png","stimuli/Outdoor activity & sport item.png","stimuli/Hand labour tool & accessory.png","stimuli/Kitchen & utensil.png",3,0,5,"stimuli/m2.jpg","Hand labour tool & accessory","stimuli/objects/chainsaw.jpg",1,1,0,0.684,1,"Electronic device & accessory",4.75346221444154e-10,9.92972333966338e-14,0.00266960899404663,7.72535810194996e-06,0.248758671451229,0.24875867057848,0.253709800048158,0.248772857922132,-9.09558868785665e-10,-1.90001887481921e-13,-0.00510820624459379,-1.47822106481166e-05,0.248758671451229,NA,0
"stimuli/m5.jpg","stimuli/m2.jpg",1,"stimuli/Outdoor activity & sport item.png","stimuli/Kitchen & utensil.png","stimuli/Hand labour tool & accessory.png","stimuli/Electronic device & accessory.png",4,1,5,"stimuli/m5.jpg","Electronic device & accessory","stimuli/objects/fan.jpg",1,4,1,1.049,4,"Electronic device & accessory",0.477388173809157,0.0382323139727107,3.16305974989742e-08,3.4930376152842e-22,0.231155053871648,0.306534784408807,0.231155107847897,0.231155053871648,1,-0.0731562357694318,-6.05240752577681e-08,-6.6838089768153e-22,0.231155053871648,NA,1
"stimuli/m2.jpg","stimuli/m5.jpg",1,"stimuli/Kitchen & utensil.png","stimuli/Electronic device & accessory.png","stimuli/Hand labour tool & accessory.png","stimuli/Outdoor activity & sport item.png",4,1,5,"stimuli/m2.jpg","Outdoor activity & sport item","stimuli/objects/podium.jpg",1,3,0,0.916,3,"Hand labour tool & accessory",2.48421556861846e-10,5.18939084811132e-14,0.00139516923159421,4.0373635056383e-06,0.249352768425533,0.249352767968334,0.251934263557797,0.249360200048336,-4.75346221444154e-10,-9.92972333966338e-14,-0.00266960899404663,-7.72535810194996e-06,0.249352767968334,NA,0
"stimuli/m5.jpg","stimuli/m2.jpg",2,"stimuli/Electronic device & accessory.png","stimuli/Kitchen & utensil.png","stimuli/Outdoor activity & sport item.png","stimuli/Hand labour tool & accessory.png",3,1,5,"stimuli/m2.jpg","Outdoor activity & sport item","stimuli/objects/iceskate.jpg",1,3,1,1.017,3,"Outdoor activity & sport item",1.29828043496742e-10,2.7120370279495e-14,0.000729131939968724,0.477390283783072,0.249662159713167,0.249662159473933,0.251009632454434,0.249666048358467,-2.48421556861846e-10,-5.18939084811132e-14,-0.00139516923159421,0.999995962636494,0.249666048358467,NA,1
"stimuli/m5.jpg","stimuli/m2.jpg",1,"stimuli/Outdoor activity & sport item.png","stimuli/Electronic device & accessory.png","stimuli/Hand labour tool & accessory.png","stimuli/Kitchen & utensil.png",2,1,5,"stimuli/m5.jpg","Electronic device & accessory","stimuli/objects/filmroll.jpg",1,3,0,0.602,3,"Hand labour tool & accessory",0.249488705316315,0.01998065942478,1.65305243224464e-08,1.82550276707698e-22,0.666315102322619,0.122420857938095,0.105632026314957,0.105632013424329,-0.477388173809157,-0.0382323139727107,-3.16305974989742e-08,-3.4930376152842e-22,0.122420857938095,NA,0
"stimuli/m5.jpg","stimuli/m2.jpg",2,"stimuli/Electronic device & accessory.png","stimuli/Hand labour tool & accessory.png","stimuli/Kitchen & utensil.png","stimuli/Outdoor activity & sport item.png",3,0,5,"stimuli/m2.jpg","Kitchen & utensil","stimuli/objects/canister.jpg",1,4,0,0.982,4,"Outdoor activity & sport item",6.78496709026165e-11,1.41734262387388e-14,0.000381052974681127,0.249489808013636,0.107402639091417,0.107402639037632,0.107705193219993,0.677489528650958,-1.29828043496742e-10,-2.7120370279495e-14,-0.000729131939968724,-0.477390283783072,0.677489528650958,NA,0
"stimuli/m2.jpg","stimuli/m5.jpg",2,"stimuli/Kitchen & utensil.png","stimuli/Hand labour tool & accessory.png","stimuli/Electronic device & accessory.png","stimuli/Outdoor activity & sport item.png",3,1,5,"stimuli/m5.jpg","Electronic device & accessory","stimuli/objects/chandelier.jpg",1,3,1,1.341,3,"Electronic device & accessory",0.607773921708505,0.0104421289104816,8.63904750404587e-09,9.54029334818539e-23,0.459482369665359,0.189547649519043,0.17548499600367,0.175484984811928,0.750511294683685,-0.01998065942478,-1.65305243224464e-08,-1.82550276707698e-22,0.459482369665359,NA,1
"stimuli/m5.jpg","stimuli/m2.jpg",2,"stimuli/Kitchen & utensil.png","stimuli/Electronic device & accessory.png","stimuli/Hand labour tool & accessory.png","stimuli/Outdoor activity & sport item.png",4,1,5,"stimuli/m2.jpg","Outdoor activity & sport item","stimuli/objects/cooler01.jpg",1,4,1,0.972,4,"Outdoor activity & sport item",3.54590404168641e-11,7.40720017000848e-15,0.000199142790973557,0.607774497991166,0.177941023879756,0.177941023833186,0.178202813084857,0.465915139202201,-6.78496709026165e-11,-1.41734262387388e-14,-0.000381052974681127,0.750510191986364,0.465915139202201,NA,1
"stimuli/m2.jpg","stimuli/m5.jpg",2,"stimuli/Electronic device & accessory.png","stimuli/Outdoor activity & sport item.png","stimuli/Hand labour tool & accessory.png","stimuli/Kitchen & utensil.png",1,1,5,"stimuli/m5.jpg","Electronic device & accessory","stimuli/objects/lectern01.jpg",1,1,1,0.801,1,"Electronic device & accessory",0.795018012944409,0.00545718005922697,4.51486839263886e-09,4.98587012909152e-23,0.774276353912534,0.0772754041238265,0.0742241222187695,0.0742241197448701,0.392226078291495,-0.0104421289104816,-8.63904750404587e-09,-9.54029334818539e-23,0.774276353912534,NA,1
"stimuli/m5.jpg","stimuli/m2.jpg",2,"stimuli/Hand labour tool & accessory.png","stimuli/Electronic device & accessory.png","stimuli/Kitchen & utensil.png","stimuli/Outdoor activity & sport item.png",4,1,5,"stimuli/m2.jpg","Outdoor activity & sport item","stimuli/objects/fishinghook03.jpg",1,4,1,0.834,4,"Outdoor activity & sport item",1.85313138672323e-11,3.87109040780926e-15,0.000104074377663432,0.795018314116543,0.0744469033354519,0.0744469033252694,0.0745041234987122,0.776602069840566,-3.54590404168641e-11,-7.40720017000848e-15,-0.000199142790973557,0.392225502008834,0.776602069840566,NA,1
"stimuli/m2.jpg","stimuli/m5.jpg",2,"stimuli/Hand labour tool & accessory.png","stimuli/Kitchen & utensil.png","stimuli/Electronic device & accessory.png","stimuli/Outdoor activity & sport item.png",3,1,5,"stimuli/m5.jpg","Electronic device & accessory","stimuli/objects/coffeemachine.jpg",1,3,1,1.131,3,"Electronic device & accessory",0.89287398940865,0.00285198683660486,2.35952361568831e-09,2.60567469331489e-23,0.876701942471117,0.0416782390572009,0.0408099095912691,0.0408099088804128,0.204981987055591,-0.00545718005922697,-4.51486839263886e-09,-4.98587012909152e-23,0.876701942471117,NA,1
"stimuli/m2.jpg","stimuli/m5.jpg",1,"stimuli/Outdoor activity & sport item.png","stimuli/Electronic device & accessory.png","stimuli/Hand labour tool & accessory.png","stimuli/Kitchen & utensil.png",1,1,5,"stimuli/m2.jpg","Outdoor activity & sport item","stimuli/objects/kiddiepool.jpg",1,1,1,0.608,1,"Outdoor activity & sport item",9.68468378186996e-12,2.02307762737505e-15,5.43905005703617e-05,0.892874146804769,0.0408446645325843,0.0408446645296647,0.0408610680645078,0.877449602873243,-1.85313138672323e-11,-3.87109040780926e-15,-0.000104074377663432,0.204981685883457,0.877449602873243,NA,1
"stimuli/m5.jpg","stimuli/m2.jpg",2,"stimuli/Hand labour tool & accessory.png","stimuli/Electronic device & accessory.png","stimuli/Outdoor activity & sport item.png","stimuli/Kitchen & utensil.png",3,1,5,"stimuli/m2.jpg","Outdoor activity & sport item","stimuli/objects/snowboard.jpg",1,3,1,1.327,3,"Outdoor activity & sport item",5.0613302773239e-12,1.05728429336831e-15,2.84251188305108e-05,0.944014762229388,0.029123474818089,0.029123474817001,0.0291295868108738,0.912623463554036,-9.68468378186996e-12,-2.02307762737505e-15,-5.43905005703617e-05,0.107125853195231,0.912623463554036,NA,1
"stimuli/m2.jpg","stimuli/m5.jpg",1,"stimuli/Hand labour tool & accessory.png","stimuli/Outdoor activity & sport item.png","stimuli/Electronic device & accessory.png","stimuli/Kitchen & utensil.png",2,1,5,"stimuli/m2.jpg","Outdoor activity & sport item","stimuli/objects/handgripper.jpg",1,3,0,1.307,3,"Electronic device & accessory",2.64511105918725e-12,5.5254927536011e-16,1.4855303261705e-05,0.493353278839815,0.0242887122610269,0.0242887122605527,0.0242913760610083,0.927131199417412,-5.0613302773239e-12,-1.05728429336831e-15,-2.84251188305108e-05,-0.944014762229388,0.0242887122610269,NA,0
"stimuli/m5.jpg","stimuli/m2.jpg",2,"stimuli/Hand labour tool & accessory.png","stimuli/Outdoor activity & sport item.png","stimuli/Electronic device & accessory.png","stimuli/Kitchen & utensil.png",2,1,5,"stimuli/m2.jpg","Outdoor activity & sport item","stimuli/objects/hockeypuck.jpg",1,2,1,0.609,2,"Outdoor activity & sport item",1.38236632111944e-12,2.88768785856374e-16,7.76355716621843e-06,0.735220431820873,0.103000459500376,0.103000459499326,0.103006362926712,0.690992718073587,-2.64511105918725e-12,-5.5254927536011e-16,-1.4855303261705e-05,0.506646721160185,0.690992718073587,NA,1
"stimuli/m2.jpg","stimuli/m5.jpg",2,"stimuli/Electronic device & accessory.png","stimuli/Kitchen & utensil.png","stimuli/Outdoor activity & sport item.png","stimuli/Hand labour tool & accessory.png",4,0,5,"stimuli/m5.jpg","Hand labour tool & accessory","stimuli/objects/flooringstapler.jpg",1,1,0,0.587,1,"Electronic device & accessory",0.466626506163158,0.00149048204895031,1.23311494573529e-09,1.36175640993256e-23,0.912335017776341,0.0294364066244469,0.0291142879321231,0.0291142876670891,-0.89287398940865,-0.00285198683660486,-2.35952361568831e-09,-2.60567469331489e-23,0.912335017776341,NA,0
"stimuli/m2.jpg","stimuli/m5.jpg",1,"stimuli/Outdoor activity & sport item.png","stimuli/Hand labour tool & accessory.png","stimuli/Electronic device & accessory.png","stimuli/Kitchen & utensil.png",1,1,5,"stimuli/m2.jpg","Outdoor activity & sport item","stimuli/objects/backpack01a.jpg",1,1,1,0.805,1,"Outdoor activity & sport item",7.2244098754495e-13,1.50913982523312e-16,4.05732678837442e-06,0.861623066335883,0.0498587760614686,0.0498587760612028,0.0498602694743439,0.850422178402985,-1.38236632111944e-12,-2.88768785856374e-16,-7.76355716621843e-06,0.264779568179127,0.850422178402985,NA,1
"stimuli/m5.jpg","stimuli/m2.jpg",1,"stimuli/Electronic device & accessory.png","stimuli/Kitchen & utensil.png","stimuli/Outdoor activity & sport item.png","stimuli/Hand labour tool & accessory.png",4,0,5,"stimuli/m5.jpg","Hand labour tool & accessory","stimuli/objects/ladder.jpg",1,1,0,0.981,1,"Electronic device & accessory",0.243864530534981,0.000778943545506592,6.44440453693942e-10,7.11670004221943e-24,0.668132136450953,0.111047109342901,0.110410377365709,0.110410376840437,-0.466626506163158,-0.00149048204895031,-1.23311494573529e-09,-1.36175640993256e-23,0.668132136450953,NA,0
"stimuli/m5.jpg","stimuli/m2.jpg",1,"stimuli/Outdoor activity & sport item.png","stimuli/Electronic device & accessory.png","stimuli/Kitchen & utensil.png","stimuli/Hand labour tool & accessory.png",1,0,5,"stimuli/m5.jpg","Outdoor activity & sport item","stimuli/objects/downhillski.jpg",1,2,0,0.8,2,"Electronic device & accessory",0.127446487646059,0.00040708510881677,3.36792202376247e-10,3.71927160551675e-24,0.46039155149503,0.180230028583792,0.17968921018397,0.179689209737209,-0.243864530534981,-0.000778943545506592,-6.44440453693942e-10,-7.11670004221943e-24,0.46039155149503,NA,0
"stimuli/m5.jpg","stimuli/m2.jpg",1,"stimuli/Outdoor activity & sport item.png","stimuli/Hand labour tool & accessory.png","stimuli/Kitchen & utensil.png","stimuli/Electronic device & accessory.png",4,1,5,"stimuli/m5.jpg","Electronic device & accessory","stimuli/objects/crocodileclips.jpg",1,4,1,1.073,4,"Electronic device & accessory",0.543993215459472,0.00021274749213383,1.76011587930686e-10,1.94373532585886e-24,0.352643962310681,0.216011341727904,0.215672348120827,0.215672347840588,0.872553512353941,-0.00040708510881677,-3.36792202376247e-10,-3.71927160551675e-24,0.352643962310681,NA,1
"stimuli/m5.jpg","stimuli/m2.jpg",2,"stimuli/Kitchen & utensil.png","stimuli/Outdoor activity & sport item.png","stimuli/Electronic device & accessory.png","stimuli/Hand labour tool & accessory.png",1,0,5,"stimuli/m2.jpg","Kitchen & utensil","stimuli/objects/servingspoon01.jpg",1,2,0,0.815,2,"Outdoor activity & sport item",3.77556203815983e-13,7.88694320042412e-17,2.12040696232539e-06,0.45029440418595,0.032491739317485,0.0324917393173945,0.0324922479303796,0.902524273434741,-7.2244098754495e-13,-1.50913982523312e-16,-4.05732678837442e-06,-0.861623066335883,0.902524273434741,NA,0
