"first_character","second_character","Cue","left_categ","centleft_categ","centright_categ","right_categ","corr_ans","trial_cond","switch_cond","cuedCharacter","obj_category","image","participant","task_resp.keys","task_resp.corr","task_resp.rt","trialNum","response","respCat","Q1","V1","Delta1","Q2","V2","Delta2","Q3","V3","Delta3","Q4","V4","Delta4","Prob","Delta","P1","P2","P3","P4"
"stimuli/m2.jpg","stimuli/m5.jpg",2,"stimuli/Electronic device & accessory.png","stimuli/Kitchen & utensil.png","stimuli/Hand labour tool & accessory.png","stimuli/Outdoor activity & sport item.png",2,0,2,"stimuli/m5.jpg","Kitchen & utensil","stimuli/objects/travelmug.jpg",1,1,0,1.175,20,1,"Electronic device & accessory",NA,0.137462967311289,-0.25,NA,0.137462967311289,-0.25,NA,0.587611098066134,0.75,NA,0.137462967311289,-0.25,0.25,NA,0.25,0.25,0.25,0.25
"stimuli/m2.jpg","stimuli/m5.jpg",1,"stimuli/Kitchen & utensil.png","stimuli/Outdoor activity & sport item.png","stimuli/Electronic device & accessory.png","stimuli/Hand labour tool & accessory.png",2,1,2,"stimuli/m2.jpg","Outdoor activity & sport item","stimuli/objects/swimgoggles.jpg",1,2,1,0.518,21,2,"Outdoor activity & sport item",NA,0.137462967311289,-0.25,NA,0.137462967311289,-0.25,NA,0.137462967311289,-0.25,NA,0.587611098066134,0.75,0.25,NA,0.25,0.25,0.25,0.25
"stimuli/m2.jpg","stimuli/m5.jpg",2,"stimuli/Electronic device & accessory.png","stimuli/Hand labour tool & accessory.png","stimuli/Outdoor activity & sport item.png","stimuli/Kitchen & utensil.png",3,0,2,"stimuli/m5.jpg","Outdoor activity & sport item","stimuli/objects/outdoorheater.jpg",1,4,0,1.1,22,4,"Kitchen & utensil",NA,0.0755842695280977,-0.137462967311289,NA,0.0755842695280977,-0.137462967311289,NA,0.323099060660862,-0.587611098066134,NA,0.525732400282943,0.862537032688711,0.640381873959734,NA,0.119872708680089,0.119872708680089,0.640381873959734,0.119872708680089
"stimuli/m2.jpg","stimuli/m5.jpg",2,"stimuli/Kitchen & utensil.png","stimuli/Hand labour tool & accessory.png","stimuli/Electronic device & accessory.png","stimuli/Outdoor activity & sport item.png",2,1,2,"stimuli/m5.jpg","Hand labour tool & accessory","stimuli/objects/adjustablewrench01b.jpg",1,2,1,0.913,23,2,"Hand labour tool & accessory",NA,0.0415601518855541,-0.0755842695280977,NA,0.491708282640399,0.924415730471902,NA,0.177656622455728,-0.323099060660862,NA,0.289074943018318,-0.525732400282943,0.101472732678988,NA,0.101472732678988,0.101472732678988,0.254968688545024,0.542085846097001
"stimuli/m2.jpg","stimuli/m5.jpg",1,"stimuli/Kitchen & utensil.png","stimuli/Hand labour tool & accessory.png","stimuli/Electronic device & accessory.png","stimuli/Outdoor activity & sport item.png",3,0,2,"stimuli/m2.jpg","Electronic device & accessory","stimuli/objects/phonejack.jpg",1,4,0,1.059,24,4,"Outdoor activity & sport item",NA,0.525732400282943,0.862537032688711,NA,0.0755842695280977,-0.137462967311289,NA,0.0755842695280977,-0.137462967311289,NA,0.323099060660862,-0.587611098066134,0.640381873959734,NA,0.119872708680089,0.119872708680089,0.119872708680089,0.640381873959734
"stimuli/m5.jpg","stimuli/m2.jpg",2,"stimuli/Hand labour tool & accessory.png","stimuli/Electronic device & accessory.png","stimuli/Kitchen & utensil.png","stimuli/Outdoor activity & sport item.png",4,1,2,"stimuli/m2.jpg","Outdoor activity & sport item","stimuli/objects/patioumbrella.jpg",1,1,0,1.119,25,1,"Hand labour tool & accessory",NA,0.289074943018318,-0.525732400282943,NA,0.0415601518855541,-0.0755842695280977,NA,0.0415601518855541,-0.0755842695280977,NA,0.627804753210574,0.676900939339138,0.101472732678988,NA,0.542085846097001,0.101472732678988,0.101472732678988,0.254968688545024
"stimuli/m5.jpg","stimuli/m2.jpg",1,"stimuli/Electronic device & accessory.png","stimuli/Outdoor activity & sport item.png","stimuli/Kitchen & utensil.png","stimuli/Hand labour tool & accessory.png",1,0,2,"stimuli/m5.jpg","Electronic device & accessory","stimuli/objects/wire.jpg",1,4,0,1.041,26,4,"Hand labour tool & accessory",NA,0.47300005795523,0.958439848114446,NA,0.270366718333148,-0.491708282640399,NA,0.097684825941063,-0.177656622455728,NA,0.158948397770559,-0.289074943018318,0.508076988563076,NA,0.0951066345155608,0.508076988563076,0.157843667365224,0.238972709556139
"stimuli/m2.jpg","stimuli/m5.jpg",2,"stimuli/Electronic device & accessory.png","stimuli/Kitchen & utensil.png","stimuli/Outdoor activity & sport item.png","stimuli/Hand labour tool & accessory.png",2,0,2,"stimuli/m5.jpg","Kitchen & utensil","stimuli/objects/cowbell.jpg",1,1,0,1.104,27,1,"Electronic device & accessory",NA,0.26007996601975,-0.47300005795523,NA,0.14866164545716,-0.270366718333148,NA,0.503860314895426,0.902315174058937,NA,0.0873980736276641,-0.158948397770559,0.493015121154516,NA,0.493015121154516,0.231888398818551,0.121932064906256,0.153164415120678
"stimuli/m5.jpg","stimuli/m2.jpg",2,"stimuli/Outdoor activity & sport item.png","stimuli/Hand labour tool & accessory.png","stimuli/Kitchen & utensil.png","stimuli/Electronic device & accessory.png",1,1,2,"stimuli/m2.jpg","Outdoor activity & sport item","stimuli/objects/baseball01a.jpg",1,1,1,0.738,28,1,"Outdoor activity & sport item",NA,0.158948397770559,-0.289074943018318,NA,0.0228519272003845,-0.0415601518855541,NA,0.0228519272003845,-0.0415601518855541,NA,0.795347747828672,0.372195246789426,0.662699855892868,NA,0.187810258005829,0.0747449430506516,0.0747449430506516,0.662699855892868
"stimuli/m2.jpg","stimuli/m5.jpg",1,"stimuli/Electronic device & accessory.png","stimuli/Hand labour tool & accessory.png","stimuli/Kitchen & utensil.png","stimuli/Outdoor activity & sport item.png",4,1,2,"stimuli/m2.jpg","Outdoor activity & sport item","stimuli/objects/bikehelmet.jpg",1,4,1,0.978,29,4,"Outdoor activity & sport item",NA,0.0873980736276641,-0.158948397770559,NA,0.0125651748869856,-0.0228519272003845,NA,0.0125651748869856,-0.0228519272003845,NA,0.887471576598365,0.204652252171328,0.828946039599769,NA,0.0775728957062717,0.0467405323469795,0.0467405323469795,0.828946039599769
"stimuli/m2.jpg","stimuli/m5.jpg",1,"stimuli/Electronic device & accessory.png","stimuli/Outdoor activity & sport item.png","stimuli/Hand labour tool & accessory.png","stimuli/Kitchen & utensil.png",2,1,2,"stimuli/m2.jpg","Outdoor activity & sport item","stimuli/objects/canoepaddle02.jpg",1,2,1,0.954,30,2,"Outdoor activity & sport item",NA,0.0480559941525968,-0.0873980736276641,NA,0.00690898489900131,-0.0125651748869856,NA,0.00690898489900131,-0.0125651748869856,NA,0.938126036049401,0.112528423401635,0.886595100400929,NA,0.0451138688630854,0.034145515367993,0.034145515367993,0.886595100400929
"stimuli/m5.jpg","stimuli/m2.jpg",1,"stimuli/Electronic device & accessory.png","stimuli/Outdoor activity & sport item.png","stimuli/Hand labour tool & accessory.png","stimuli/Kitchen & utensil.png",3,1,2,"stimuli/m5.jpg","Hand labour tool & accessory","stimuli/objects/leafrake.jpg",1,1,0,0.583,31,1,"Electronic device & accessory",NA,0.143005455469176,-0.26007996601975,NA,0.531890014394525,0.85133835454284,NA,0.277048535983702,-0.503860314895426,NA,0.0480559941525968,-0.0873980736276641,0.214393259442891,NA,0.214393259442891,0.141608715035722,0.531265293055933,0.112732732465455
"stimuli/m2.jpg","stimuli/m5.jpg",2,"stimuli/Kitchen & utensil.png","stimuli/Hand labour tool & accessory.png","stimuli/Outdoor activity & sport item.png","stimuli/Electronic device & accessory.png",2,1,2,"stimuli/m5.jpg","Hand labour tool & accessory","stimuli/objects/lawnmower.jpg",1,2,1,1.262,32,2,"Hand labour tool & accessory",NA,0.078631817001981,-0.143005455469176,NA,0.742608849402507,0.468109985605475,NA,0.152335655382272,-0.277048535983702,NA,0.0264236782132396,-0.0480559941525968,0.55942800639837,NA,0.131542302950218,0.55942800639837,0.216651767963276,0.092377922688135
"stimuli/m5.jpg","stimuli/m2.jpg",2,"stimuli/Kitchen & utensil.png","stimuli/Outdoor activity & sport item.png","stimuli/Hand labour tool & accessory.png","stimuli/Electronic device & accessory.png",2,1,2,"stimuli/m2.jpg","Outdoor activity & sport item","stimuli/objects/reflector.jpg",1,2,1,1.416,33,2,"Outdoor activity & sport item",NA,0.0264236782132396,-0.0480559941525968,NA,0.00379891826130242,-0.00690898489900131,NA,0.00379891826130242,-0.00690898489900131,NA,0.965978485264156,0.0618739639505994,0.910034107565009,NA,0.0331247159448226,0.0284205882450842,0.0284205882450842,0.910034107565009
"stimuli/m2.jpg","stimuli/m5.jpg",1,"stimuli/Outdoor activity & sport item.png","stimuli/Kitchen & utensil.png","stimuli/Hand labour tool & accessory.png","stimuli/Electronic device & accessory.png",2,0,2,"stimuli/m2.jpg","Kitchen & utensil","stimuli/objects/fryingpan02a.jpg",1,1,0,0.45,34,1,"Outdoor activity & sport item",NA,0.0145291088578823,-0.0264236782132396,NA,0.00208884230708669,-0.00379891826130242,NA,0.452236973061932,0.996201081738698,NA,0.531145075773099,-0.965978485264156,0.920863884667046,NA,0.0278799407344068,0.0256280872992737,0.0256280872992737,0.920863884667046
"stimuli/m2.jpg","stimuli/m5.jpg",1,"stimuli/Electronic device & accessory.png","stimuli/Hand labour tool & accessory.png","stimuli/Outdoor activity & sport item.png","stimuli/Kitchen & utensil.png",4,0,2,"stimuli/m2.jpg","Kitchen & utensil","stimuli/objects/muffintray01.jpg",1,4,1,1.046,35,4,"Kitchen & utensil",NA,0.00798885766397289,-0.0145291088578823,NA,0.00114855384710998,-0.00208884230708669,NA,0.698811475734719,0.547763026938068,NA,0.292051112754198,-0.531145075773099,0.367016922556642,NA,0.0719579144748424,0.0687016832101361,0.367016922556642,0.49232347975838
"stimuli/m5.jpg","stimuli/m2.jpg",1,"stimuli/Kitchen & utensil.png","stimuli/Outdoor activity & sport item.png","stimuli/Hand labour tool & accessory.png","stimuli/Electronic device & accessory.png",3,1,2,"stimuli/m5.jpg","Hand labour tool & accessory","stimuli/objects/pliers02b.jpg",1,3,1,1.069,36,3,"Hand labour tool & accessory",NA,0.0432358515606822,-0.078631817001981,NA,0.858472994716807,0.257391150597493,NA,0.0837620448646282,-0.152335655382272,NA,0.0145291088578823,-0.0264236782132396,0.790454754298191,NA,0.0667541254902166,0.790454754298191,0.087827242893404,0.0549638773181887
"stimuli/m2.jpg","stimuli/m5.jpg",2,"stimuli/Outdoor activity & sport item.png","stimuli/Electronic device & accessory.png","stimuli/Hand labour tool & accessory.png","stimuli/Kitchen & utensil.png",2,0,2,"stimuli/m5.jpg","Electronic device & accessory","stimuli/objects/papershredder.jpg",1,2,1,0.954,37,2,"Electronic device & accessory",NA,0.473921444553892,0.956764148439318,NA,0.472032980841522,-0.858472994716807,NA,0.0460567169406123,-0.0837620448646282,NA,0.00798885766397289,-0.0145291088578823,0.0419198391087737,NA,0.0419198391087737,0.87166320418047,0.0487455621757222,0.037671394535034
"stimuli/m5.jpg","stimuli/m2.jpg",2,"stimuli/Electronic device & accessory.png","stimuli/Outdoor activity & sport item.png","stimuli/Kitchen & utensil.png","stimuli/Hand labour tool & accessory.png",2,1,2,"stimuli/m2.jpg","Outdoor activity & sport item","stimuli/objects/boatmotor.jpg",1,3,0,1.099,38,3,"Kitchen & utensil",NA,0.00439268831966897,-0.00798885766397289,NA,0.000631534479762134,-0.00114855384710998,NA,0.384242796182701,-0.698811475734719,NA,0.610732981017868,0.707948887245802,0.729438735187319,NA,0.0557430582211246,0.0543416243584332,0.729438735187319,0.160476582233123
"stimuli/m2.jpg","stimuli/m5.jpg",2,"stimuli/Hand labour tool & accessory.png","stimuli/Outdoor activity & sport item.png","stimuli/Kitchen & utensil.png","stimuli/Electronic device & accessory.png",1,1,2,"stimuli/m5.jpg","Hand labour tool & accessory","stimuli/objects/drillbit03a.jpg",1,1,1,0.653,39,1,"Hand labour tool & accessory",NA,0.260586592163322,-0.473921444553892,NA,0.709696347615919,0.527967019158478,NA,0.0253243719010907,-0.0460567169406123,NA,0.00439268831966897,-0.00798885766397289,0.418476481085026,NA,0.421428579541535,0.418476481085026,0.0857095232946561,0.0743854160787833
"stimuli/m2.jpg","stimuli/m5.jpg",1,"stimuli/Hand labour tool & accessory.png","stimuli/Electronic device & accessory.png","stimuli/Outdoor activity & sport item.png","stimuli/Kitchen & utensil.png",3,1,2,"stimuli/m2.jpg","Outdoor activity & sport item","stimuli/objects/lifesaver.jpg",1,3,1,0.596,40,3,"Outdoor activity & sport item",NA,0.00241532788358134,-0.00439268831966897,NA,0.000347250414189976,-0.000631534479762134,NA,0.211276619725043,-0.384242796182701,NA,0.785960801977186,0.389267018982132,0.610410141752138,NA,0.0638850990542389,0.0629969050904182,0.262707854103205,0.610410141752138
"stimuli/m5.jpg","stimuli/m2.jpg",1,"stimuli/Electronic device & accessory.png","stimuli/Kitchen & utensil.png","stimuli/Outdoor activity & sport item.png","stimuli/Hand labour tool & accessory.png",4,1,2,"stimuli/m5.jpg","Hand labour tool & accessory","stimuli/objects/tape02a.jpg",1,1,0,0.56,41,1,"Electronic device & accessory",NA,0.143284024801227,-0.260586592163322,NA,0.840375994087917,0.290303652384081,NA,0.0139246532272742,-0.0253243719010907,NA,0.00241532788358134,-0.00439268831966897,0.140381311220447,NA,0.140381311220447,0.74704944520579,0.0584762559436307,0.0540929876301325
"stimuli/m2.jpg","stimuli/m5.jpg",1,"stimuli/Hand labour tool & accessory.png","stimuli/Kitchen & utensil.png","stimuli/Electronic device & accessory.png","stimuli/Outdoor activity & sport item.png",4,1,2,"stimuli/m2.jpg","Outdoor activity & sport item","stimuli/objects/ellipticalmachine.jpg",1,2,0,0.838,42,2,"Kitchen & utensil",NA,0.00132807255162715,-0.00241532788358134,NA,0.000190936289338512,-0.000347250414189976,NA,0.116170844283613,-0.211276619725043,NA,0.882310146875422,0.214039198022814,0.0960769617815493,NA,0.0441539750335211,0.0438153728028939,0.0960769617815493,0.815953690382036
"stimuli/m2.jpg","stimuli/m5.jpg",2,"stimuli/Kitchen & utensil.png","stimuli/Electronic device & accessory.png","stimuli/Hand labour tool & accessory.png","stimuli/Outdoor activity & sport item.png",3,1,2,"stimuli/m5.jpg","Hand labour tool & accessory","stimuli/objects/wheelbarrow01.jpg",1,3,1,0.606,43,3,"Hand labour tool & accessory",NA,0.0787849888699239,-0.143284024801227,NA,0.912230441972842,0.159624005912083,NA,0.00765649660560728,-0.0139246532272742,NA,0.00132807255162715,-0.00241532788358134,0.858388909916858,NA,0.0640841909762689,0.858388909916858,0.0395936818963796,0.0379332172104938
"stimuli/m5.jpg","stimuli/m2.jpg",2,"stimuli/Electronic device & accessory.png","stimuli/Hand labour tool & accessory.png","stimuli/Kitchen & utensil.png","stimuli/Outdoor activity & sport item.png",1,0,2,"stimuli/m2.jpg","Electronic device & accessory","stimuli/objects/scanner.jpg",1,4,0,1.105,44,4,"Outdoor activity & sport item",NA,0.450878373929851,0.998671927448373,NA,0.000104986675599515,-0.000190936289338512,NA,0.0638767558811322,-0.116170844283613,NA,0.485139883513418,-0.882310146875422,0.882705846557248,NA,0.0332355056917217,0.0330951210024204,0.0509635267486103,0.882705846557248
"stimuli/m2.jpg","stimuli/m5.jpg",2,"stimuli/Hand labour tool & accessory.png","stimuli/Outdoor activity & sport item.png","stimuli/Electronic device & accessory.png","stimuli/Kitchen & utensil.png",1,1,2,"stimuli/m5.jpg","Hand labour tool & accessory","stimuli/objects/boltcutter.jpg",1,1,1,0.552,45,1,"Hand labour tool & accessory",NA,0.0433200733985864,-0.0787849888699239,NA,0.951739744455946,0.0877695580271584,NA,0.00420993897046235,-0.00765649660560728,NA,0.000730243175005368,-0.00132807255162715,0.898383816112609,NA,0.0403735451342406,0.898383816112609,0.0309819753858388,0.0302606633673117
"stimuli/m5.jpg","stimuli/m2.jpg",1,"stimuli/Kitchen & utensil.png","stimuli/Hand labour tool & accessory.png","stimuli/Outdoor activity & sport item.png","stimuli/Electronic device & accessory.png",2,1,2,"stimuli/m5.jpg","Hand labour tool & accessory","stimuli/objects/gluetube.jpg",1,2,1,0.651,46,2,"Hand labour tool & accessory",NA,0.02381962333405,-0.0433200733985864,NA,0.973464008278853,0.0482602555440541,NA,0.00231484281231674,-0.00420993897046235,NA,0.000401525574780218,-0.000730243175005368,0.915416835247706,NA,0.0311206744788271,0.915416835247706,0.0269043655096948,0.0265581247637722
"stimuli/m5.jpg","stimuli/m2.jpg",2,"stimuli/Kitchen & utensil.png","stimuli/Hand labour tool & accessory.png","stimuli/Electronic device & accessory.png","stimuli/Outdoor activity & sport item.png",4,1,2,"stimuli/m2.jpg","Outdoor activity & sport item","stimuli/objects/volleyball.jpg",1,3,0,0.758,47,3,"Electronic device & accessory",NA,0.247916316707544,-0.450878373929851,NA,5.77271198242279e-05,-0.000104986675599515,NA,0.035122753622557,-0.0638767558811322,NA,0.716903202550075,0.514860116486582,0.39069059391661,NA,0.39069059391661,0.0729631274680562,0.0925120261617772,0.443834252453557
"stimuli/m2.jpg","stimuli/m5.jpg",1,"stimuli/Hand labour tool & accessory.png","stimuli/Kitchen & utensil.png","stimuli/Outdoor activity & sport item.png","stimuli/Electronic device & accessory.png",3,1,2,"stimuli/m2.jpg","Outdoor activity & sport item","stimuli/objects/sportbag.jpg",1,3,1,1.592,48,3,"Outdoor activity & sport item",NA,0.136317250158017,-0.247916316707544,NA,3.17413647414907e-05,-5.77271198242279e-05,NA,0.0193123117324,-0.035122753622557,NA,0.844338696744842,0.283096797449925,0.755908634752384,NA,0.131915393166663,0.0524326961942318,0.0597432758867209,0.755908634752384
"stimuli/m5.jpg","stimuli/m2.jpg",2,"stimuli/Electronic device & accessory.png","stimuli/Outdoor activity & sport item.png","stimuli/Hand labour tool & accessory.png","stimuli/Kitchen & utensil.png",2,1,2,"stimuli/m2.jpg","Outdoor activity & sport item","stimuli/objects/hockeygoaliemask.jpg",1,2,1,0.601,49,2,"Outdoor activity & sport item",NA,0.074954294809745,-0.136317250158017,NA,1.74530487355009e-05,-3.17413647414907e-05,NA,0.0106189107055053,-0.0193123117324,NA,0.914409341436014,0.155661303255158,0.861170416084844,NA,0.0617286945482644,0.0371676532185248,0.0399332361483664,0.861170416084844
"stimuli/m2.jpg","stimuli/m5.jpg",2,"stimuli/Kitchen & utensil.png","stimuli/Outdoor activity & sport item.png","stimuli/Electronic device & accessory.png","stimuli/Hand labour tool & accessory.png",4,1,2,"stimuli/m5.jpg","Hand labour tool & accessory","stimuli/objects/pressurewasher.jpg",1,4,1,0.832,50,4,"Hand labour tool & accessory",NA,0.0130972644149429,-0.02381962333405,NA,0.985409135349853,0.026535991721147,NA,0.00127282064736107,-0.00231484281231674,NA,0.000220779587842638,-0.000401525574780218,0.923529837769951,NA,0.0269299978078928,0.923529837769951,0.0248582898871822,0.0246818745349742
"stimuli/m2.jpg","stimuli/m5.jpg",2,"stimuli/Hand labour tool & accessory.png","stimuli/Kitchen & utensil.png","stimuli/Outdoor activity & sport item.png","stimuli/Electronic device & accessory.png",1,1,2,"stimuli/m5.jpg","Hand labour tool & accessory","stimuli/objects/saw02b.jpg",1,1,1,0.78,51,1,"Hand labour tool & accessory",NA,0.00720155532055441,-0.0130972644149429,NA,0.991977185798214,0.0145908646501466,NA,0.000699862812165314,-0.00127282064736107,NA,0.00012139606906645,-0.000220779587842638,0.927650014465779,NA,0.0248613563785671,0.927650014465779,0.0237908073622301,0.023697821793424
"stimuli/m5.jpg","stimuli/m2.jpg",2,"stimuli/Kitchen & utensil.png","stimuli/Hand labour tool & accessory.png","stimuli/Outdoor activity & sport item.png","stimuli/Electronic device & accessory.png",2,0,2,"stimuli/m2.jpg","Hand labour tool & accessory","stimuli/objects/sewingmachine01a.jpg",1,3,0,1.148,52,3,"Outdoor activity & sport item",NA,0.0412137591090907,-0.074954294809745,NA,0.450157727346316,0.999982546951265,NA,0.00583882790076945,-0.0106189107055053,NA,0.502789685643823,-0.914409341436014,0.899457020124745,NA,0.0395275730055675,0.0299058198114749,0.0311095870582127,0.899457020124745
"stimuli/m5.jpg","stimuli/m2.jpg",1,"stimuli/Outdoor activity & sport item.png","stimuli/Hand labour tool & accessory.png","stimuli/Kitchen & utensil.png","stimuli/Electronic device & accessory.png",2,1,2,"stimuli/m5.jpg","Hand labour tool & accessory","stimuli/objects/wheel01.jpg",1,2,1,0.641,53,2,"Hand labour tool & accessory",NA,0.00395978865447923,-0.00720155532055441,NA,0.995588640614541,0.00802281420178619,NA,0.000384820875484269,-0.000699862812165314,NA,6.67498554952012e-05,-0.00012139606906645,0.929818428987819,NA,0.0237897371395661,0.929818428987819,0.0232208906746337,0.0231709431979811
"stimuli/m5.jpg","stimuli/m2.jpg",1,"stimuli/Electronic device & accessory.png","stimuli/Hand labour tool & accessory.png","stimuli/Kitchen & utensil.png","stimuli/Outdoor activity & sport item.png",2,1,2,"stimuli/m5.jpg","Hand labour tool & accessory","stimuli/objects/puttyknife.jpg",1,2,1,0.675,54,2,"Hand labour tool & accessory",NA,0.00217729719348116,-0.00395978865447923,NA,0.997574405795993,0.00441135938545867,NA,0.000211594477709582,-0.000384820875484269,NA,3.67025328158803e-05,-6.67498554952012e-05,0.930982343170829,NA,0.023219554316717,0.930982343170829,0.0229126073737135,0.0228854951387403
"stimuli/m5.jpg","stimuli/m2.jpg",1,"stimuli/Outdoor activity & sport item.png","stimuli/Hand labour tool & accessory.png","stimuli/Electronic device & accessory.png","stimuli/Kitchen & utensil.png",1,0,2,"stimuli/m5.jpg","Outdoor activity & sport item","stimuli/objects/treadmill.jpg",1,2,0,0.445,55,2,"Hand labour tool & accessory",NA,0.00119719093173785,-0.00217729719348116,NA,0.548518151738052,-0.997574405795993,NA,0.000116345619090566,-0.000211594477709582,NA,0.45016831171112,0.999963297467184,0.931613895166329,NA,0.0229116597721635,0.931613895166329,0.0227446237111246,0.0227298213503829
"stimuli/m2.jpg","stimuli/m5.jpg",1,"stimuli/Outdoor activity & sport item.png","stimuli/Electronic device & accessory.png","stimuli/Kitchen & utensil.png","stimuli/Hand labour tool & accessory.png",1,1,2,"stimuli/m2.jpg","Outdoor activity & sport item","stimuli/objects/exercisebike.jpg",1,4,0,1.569,56,4,"Hand labour tool & accessory",NA,0.022661462484753,-0.0412137591090907,NA,0.247520067836523,-0.450157727346316,NA,0.00321049043543885,-0.00583882790076945,NA,0.726607979243285,0.497210314356177,0.380815826318593,NA,0.0831012913145784,0.380815826318593,0.0728483856643074,0.463234496702521
"stimuli/m5.jpg","stimuli/m2.jpg",2,"stimuli/Hand labour tool & accessory.png","stimuli/Outdoor activity & sport item.png","stimuli/Kitchen & utensil.png","stimuli/Electronic device & accessory.png",2,1,2,"stimuli/m2.jpg","Outdoor activity & sport item","stimuli/objects/bikelock.jpg",1,2,1,0.824,57,2,"Outdoor activity & sport item",NA,0.0124604475070704,-0.022661462484753,NA,0.1360993719756,-0.247520067836523,NA,0.00176529416711974,-0.00321049043543885,NA,0.84967488635021,0.273392020756715,0.76421014649751,NA,0.0556158277401917,0.128442705256434,0.0517313205058638,0.76421014649751
"stimuli/m5.jpg","stimuli/m2.jpg",2,"stimuli/Outdoor activity & sport item.png","stimuli/Electronic device & accessory.png","stimuli/Hand labour tool & accessory.png","stimuli/Kitchen & utensil.png",1,1,2,"stimuli/m2.jpg","Outdoor activity & sport item","stimuli/objects/bikepump01.jpg",1,1,1,1.024,58,1,"Outdoor activity & sport item",NA,0.00685140035339379,-0.0124604475070704,NA,0.0748344940838751,-0.1360993719756,NA,0.000970650297558358,-0.00176529416711974,NA,0.917343455265173,0.15032511364979,0.864220647869055,NA,0.0382971613470622,0.0606797536100536,0.0368024371738291,0.864220647869055
"stimuli/m2.jpg","stimuli/m5.jpg",1,"stimuli/Hand labour tool & accessory.png","stimuli/Outdoor activity & sport item.png","stimuli/Electronic device & accessory.png","stimuli/Kitchen & utensil.png",2,1,2,"stimuli/m2.jpg","Outdoor activity & sport item","stimuli/objects/propanetank01.jpg",1,2,1,1.359,59,2,"Outdoor activity & sport item",NA,0.00376725529126049,-0.00685140035339379,NA,0.0411478864560342,-0.0748344940838751,NA,0.000533713880495829,-0.000970650297558358,NA,0.95455114437221,0.0826565447348272,0.900747768598677,NA,0.0303866653056288,0.0391368535970264,0.0297287124986681,0.900747768598677
"stimuli/m5.jpg","stimuli/m2.jpg",1,"stimuli/Outdoor activity & sport item.png","stimuli/Electronic device & accessory.png","stimuli/Kitchen & utensil.png","stimuli/Hand labour tool & accessory.png",4,1,2,"stimuli/m5.jpg","Hand labour tool & accessory","stimuli/objects/metalbrush.jpg",1,4,1,0.994,60,4,"Hand labour tool & accessory",NA,0.000658277671659403,-0.00119719093173785,NA,0.75175186180291,0.451481848261948,NA,6.39728561354324e-05,-0.000116345619090566,NA,0.247525887669295,-0.45016831171112,0.511860175917877,NA,0.0667330596516208,0.511860175917877,0.066465108890477,0.354941655540025
"stimuli/m2.jpg","stimuli/m5.jpg",1,"stimuli/Kitchen & utensil.png","stimuli/Hand labour tool & accessory.png","stimuli/Outdoor activity & sport item.png","stimuli/Electronic device & accessory.png",2,0,2,"stimuli/m2.jpg","Hand labour tool & accessory","stimuli/objects/bungeecord02.jpg",1,3,0,1.002,61,3,"Outdoor activity & sport item",NA,0.00207143236382328,-0.00376725529126049,NA,0.472773373038183,0.958852113543966,NA,0.000293463574832717,-0.000533713880495829,NA,0.524861731023161,-0.95455114437221,0.91650897367671,NA,0.0266121499866151,0.0305851249037241,0.0262937514329507,0.91650897367671
"stimuli/m2.jpg","stimuli/m5.jpg",2,"stimuli/Outdoor activity & sport item.png","stimuli/Hand labour tool & accessory.png","stimuli/Kitchen & utensil.png","stimuli/Electronic device & accessory.png",2,1,2,"stimuli/m5.jpg","Hand labour tool & accessory","stimuli/objects/weedwacker.jpg",1,2,1,0.702,62,2,"Hand labour tool & accessory",NA,0.000361955208244271,-0.000658277671659403,NA,0.863500297175701,0.24824813819709,NA,3.51755945270189e-05,-6.39728561354324e-05,NA,0.136102572021528,-0.247525887669295,0.784285111370303,NA,0.0478895392900045,0.784285111370303,0.0477837130431996,0.120041636296493
"stimuli/m5.jpg","stimuli/m2.jpg",2,"stimuli/Electronic device & accessory.png","stimuli/Kitchen & utensil.png","stimuli/Outdoor activity & sport item.png","stimuli/Hand labour tool & accessory.png",3,1,2,"stimuli/m2.jpg","Outdoor activity & sport item","stimuli/objects/toyhockeystick01.jpg",1,3,1,0.744,63,3,"Outdoor activity & sport item",NA,0.00113898095726314,-0.00207143236382328,NA,0.259955322894382,-0.472773373038183,NA,0.000161361495177135,-0.000293463574832717,NA,0.738744334653178,0.475138268976839,0.4742751415761,NA,0.067744934971533,0.390681865874157,0.06729805757821,0.4742751415761
"stimuli/m2.jpg","stimuli/m5.jpg",2,"stimuli/Outdoor activity & sport item.png","stimuli/Electronic device & accessory.png","stimuli/Kitchen & utensil.png","stimuli/Hand labour tool & accessory.png",4,1,2,"stimuli/m5.jpg","Hand labour tool & accessory","stimuli/objects/hedgeshears.jpg",1,4,1,1.11,64,4,"Hand labour tool & accessory",NA,0.000199021747836132,-0.000361955208244271,NA,0.924945383250651,0.136499702824299,NA,1.9341366402491e-05,-3.51755945270189e-05,NA,0.0748362536351105,-0.136102572021528,0.871749556280138,NA,0.0350771715819277,0.871749556280138,0.0350345294225188,0.0581387427154153
"stimuli/m2.jpg","stimuli/m5.jpg",2,"stimuli/Electronic device & accessory.png","stimuli/Hand labour tool & accessory.png","stimuli/Kitchen & utensil.png","stimuli/Outdoor activity & sport item.png",2,1,2,"stimuli/m5.jpg","Hand labour tool & accessory","stimuli/objects/caulking.jpg",1,2,1,0.664,65,2,"Hand labour tool & accessory",NA,0.000109432480068135,-0.000199021747836132,NA,0.958731078684892,0.0750546167493491,NA,1.06348864701651e-05,-1.9341366402491e-05,NA,0.04114885394857,-0.0748362536351105,0.903996380394479,NA,0.0289202960377495,0.903996380394479,0.0289009593561837,0.0381823642115877
"stimuli/m5.jpg","stimuli/m2.jpg",2,"stimuli/Electronic device & accessory.png","stimuli/Kitchen & utensil.png","stimuli/Hand labour tool & accessory.png","stimuli/Outdoor activity & sport item.png",4,1,2,"stimuli/m2.jpg","Outdoor activity & sport item","stimuli/objects/soccerball.jpg",1,4,1,0.848,66,4,"Outdoor activity & sport item",NA,0.000626270808385774,-0.00113898095726314,NA,0.142936920213704,-0.259955322894382,NA,8.87249197473405e-05,-0.000161361495177135,NA,0.856348084058163,0.261255665346822,0.77134465865847,NA,0.0495245474009901,0.129786143635851,0.0493446503046887,0.77134465865847
"stimuli/m5.jpg","stimuli/m2.jpg",1,"stimuli/Hand labour tool & accessory.png","stimuli/Electronic device & accessory.png","stimuli/Kitchen & utensil.png","stimuli/Outdoor activity & sport item.png",1,1,2,"stimuli/m5.jpg","Hand labour tool & accessory","stimuli/objects/axe01.jpg",1,1,1,0.76,67,1,"Hand labour tool & accessory",NA,6.01716537215971e-05,-0.000109432480068135,NA,0.977308206473157,0.0412689213151083,NA,5.84761220483028e-06,-1.06348864701651e-05,NA,0.0226257742609171,-0.04114885394857,0.918063808941291,NA,0.025890797571573,0.918063808941291,0.0258812775985249,0.0301641158886117
"stimuli/m2.jpg","stimuli/m5.jpg",2,"stimuli/Outdoor activity & sport item.png","stimuli/Hand labour tool & accessory.png","stimuli/Electronic device & accessory.png","stimuli/Kitchen & utensil.png",4,1,3,"stimuli/m5.jpg","Kitchen & utensil","stimuli/objects/toothpick02.jpg",1,3,0,0.768,69,3,"Electronic device & accessory",NA,3.30854962743923e-05,-6.01716537215971e-05,NA,0.537374744157895,-0.977308206473157,NA,0.450151346075347,0.999994152387795,NA,0.0124408242704842,-0.0226257742609171,0.0243354630240108,NA,0.0243354630240108,0.924866085624943,0.0243305424977264,0.0264679088533199
"stimuli/m5.jpg","stimuli/m2.jpg",1,"stimuli/Electronic device & accessory.png","stimuli/Kitchen & utensil.png","stimuli/Outdoor activity & sport item.png","stimuli/Hand labour tool & accessory.png",2,1,3,"stimuli/m5.jpg","Kitchen & utensil","stimuli/objects/woodenspoon.jpg",1,2,1,0.835,70,2,"Kitchen & utensil",NA,1.81921219713782e-05,-3.30854962743923e-05,NA,0.295476507560355,-0.537374744157895,NA,0.697664689837597,0.549848653924653,NA,0.00684061048007621,-0.0124408242704842,0.361420661011341,NA,0.0676616450903213,0.500057692252718,0.361420661011341,0.0708600016456195
"stimuli/m5.jpg","stimuli/m2.jpg",1,"stimuli/Hand labour tool & accessory.png","stimuli/Kitchen & utensil.png","stimuli/Electronic device & accessory.png","stimuli/Outdoor activity & sport item.png",4,0,3,"stimuli/m5.jpg","Outdoor activity & sport item","stimuli/objects/baseballbat.jpg",1,2,0,0.527,71,2,"Kitchen & utensil",NA,1.00029722714982e-05,-1.81921219713782e-05,NA,0.162468310000091,-0.295476507560355,NA,0.383612233813544,-0.697664689837597,NA,0.453909453214093,0.993159389519924,0.727432746814438,NA,0.0541954957913039,0.162782297397141,0.727432746814438,0.0555894599971169
"stimuli/m5.jpg","stimuli/m2.jpg",1,"stimuli/Electronic device & accessory.png","stimuli/Outdoor activity & sport item.png","stimuli/Hand labour tool & accessory.png","stimuli/Kitchen & utensil.png",4,1,3,"stimuli/m5.jpg","Kitchen & utensil","stimuli/objects/gravyboat.jpg",1,2,0,0.896,72,2,"Outdoor activity & sport item",NA,5.50015300149072e-06,-1.00029722714982e-05,NA,0.0893335039466516,-0.162468310000091,NA,0.661078034582532,0.616387766186456,NA,0.249582961317815,-0.453909453214093,0.436242451320065,NA,0.0805275995042527,0.147427393831541,0.335802555344141,0.436242451320065
"stimuli/m2.jpg","stimuli/m5.jpg",1,"stimuli/Hand labour tool & accessory.png","stimuli/Electronic device & accessory.png","stimuli/Outdoor activity & sport item.png","stimuli/Kitchen & utensil.png",2,1,3,"stimuli/m2.jpg","Electronic device & accessory","stimuli/objects/videocamera01a.jpg",1,3,0,0.975,73,3,"Outdoor activity & sport item",NA,0.45049248692949,0.999373729191614,NA,0.0785941327636505,-0.142936920213704,NA,4.87855629717015e-05,-8.87249197473405e-05,NA,0.470864594743888,-0.856348084058163,0.867376749494419,NA,0.0358781731308909,0.0609386234070623,0.0358064539676276,0.867376749494419
"stimuli/m2.jpg","stimuli/m5.jpg",2,"stimuli/Hand labour tool & accessory.png","stimuli/Kitchen & utensil.png","stimuli/Electronic device & accessory.png","stimuli/Outdoor activity & sport item.png",2,1,3,"stimuli/m5.jpg","Kitchen & utensil","stimuli/objects/coffeepot03a.jpg",1,2,1,0.707,74,2,"Kitchen & utensil",NA,3.02426940900402e-06,-5.50015300149072e-06,NA,0.0491201941312858,-0.0893335039466516,NA,0.813643123786963,0.338921965417468,NA,0.137233657812342,-0.249582961317815,0.703943505329379,NA,0.0600944510566488,0.0837999689359767,0.703943505329379,0.152162074677996
"stimuli/m5.jpg","stimuli/m2.jpg",2,"stimuli/Electronic device & accessory.png","stimuli/Kitchen & utensil.png","stimuli/Hand labour tool & accessory.png","stimuli/Outdoor activity & sport item.png",1,1,3,"stimuli/m2.jpg","Electronic device & accessory","stimuli/objects/filmnegative.jpg",1,1,1,0.913,75,1,"Electronic device & accessory",NA,0.697852266773924,0.54950751307051,NA,0.0432151308117951,-0.0785941327636505,NA,2.68248329921673e-05,-4.87855629717015e-05,NA,0.258905777581289,-0.470864594743888,0.397416613207155,NA,0.397416613207155,0.0995468453685702,0.0743103797404313,0.428726161683844
"stimuli/m2.jpg","stimuli/m5.jpg",2,"stimuli/Outdoor activity & sport item.png","stimuli/Hand labour tool & accessory.png","stimuli/Kitchen & utensil.png","stimuli/Electronic device & accessory.png",3,1,3,"stimuli/m5.jpg","Kitchen & utensil","stimuli/objects/dishrack.jpg",1,3,1,0.902,76,3,"Kitchen & utensil",NA,1.6629001876418e-06,-3.02426940900402e-06,NA,0.0270088305607724,-0.0491201941312858,NA,0.897531323267574,0.186356876213037,NA,0.0754581832714661,-0.137233657812342,0.842393533185883,NA,0.0407537645043613,0.0489295877807321,0.842393533185883,0.0679231145290235
"stimuli/m5.jpg","stimuli/m2.jpg",2,"stimuli/Kitchen & utensil.png","stimuli/Outdoor activity & sport item.png","stimuli/Hand labour tool & accessory.png","stimuli/Electronic device & accessory.png",2,0,3,"stimuli/m2.jpg","Outdoor activity & sport item","stimuli/objects/catchermask.jpg",1,1,0,0.891,77,1,"Kitchen & utensil",NA,0.38371537334261,-0.697852266773924,NA,0.0237619204565394,-0.0432151308117951,NA,1.47496845629323e-05,-2.68248329921673e-05,NA,0.592507956516287,0.741094222418711,0.0548636959170419,NA,0.736892268180619,0.0644323784279957,0.0548636959170419,0.143811657474343
"stimuli/m5.jpg","stimuli/m2.jpg",1,"stimuli/Outdoor activity & sport item.png","stimuli/Hand labour tool & accessory.png","stimuli/Kitchen & utensil.png","stimuli/Electronic device & accessory.png",3,1,3,"stimuli/m5.jpg","Kitchen & utensil","stimuli/objects/spatula04.jpg",1,3,1,0.761,78,3,"Kitchen & utensil",NA,9.14348776542963e-07,-1.6629001876418e-06,NA,0.0148508559699663,-0.0270088305607724,NA,0.943657406559598,0.102468676732426,NA,0.0414908231216591,-0.0754581832714661,0.891716393012312,NA,0.0315690760433418,0.0349077786196144,0.891716393012312,0.0418067523247316
"stimuli/m5.jpg","stimuli/m2.jpg",2,"stimuli/Kitchen & utensil.png","stimuli/Hand labour tool & accessory.png","stimuli/Electronic device & accessory.png","stimuli/Outdoor activity & sport item.png",2,0,3,"stimuli/m2.jpg","Hand labour tool & accessory","stimuli/objects/bucket02.jpg",1,1,0,0.938,79,1,"Kitchen & utensil",NA,0.210986615290537,-0.38371537334261,NA,0.463213667134728,0.976238079543461,NA,8.11014162770472e-06,-1.47496845629323e-05,NA,0.325791607433107,-0.592507956516287,0.0651942687778843,NA,0.271961686690907,0.0712196085884309,0.0651942687778843,0.591624435942778
"stimuli/m5.jpg","stimuli/m2.jpg",2,"stimuli/Outdoor activity & sport item.png","stimuli/Hand labour tool & accessory.png","stimuli/Electronic device & accessory.png","stimuli/Kitchen & utensil.png",3,1,3,"stimuli/m2.jpg","Electronic device & accessory","stimuli/objects/usbcable01a.jpg",1,1,0,1.483,80,1,"Outdoor activity & sport item",NA,0.566159515558055,0.789013384709463,NA,0.254698900733933,-0.463213667134728,NA,4.45937653383638e-06,-8.11014162770472e-06,NA,0.179137124331478,-0.325791607433107,0.276434970761067,NA,0.180300476873951,0.461054544151959,0.0822100082130236,0.276434970761067
"stimuli/m5.jpg","stimuli/m2.jpg",2,"stimuli/Kitchen & utensil.png","stimuli/Hand labour tool & accessory.png","stimuli/Outdoor activity & sport item.png","stimuli/Electronic device & accessory.png",4,1,3,"stimuli/m2.jpg","Electronic device & accessory","stimuli/objects/antenna.jpg",1,4,1,1.151,81,4,"Electronic device & accessory",NA,0.761451998675373,0.433840484441945,NA,0.140046666663239,-0.254698900733933,NA,2.45199652279791e-06,-4.45937653383638e-06,NA,0.0984988826648648,-0.179137124331478,0.598086557332183,NA,0.598086557332183,0.187607594774845,0.0726952696214285,0.141610578271544
"stimuli/m2.jpg","stimuli/m5.jpg",2,"stimuli/Electronic device & accessory.png","stimuli/Hand labour tool & accessory.png","stimuli/Kitchen & utensil.png","stimuli/Outdoor activity & sport item.png",1,0,3,"stimuli/m5.jpg","Electronic device & accessory","stimuli/objects/computerkeyboard02.jpg",1,3,0,1.047,82,3,"Kitchen & utensil",NA,0.450148633511229,0.999999085651223,NA,0.00816577091497656,-0.0148508559699663,NA,0.51887178892383,-0.943657406559598,NA,0.0228138066499643,-0.0414908231216591,0.912304199140333,NA,0.0272022740044339,0.028748284325028,0.912304199140333,0.0317452425302048
"stimuli/m2.jpg","stimuli/m5.jpg",1,"stimuli/Outdoor activity & sport item.png","stimuli/Hand labour tool & accessory.png","stimuli/Kitchen & utensil.png","stimuli/Electronic device & accessory.png",4,1,3,"stimuli/m2.jpg","Electronic device & accessory","stimuli/objects/ipad02.jpg",1,4,1,0.906,83,4,"Electronic device & accessory",NA,0.868833935566958,0.238548001324627,NA,0.0770049214463352,-0.140046666663239,NA,1.34823487144305e-06,-2.45199652279791e-06,NA,0.0541597947518351,-0.0984988826648648,0.804843989504497,NA,0.804843989504497,0.0796407030217861,0.0472864522892896,0.0682288551844277
"stimuli/m5.jpg","stimuli/m2.jpg",2,"stimuli/Outdoor activity & sport item.png","stimuli/Kitchen & utensil.png","stimuli/Hand labour tool & accessory.png","stimuli/Electronic device & accessory.png",4,1,3,"stimuli/m2.jpg","Electronic device & accessory","stimuli/objects/fanblades.jpg",1,4,1,1.269,84,4,"Electronic device & accessory",NA,0.927878094289962,0.131166064433042,NA,0.0423412999983437,-0.0770049214463352,NA,7.41329464244463e-07,-1.34823487144305e-06,NA,0.0297798643822304,-0.0541597947518351,0.877149384552135,NA,0.877149384552135,0.046024228674567,0.0345542094307349,0.0422721773425632
"stimuli/m2.jpg","stimuli/m5.jpg",1,"stimuli/Kitchen & utensil.png","stimuli/Hand labour tool & accessory.png","stimuli/Electronic device & accessory.png","stimuli/Outdoor activity & sport item.png",2,0,3,"stimuli/m2.jpg","Hand labour tool & accessory","stimuli/objects/pipewrench.jpg",1,2,1,0.843,85,2,"Hand labour tool & accessory",NA,0.510195504576967,-0.927878094289962,NA,0.473429573705204,0.957658700001656,NA,4.07621391641327e-07,-7.41329464244463e-07,NA,0.0163745140964366,-0.0297798643822304,0.0335325620830643,NA,0.905823749558805,0.0335325620830643,0.028642974788762,0.032000713569369
"stimuli/m5.jpg","stimuli/m2.jpg",2,"stimuli/Outdoor activity & sport item.png","stimuli/Electronic device & accessory.png","stimuli/Hand labour tool & accessory.png","stimuli/Kitchen & utensil.png",2,1,3,"stimuli/m2.jpg","Electronic device & accessory","stimuli/objects/payphone.jpg",1,2,1,0.915,86,2,"Electronic device & accessory",NA,0.730680082626966,0.489804495423033,NA,0.260316136057743,-0.473429573705204,NA,2.24131384138295e-07,-4.07621391641327e-07,NA,0.00900355718390681,-0.0163745140964366,0.458527820941757,NA,0.458527820941757,0.399879492794725,0.0686394541235538,0.0729532321399647
"stimuli/m5.jpg","stimuli/m2.jpg",1,"stimuli/Electronic device & accessory.png","stimuli/Hand labour tool & accessory.png","stimuli/Outdoor activity & sport item.png","stimuli/Kitchen & utensil.png",4,1,3,"stimuli/m5.jpg","Kitchen & utensil","stimuli/objects/martiniglass01b.jpg",1,4,1,1.088,87,4,"Kitchen & utensil",NA,0.247515067574301,-0.450148633511229,NA,0.00448996440142758,-0.00816577091497656,NA,0.73545075379319,0.48112821107617,NA,0.0125442142310804,-0.0228138066499643,0.480427506384988,NA,0.371987717452831,0.0717810866645957,0.480427506384988,0.0758036894975854
"stimuli/m2.jpg","stimuli/m5.jpg",1,"stimuli/Kitchen & utensil.png","stimuli/Outdoor activity & sport item.png","stimuli/Hand labour tool & accessory.png","stimuli/Electronic device & accessory.png",4,1,3,"stimuli/m2.jpg","Electronic device & accessory","stimuli/objects/satellitedish01.jpg",1,2,0,0.895,88,2,"Outdoor activity & sport item",NA,0.851913940007486,0.269319917373034,NA,0.143135314006026,-0.260316136057743,NA,1.23239060524945e-07,-2.24131384138295e-07,NA,0.0049506227474268,-0.00900355718390681,0.0521000435840006,NA,0.764742412917932,0.132774649068455,0.0503828944296123,0.0521000435840006
"stimuli/m5.jpg","stimuli/m2.jpg",2,"stimuli/Electronic device & accessory.png","stimuli/Hand labour tool & accessory.png","stimuli/Kitchen & utensil.png","stimuli/Outdoor activity & sport item.png",1,1,3,"stimuli/m2.jpg","Electronic device & accessory","stimuli/objects/electricoutlet.jpg",1,1,1,0.547,89,1,"Electronic device & accessory",NA,0.918574603103966,0.148086059992514,NA,0.0787032199612057,-0.143135314006026,NA,6.7763227793658e-08,-1.23239060524945e-07,NA,0.00272210917160021,-0.0049506227474268,0.864926531938301,NA,0.864926531938301,0.0618234359565521,0.0362875669015975,0.0369624652035496
"stimuli/m2.jpg","stimuli/m5.jpg",2,"stimuli/Hand labour tool & accessory.png","stimuli/Kitchen & utensil.png","stimuli/Outdoor activity & sport item.png","stimuli/Electronic device & accessory.png",2,1,3,"stimuli/m5.jpg","Kitchen & utensil","stimuli/objects/handmixer01d.jpg",1,2,1,0.93,90,2,"Kitchen & utensil",NA,0.13609662257207,-0.247515067574301,NA,0.00246881531896916,-0.00448996440142758,NA,0.854537102465789,0.26454924620681,NA,0.00689745964317125,-0.0125442142310804,0.771452041519039,NA,0.125459075447752,0.0507718175255414,0.771452041519039,0.0523170655076677
"stimuli/m2.jpg","stimuli/m5.jpg",2,"stimuli/Electronic device & accessory.png","stimuli/Hand labour tool & accessory.png","stimuli/Outdoor activity & sport item.png","stimuli/Kitchen & utensil.png",4,1,3,"stimuli/m5.jpg","Kitchen & utensil","stimuli/objects/pitcher02b.jpg",1,4,1,1.471,91,4,"Kitchen & utensil",NA,0.0748329823192053,-0.13609662257207,NA,0.00135748271795626,-0.00246881531896916,NA,0.920016953884998,0.145462897534211,NA,0.00379258107784073,-0.00689745964317125,0.866918528140027,NA,0.0597767985953635,0.03635023267247,0.866918528140027,0.0369544405921391
"stimuli/m2.jpg","stimuli/m5.jpg",1,"stimuli/Electronic device & accessory.png","stimuli/Outdoor activity & sport item.png","stimuli/Hand labour tool & accessory.png","stimuli/Kitchen & utensil.png",1,1,3,"stimuli/m2.jpg","Electronic device & accessory","stimuli/objects/nintendods.jpg",1,1,1,0.77,92,1,"Electronic device & accessory",NA,0.955228093312687,0.0814253968960337,NA,0.0432751126112816,-0.0787032199612057,NA,3.72597374684281e-08,-6.7763227793658e-08,NA,0.00149675681629375,-0.00272210917160021,0.901159443107193,NA,0.901159443107193,0.0395410605471289,0.0294995357659604,0.0297999605797175
"stimuli/m2.jpg","stimuli/m5.jpg",2,"stimuli/Outdoor activity & sport item.png","stimuli/Electronic device & accessory.png","stimuli/Hand labour tool & accessory.png","stimuli/Kitchen & utensil.png",4,1,3,"stimuli/m5.jpg","Kitchen & utensil","stimuli/objects/shotglass.jpg",1,4,1,0.963,93,4,"Kitchen & utensil",NA,0.0411470552094046,-0.0748329823192053,NA,0.000746414409936245,-0.00135748271795626,NA,0.956021172585745,0.0799830461150023,NA,0.00208535779491453,-0.00379258107784073,0.901903347425393,NA,0.0387987947507423,0.0295145545771169,0.901903347425393,0.0297833032467479
"stimuli/m2.jpg","stimuli/m5.jpg",1,"stimuli/Outdoor activity & sport item.png","stimuli/Electronic device & accessory.png","stimuli/Kitchen & utensil.png","stimuli/Hand labour tool & accessory.png",3,0,3,"stimuli/m2.jpg","Kitchen & utensil","stimuli/objects/cookiecutter.jpg",1,2,0,0.76,94,2,"Electronic device & accessory",NA,0.525233952663466,-0.955228093312687,NA,0.0237949015611077,-0.0432751126112816,NA,0.450148151242181,0.999999962740262,NA,0.000822994533244548,-0.00149675681629375,0.91673178129903,NA,0.91673178129903,0.0307581614717071,0.0261818901919706,0.0263281670372924
"stimuli/m2.jpg","stimuli/m5.jpg",1,"stimuli/Outdoor activity & sport item.png","stimuli/Electronic device & accessory.png","stimuli/Hand labour tool & accessory.png","stimuli/Kitchen & utensil.png",2,1,3,"stimuli/m2.jpg","Electronic device & accessory","stimuli/objects/cellphone.jpg",1,4,0,0.987,95,4,"Kitchen & utensil",NA,0.738949001417873,0.474766047336534,NA,0.0130836711018795,-0.0237949015611077,NA,0.247514802397764,-0.450148151242181,NA,0.000452525082483058,-0.000822994533244548,0.368356958776811,NA,0.487140376150466,0.075338585203981,0.368356958776811,0.0691640798687424
"stimuli/m2.jpg","stimuli/m5.jpg",1,"stimuli/Hand labour tool & accessory.png","stimuli/Outdoor activity & sport item.png","stimuli/Kitchen & utensil.png","stimuli/Electronic device & accessory.png",4,1,3,"stimuli/m2.jpg","Electronic device & accessory","stimuli/objects/vhstape.jpg",1,4,1,1.37,96,4,"Electronic device & accessory",NA,0.856460620461303,0.261050998582127,NA,0.00719408101195728,-0.0130836711018795,NA,0.136096476764256,-0.247514802397764,NA,0.000248821762483627,-0.000452525082483058,0.774239847761856,NA,0.774239847761856,0.0519310042344018,0.124283335938926,0.0495458120648157
"stimuli/m5.jpg","stimuli/m2.jpg",1,"stimuli/Outdoor activity & sport item.png","stimuli/Electronic device & accessory.png","stimuli/Kitchen & utensil.png","stimuli/Hand labour tool & accessory.png",4,0,3,"stimuli/m5.jpg","Hand labour tool & accessory","stimuli/objects/snowshovel.jpg",1,3,0,1.157,97,3,"Kitchen & utensil",NA,0.0226247852208247,-0.0411470552094046,NA,0.45055854811338,0.999253585590064,NA,0.525670028784216,-0.956021172585745,NA,0.00114663788157871,-0.00208535779491453,0.917059378013604,NA,0.030436392193522,0.0261866935624703,0.917059378013604,0.0263175362304038
"stimuli/m5.jpg","stimuli/m2.jpg",1,"stimuli/Hand labour tool & accessory.png","stimuli/Electronic device & accessory.png","stimuli/Kitchen & utensil.png","stimuli/Outdoor activity & sport item.png",4,0,3,"stimuli/m5.jpg","Outdoor activity & sport item","stimuli/objects/charcoalbarbecue.jpg",1,3,0,0.685,98,3,"Kitchen & utensil",NA,0.0124402804449406,-0.0226247852208247,NA,0.247740459884525,-0.45055854811338,NA,0.289040647933156,-0.525670028784216,NA,0.450778611737379,0.998853362118421,0.487390528178465,NA,0.0749279437439853,0.368510887068387,0.487390528178465,0.0691706410091626
"stimuli/m2.jpg","stimuli/m5.jpg",2,"stimuli/Electronic device & accessory.png","stimuli/Outdoor activity & sport item.png","stimuli/Kitchen & utensil.png","stimuli/Hand labour tool & accessory.png",3,1,3,"stimuli/m5.jpg","Kitchen & utensil","stimuli/objects/butterknife.jpg",1,1,0,0.787,99,1,"Electronic device & accessory",NA,0.00684031145658455,-0.0124402804449406,NA,0.13622055495516,-0.247740459884525,NA,0.609077671308722,0.710959352066844,NA,0.247861462279533,-0.450778611737379,0.0883906368044357,NA,0.0883906368044357,0.212225401873139,0.247493670574244,0.451890290748181
"stimuli/m2.jpg","stimuli/m5.jpg",1,"stimuli/Electronic device & accessory.png","stimuli/Kitchen & utensil.png","stimuli/Outdoor activity & sport item.png","stimuli/Hand labour tool & accessory.png",1,1,3,"stimuli/m2.jpg","Electronic device & accessory","stimuli/objects/gps.jpg",1,3,0,1.196,100,3,"Outdoor activity & sport item",NA,0.921074603850358,0.143539379538697,NA,0.00395567889192578,-0.00719408101195728,NA,0.0748329021465058,-0.136096476764256,NA,0.000136815111210496,-0.000248821762483627,0.0358370935024914,NA,0.867965285067123,0.0367756729501012,0.059421948480284,0.0358370935024914
"stimuli/m5.jpg","stimuli/m2.jpg",1,"stimuli/Kitchen & utensil.png","stimuli/Outdoor activity & sport item.png","stimuli/Hand labour tool & accessory.png","stimuli/Electronic device & accessory.png",4,0,3,"stimuli/m5.jpg","Electronic device & accessory","stimuli/objects/ethernetcable02.jpg",1,1,0,1.003,101,1,"Kitchen & utensil",NA,0.453909288795467,0.993159688543415,NA,0.0749011267717073,-0.13622055495516,NA,0.334902496084587,-0.609077671308722,NA,0.136287088348239,-0.247861462279533,0.64980133480795,NA,0.0690543936950333,0.111776388873228,0.64980133480795,0.169367882623789
"stimuli/m5.jpg","stimuli/m2.jpg",1,"stimuli/Kitchen & utensil.png","stimuli/Electronic device & accessory.png","stimuli/Outdoor activity & sport item.png","stimuli/Hand labour tool & accessory.png",1,1,3,"stimuli/m5.jpg","Kitchen & utensil","stimuli/objects/waterbottle03.jpg",1,2,0,0.719,102,2,"Electronic device & accessory",NA,0.249582870911926,-0.453909288795467,NA,0.0411845245639915,-0.0749011267717073,NA,0.634294894241823,0.665097503915413,NA,0.0749377102822587,-0.136287088348239,0.456074927144906,NA,0.456074927144906,0.111256096901772,0.292851445868295,0.139817530085027
"stimuli/m2.jpg","stimuli/m5.jpg",2,"stimuli/Outdoor activity & sport item.png","stimuli/Kitchen & utensil.png","stimuli/Electronic device & accessory.png","stimuli/Hand labour tool & accessory.png",2,1,3,"stimuli/m5.jpg","Kitchen & utensil","stimuli/objects/peeler01.jpg",1,2,1,0.543,103,2,"Kitchen & utensil",NA,0.137233608102495,-0.249582870911926,NA,0.0226453878154837,-0.0411845245639915,NA,0.798916364006369,0.365705105758177,NA,0.0412046400756518,-0.0749377102822587,0.678692380431658,NA,0.162083802465673,0.0746171351183149,0.678692380431658,0.0846066819843544
"stimuli/m5.jpg","stimuli/m2.jpg",2,"stimuli/Electronic device & accessory.png","stimuli/Kitchen & utensil.png","stimuli/Outdoor activity & sport item.png","stimuli/Hand labour tool & accessory.png",1,1,3,"stimuli/m2.jpg","Electronic device & accessory","stimuli/objects/dvdplayer.jpg",1,1,1,0.413,104,1,"Electronic device & accessory",NA,0.956602723396205,0.0789253961496421,NA,0.00217503743285899,-0.00395567889192578,NA,0.041147011126296,-0.0748329021465058,NA,7.52280446400752e-05,-0.000136815111210496,0.902355176165347,NA,0.902355176165347,0.0296991641753488,0.0386656932929021,0.0292799663664023
"stimuli/m5.jpg","stimuli/m2.jpg",1,"stimuli/Outdoor activity & sport item.png","stimuli/Kitchen & utensil.png","stimuli/Hand labour tool & accessory.png","stimuli/Electronic device & accessory.png",2,1,3,"stimuli/m5.jpg","Kitchen & utensil","stimuli/objects/tupperware03a.jpg",1,2,1,0.674,105,2,"Kitchen & utensil",NA,0.0754581559384139,-0.137233608102495,NA,0.0124516088201252,-0.0226453878154837,NA,0.88943378687429,0.201083635993631,NA,0.022656448367171,-0.0412046400756518,0.833091209828143,NA,0.0709582051192967,0.0463187629021242,0.833091209828143,0.0496318221504363
"stimuli/m2.jpg","stimuli/m5.jpg",2,"stimuli/Outdoor activity & sport item.png","stimuli/Electronic device & accessory.png","stimuli/Kitchen & utensil.png","stimuli/Hand labour tool & accessory.png",3,1,3,"stimuli/m5.jpg","Kitchen & utensil","stimuli/objects/espressomachine.jpg",1,3,1,0.933,106,3,"Kitchen & utensil",NA,0.0414908080925292,-0.0754581559384139,NA,0.00684654038485529,-0.0124516088201252,NA,0.93920496103747,0.11056621312571,NA,0.0124576904851453,-0.022656448367171,0.887917238881495,NA,0.0429025166194173,0.0339332213708516,0.887917238881495,0.035247023128236
"stimuli/m2.jpg","stimuli/m5.jpg",2,"stimuli/Hand labour tool & accessory.png","stimuli/Electronic device & accessory.png","stimuli/Outdoor activity & sport item.png","stimuli/Kitchen & utensil.png",4,1,3,"stimuli/m5.jpg","Kitchen & utensil","stimuli/objects/bowl02a.jpg",1,2,0,0.712,107,2,"Electronic device & accessory",NA,0.0228137983861692,-0.0414908080925292,NA,0.00376458302847512,-0.00684654038485529,NA,0.966571734185621,0.0607950389625298,NA,0.00684988439973472,-0.0124576904851453,0.0322139089589678,NA,0.0322139089589678,0.0283163187470516,0.910555791189977,0.0289139811040037
"stimuli/m2.jpg","stimuli/m5.jpg",2,"stimuli/Outdoor activity & sport item.png","stimuli/Kitchen & utensil.png","stimuli/Hand labour tool & accessory.png","stimuli/Electronic device & accessory.png",2,1,3,"stimuli/m5.jpg","Kitchen & utensil","stimuli/objects/towel01.jpg",1,2,1,1.118,108,2,"Kitchen & utensil",NA,0.0125442096872172,-0.0228137983861692,NA,0.00206996301513563,-0.00376458302847512,NA,0.98161940555634,0.0334282658143791,NA,0.00376642174130736,-0.00684988439973472,0.921100672996335,NA,0.0274541903753449,0.0255748613636619,0.921100672996335,0.0258702752646581
"stimuli/m5.jpg","stimuli/m2.jpg",1,"stimuli/Electronic device & accessory.png","stimuli/Hand labour tool & accessory.png","stimuli/Kitchen & utensil.png","stimuli/Outdoor activity & sport item.png",2,0,3,"stimuli/m5.jpg","Hand labour tool & accessory","stimuli/objects/staplegun.jpg",1,3,0,1.02,109,3,"Kitchen & utensil",NA,0.00689745714471957,-0.0125442096872172,NA,0.451286303787986,0.997930036984864,NA,0.539745265032471,-0.98161940555634,NA,0.00207097403482344,-0.00376642174130736,0.926383617190813,NA,0.0251283518712272,0.0241674663509615,0.926383617190813,0.0243205645869984
"stimuli/m2.jpg","stimuli/m5.jpg",1,"stimuli/Kitchen & utensil.png","stimuli/Outdoor activity & sport item.png","stimuli/Electronic device & accessory.png","stimuli/Hand labour tool & accessory.png",3,1,3,"stimuli/m2.jpg","Electronic device & accessory","stimuli/objects/lightbulb01.jpg",1,3,1,0.842,110,3,"Electronic device & accessory",NA,0.976137926339254,0.0433972766037951,NA,0.0011959483981357,-0.00217503743285899,NA,0.022624760981645,-0.041147011126296,NA,4.13642809650033e-05,-7.52280446400752e-05,0.917275664962218,NA,0.917275664962218,0.0262755899650439,0.0303777335826861,0.0260710114900522
"stimuli/m5.jpg","stimuli/m2.jpg",2,"stimuli/Outdoor activity & sport item.png","stimuli/Hand labour tool & accessory.png","stimuli/Kitchen & utensil.png","stimuli/Electronic device & accessory.png",4,1,3,"stimuli/m2.jpg","Electronic device & accessory","stimuli/objects/outletadapter.jpg",1,4,1,0.904,111,4,"Electronic device & accessory",NA,0.986879394193573,0.0238620736607458,NA,0.000657594462235664,-0.0011959483981357,NA,0.0124402671169824,-0.022624760981645,NA,2.27442272085888e-05,-4.13642809650033e-05,0.924464219838721,NA,0.924464219838721,0.0245345945518053,0.0265718103353449,0.0244293752741291
"stimuli/m5.jpg","stimuli/m2.jpg",2,"stimuli/Electronic device & accessory.png","stimuli/Outdoor activity & sport item.png","stimuli/Hand labour tool & accessory.png","stimuli/Kitchen & utensil.png",1,1,3,"stimuli/m2.jpg","Electronic device & accessory","stimuli/objects/securitycamera.jpg",1,1,1,1.011,112,1,"Electronic device & accessory",NA,0.992785610371708,0.0131206058064266,NA,0.000361579544265542,-0.000657594462235664,NA,0.00684030412818178,-0.0124402671169824,NA,1.25059558451791e-05,-2.27442272085888e-05,0.928138930408936,NA,0.928138930408936,0.0236192757348962,0.0246782685980335,0.023563525258134
"stimuli/m2.jpg","stimuli/m5.jpg",2,"stimuli/Electronic device & accessory.png","stimuli/Kitchen & utensil.png","stimuli/Hand labour tool & accessory.png","stimuli/Outdoor activity & sport item.png",2,1,3,"stimuli/m5.jpg","Kitchen & utensil","stimuli/objects/funnel.jpg",1,2,1,0.686,113,2,"Kitchen & utensil",NA,0.0037925797040624,-0.00689745714471957,NA,0.248140617702561,-0.451286303787986,NA,0.746928073649171,0.460254734967529,NA,0.00113872894420585,-0.00207097403482344,0.50196474522473,NA,0.0690653962911609,0.361134220099814,0.50196474522473,0.0678356383842946
"stimuli/m5.jpg","stimuli/m2.jpg",2,"stimuli/Hand labour tool & accessory.png","stimuli/Outdoor activity & sport item.png","stimuli/Kitchen & utensil.png","stimuli/Electronic device & accessory.png",3,0,3,"stimuli/m2.jpg","Kitchen & utensil","stimuli/objects/rollingpin01a.jpg",1,4,0,0.864,114,4,"Electronic device & accessory",NA,0.545885023622575,-0.992785610371708,NA,0.00019881518829522,-0.000361579544265542,NA,0.453909284765931,0.993159695871818,NA,6.87642319816909e-06,-1.25059558451791e-05,0.930080012093238,NA,0.930080012093238,0.0231284880955504,0.0236930452114167,0.0230984545997953
"stimuli/m5.jpg","stimuli/m2.jpg",2,"stimuli/Kitchen & utensil.png","stimuli/Electronic device & accessory.png","stimuli/Outdoor activity & sport item.png","stimuli/Hand labour tool & accessory.png",3,0,3,"stimuli/m2.jpg","Outdoor activity & sport item","stimuli/objects/weight01.jpg",1,1,0,0.904,115,1,"Kitchen & utensil",NA,0.300155900631809,-0.545885023622575,NA,0.000109318902918454,-0.00019881518829522,NA,0.249582868696279,-0.453909284765931,NA,0.450151911768994,0.999993123576802,0.360023299993015,NA,0.507014612857408,0.0665047930648966,0.360023299993015,0.0664572940846796
"stimuli/m2.jpg","stimuli/m5.jpg",1,"stimuli/Hand labour tool & accessory.png","stimuli/Outdoor activity & sport item.png","stimuli/Electronic device & accessory.png","stimuli/Kitchen & utensil.png",3,1,3,"stimuli/m2.jpg","Electronic device & accessory","stimuli/objects/expansioncard.jpg",1,2,0,1.015,116,2,"Outdoor activity & sport item",NA,0.615189413782208,0.699844099368191,NA,6.01092031135415e-05,-0.000109318902918454,NA,0.137233606884217,-0.249582868696279,NA,0.247516870130462,-0.450151911768994,0.44774920890326,NA,0.256181754394782,0.0838468458783421,0.212222190823615,0.44774920890326
"stimuli/m5.jpg","stimuli/m2.jpg",1,"stimuli/Electronic device & accessory.png","stimuli/Outdoor activity & sport item.png","stimuli/Kitchen & utensil.png","stimuli/Hand labour tool & accessory.png",2,0,4,"stimuli/m5.jpg","Outdoor activity & sport item","stimuli/objects/magneticcompass.jpg",1,3,0,1.009,118,3,"Kitchen & utensil",NA,0.00208535703953995,-0.0037925797040624,NA,0.1364405824794,-0.248140617702561,NA,0.410699797487679,-0.746928073649171,NA,0.45077426299338,0.998861271055794,0.780417690817799,NA,0.0490861540552955,0.121892521731843,0.780417690817799,0.0486036333950623
"stimuli/m5.jpg","stimuli/m2.jpg",2,"stimuli/Outdoor activity & sport item.png","stimuli/Electronic device & accessory.png","stimuli/Kitchen & utensil.png","stimuli/Hand labour tool & accessory.png",3,1,4,"stimuli/m2.jpg","Kitchen & utensil","stimuli/objects/gasburner.jpg",1,2,0,1.303,119,2,"Electronic device & accessory",NA,0.338263049107978,-0.615189413782208,NA,3.30511576908175e-05,-6.01092031135415e-05,NA,0.525606286023387,0.862766393115783,NA,0.136097613710945,-0.247516870130462,0.655940249039341,NA,0.655940249039341,0.0664406106180166,0.11071108533497,0.166908055007673
"stimuli/m2.jpg","stimuli/m5.jpg",1,"stimuli/Hand labour tool & accessory.png","stimuli/Electronic device & accessory.png","stimuli/Outdoor activity & sport item.png","stimuli/Kitchen & utensil.png",4,1,4,"stimuli/m2.jpg","Kitchen & utensil","stimuli/objects/cork02.jpg",1,1,0,1.247,120,1,"Hand labour tool & accessory",NA,0.185994569848587,-0.338263049107978,NA,1.81732408370124e-05,-3.30511576908175e-05,NA,0.739153729611808,0.474393713976613,NA,0.0748335272987679,-0.136097613710945,0.0754418106664023,NA,0.265706184720231,0.0754418106664023,0.533659920554533,0.125192084058834
"stimuli/m5.jpg","stimuli/m2.jpg",2,"stimuli/Hand labour tool & accessory.png","stimuli/Kitchen & utensil.png","stimuli/Electronic device & accessory.png","stimuli/Outdoor activity & sport item.png",2,1,4,"stimuli/m2.jpg","Kitchen & utensil","stimuli/objects/hourglass.jpg",1,2,1,1.161,121,2,"Kitchen & utensil",NA,0.102269461900694,-0.185994569848587,NA,9.99259044447362e-06,-1.81732408370124e-05,NA,0.856573190641425,0.260846270388192,NA,0.0411473548674358,-0.0748335272987679,0.783850090316764,NA,0.09999644397934,0.0500416123632694,0.783850090316764,0.0661118533406271
"stimuli/m2.jpg","stimuli/m5.jpg",1,"stimuli/Kitchen & utensil.png","stimuli/Hand labour tool & accessory.png","stimuli/Electronic device & accessory.png","stimuli/Outdoor activity & sport item.png",1,1,4,"stimuli/m2.jpg","Kitchen & utensil","stimuli/objects/cleaver01.jpg",1,1,1,0.613,122,1,"Kitchen & utensil",NA,0.0562330547927929,-0.102269461900694,NA,5.49444453449509e-06,-9.99259044447362e-06,NA,0.921136500774319,0.143426809358575,NA,0.0226249499883533,-0.0411473548674358,0.86984602486238,NA,0.0524831007782876,0.0358677990483073,0.86984602486238,0.0418030753110251
"stimuli/m5.jpg","stimuli/m2.jpg",1,"stimuli/Kitchen & utensil.png","stimuli/Outdoor activity & sport item.png","stimuli/Hand labour tool & accessory.png","stimuli/Electronic device & accessory.png",3,1,4,"stimuli/m5.jpg","Hand labour tool & accessory","stimuli/objects/mallet01b.jpg",1,2,0,0.646,123,2,"Outdoor activity & sport item",NA,0.00114663746623458,-0.00208535703953995,NA,0.525170240072041,0.8635594175206,NA,0.225824051347207,-0.410699797487679,NA,0.247859071114517,-0.45077426299338,0.423733933049485,NA,0.0797505239722675,0.13150278832243,0.365012754655818,0.423733933049485
"stimuli/m2.jpg","stimuli/m5.jpg",2,"stimuli/Outdoor activity & sport item.png","stimuli/Hand labour tool & accessory.png","stimuli/Electronic device & accessory.png","stimuli/Kitchen & utensil.png",2,1,4,"stimuli/m5.jpg","Hand labour tool & accessory","stimuli/objects/hoe.jpg",1,2,1,0.734,124,2,"Hand labour tool & accessory",NA,0.000630480754155614,-0.00114663746623458,NA,0.738913968930384,0.474829759927959,NA,0.124169776753776,-0.225824051347207,NA,0.136285773561685,-0.247859071114517,0.547485397326601,NA,0.0778440142439069,0.547485397326601,0.179656669493701,0.195013918935791
"stimuli/m2.jpg","stimuli/m5.jpg",2,"stimuli/Electronic device & accessory.png","stimuli/Outdoor activity & sport item.png","stimuli/Kitchen & utensil.png","stimuli/Hand labour tool & accessory.png",1,0,4,"stimuli/m5.jpg","Electronic device & accessory","stimuli/objects/usbkey.jpg",1,4,0,1.234,125,4,"Hand labour tool & accessory",NA,0.450494801776041,0.999369519245844,NA,0.406293227027728,-0.738913968930384,NA,0.068274983851817,-0.124169776753776,NA,0.0749369873444144,-0.136285773561685,0.786413869696487,NA,0.0503647771915999,0.786413869696487,0.0797706406162959,0.0834507124956168
"stimuli/m2.jpg","stimuli/m5.jpg",1,"stimuli/Hand labour tool & accessory.png","stimuli/Electronic device & accessory.png","stimuli/Kitchen & utensil.png","stimuli/Outdoor activity & sport item.png",3,1,4,"stimuli/m2.jpg","Kitchen & utensil","stimuli/objects/cookingpot.jpg",1,3,1,1.004,126,3,"Kitchen & utensil",NA,0.0309198502911824,-0.0562330547927929,NA,3.02113059775595e-06,-5.49444453449509e-06,NA,0.956636757535546,0.0788634992256807,NA,0.0124403710426742,-0.0226249499883533,0.902793800390352,NA,0.0360884223542835,0.0292731371931363,0.902793800390352,0.0318446400622279
"stimuli/m2.jpg","stimuli/m5.jpg",1,"stimuli/Outdoor activity & sport item.png","stimuli/Hand labour tool & accessory.png","stimuli/Electronic device & accessory.png","stimuli/Kitchen & utensil.png",3,0,4,"stimuli/m2.jpg","Electronic device & accessory","stimuli/objects/atm.jpg",1,4,0,1.348,127,4,"Kitchen & utensil",NA,0.467149468234232,0.969080149708818,NA,1.66117430640984e-06,-3.02113059775595e-06,NA,0.526008509319544,-0.956636757535546,NA,0.00684036127191771,-0.0124403710426742,0.917393768864134,NA,0.0292430606157338,0.0260640586117133,0.917393768864134,0.0272991119084193
"stimuli/m2.jpg","stimuli/m5.jpg",1,"stimuli/Electronic device & accessory.png","stimuli/Kitchen & utensil.png","stimuli/Hand labour tool & accessory.png","stimuli/Outdoor activity & sport item.png",2,1,4,"stimuli/m2.jpg","Kitchen & utensil","stimuli/objects/tray.jpg",1,1,0,0.569,128,1,"Electronic device & accessory",NA,0.256863008325473,-0.467149468234232,NA,9.13399797521475e-07,-1.66117430640984e-06,NA,0.739374892843054,0.473991490680456,NA,0.00376118543167612,-0.00684036127191771,0.384481553576111,NA,0.384481553576111,0.0675576867945761,0.47866121932857,0.0692995403007429
"stimuli/m5.jpg","stimuli/m2.jpg",1,"stimuli/Outdoor activity & sport item.png","stimuli/Electronic device & accessory.png","stimuli/Kitchen & utensil.png","stimuli/Hand labour tool & accessory.png",4,1,4,"stimuli/m5.jpg","Hand labour tool & accessory","stimuli/objects/jumpercables.jpg",1,4,1,0.783,129,4,"Hand labour tool & accessory",NA,0.247705408841781,-0.450494801776041,NA,0.673549221097687,0.593706772972272,NA,0.0375411274936044,-0.068274983851817,NA,0.0412042425669268,-0.0749369873444144,0.363070280185647,NA,0.42800404527455,0.363070280185647,0.103167633196702,0.105758041343101
"stimuli/m2.jpg","stimuli/m5.jpg",2,"stimuli/Kitchen & utensil.png","stimuli/Electronic device & accessory.png","stimuli/Outdoor activity & sport item.png","stimuli/Hand labour tool & accessory.png",4,1,4,"stimuli/m5.jpg","Hand labour tool & accessory","stimuli/objects/squeegee01b.jpg",1,4,1,0.796,130,4,"Hand labour tool & accessory",NA,0.136201282073789,-0.247705408841781,NA,0.820500429004027,0.326450778902313,NA,0.020642059125929,-0.0375411274936044,NA,0.0226562297962555,-0.0412042425669268,0.717548529461497,NA,0.147035914593238,0.717548529461497,0.0672461669418285,0.0681693890034367
"stimuli/m2.jpg","stimuli/m5.jpg",2,"stimuli/Outdoor activity & sport item.png","stimuli/Electronic device & accessory.png","stimuli/Hand labour tool & accessory.png","stimuli/Kitchen & utensil.png",3,1,4,"stimuli/m5.jpg","Hand labour tool & accessory","stimuli/objects/painttray.jpg",1,3,1,0.893,131,3,"Hand labour tool & accessory",NA,0.0748905295418594,-0.136201282073789,NA,0.901301825359161,0.179499570995973,NA,0.0113500747954611,-0.020642059125929,NA,0.0124575703035188,-0.0226562297962555,0.847076363844542,NA,0.0663239695036171,0.847076363844542,0.0431375125007286,0.0434621541511118
"stimuli/m2.jpg","stimuli/m5.jpg",1,"stimuli/Electronic device & accessory.png","stimuli/Hand labour tool & accessory.png","stimuli/Kitchen & utensil.png","stimuli/Outdoor activity & sport item.png",2,0,4,"stimuli/m2.jpg","Hand labour tool & accessory","stimuli/objects/setsquare.jpg",1,1,0,0.537,132,1,"Electronic device & accessory",NA,0.141236605267695,-0.256863008325473,NA,0.450148632989431,0.999999086600202,NA,0.406546666902689,-0.739374892843054,NA,0.00206809484018476,-0.00376118543167612,0.128200309019477,NA,0.128200309019477,0.0492765773272977,0.772551949421694,0.0499711642315312
"stimuli/m2.jpg","stimuli/m5.jpg",2,"stimuli/Kitchen & utensil.png","stimuli/Outdoor activity & sport item.png","stimuli/Hand labour tool & accessory.png","stimuli/Electronic device & accessory.png",2,0,4,"stimuli/m5.jpg","Outdoor activity & sport item","stimuli/objects/hockeygoalieglove.jpg",1,3,0,0.648,133,3,"Hand labour tool & accessory",NA,0.0411786976573509,-0.0748905295418594,NA,0.495582493427805,-0.901301825359161,NA,0.00624085984235659,-0.0113500747954611,NA,0.456997949072488,0.987542429696481,0.893564181306428,NA,0.0412223058096511,0.893564181306428,0.0325395450728966,0.0326739678110249
"stimuli/m2.jpg","stimuli/m5.jpg",2,"stimuli/Hand labour tool & accessory.png","stimuli/Electronic device & accessory.png","stimuli/Outdoor activity & sport item.png","stimuli/Kitchen & utensil.png",1,1,4,"stimuli/m5.jpg","Hand labour tool & accessory","stimuli/objects/rope03.jpg",1,3,0,1.064,134,3,"Outdoor activity & sport item",NA,0.0226421838799754,-0.0411786976573509,NA,0.722645091131298,0.504417506572195,NA,0.0034315484500168,-0.00624085984235659,NA,0.25128117653871,-0.456997949072488,0.391554241167298,NA,0.0832856140201412,0.452031291115896,0.0731288536966653,0.391554241167298
"stimuli/m5.jpg","stimuli/m2.jpg",1,"stimuli/Hand labour tool & accessory.png","stimuli/Kitchen & utensil.png","stimuli/Outdoor activity & sport item.png","stimuli/Electronic device & accessory.png",2,0,4,"stimuli/m5.jpg","Kitchen & utensil","stimuli/objects/contactlens.jpg",1,3,0,1.223,135,3,"Outdoor activity & sport item",NA,0.012449847130197,-0.0226421838799754,NA,0.39734775415938,-0.722645091131298,NA,0.452034974084492,0.996568451549983,NA,0.138167424625931,-0.25128117653871,0.131481769757846,NA,0.0561362051359585,0.760119938797269,0.0522620863089262,0.131481769757846
"stimuli/m5.jpg","stimuli/m2.jpg",2,"stimuli/Electronic device & accessory.png","stimuli/Hand labour tool & accessory.png","stimuli/Kitchen & utensil.png","stimuli/Outdoor activity & sport item.png",3,1,4,"stimuli/m2.jpg","Kitchen & utensil","stimuli/objects/watercooler.jpg",1,2,0,0.765,136,2,"Hand labour tool & accessory",NA,0.0776592114122821,-0.141236605267695,NA,0.24751506728739,-0.450148632989431,NA,0.673688575486676,0.593453333097311,NA,0.00113714581365185,-0.00206809484018476,0.424540505472965,NA,0.134439102729222,0.424540505472965,0.360936912439947,0.0800834793578665
"stimuli/m5.jpg","stimuli/m2.jpg",1,"stimuli/Kitchen & utensil.png","stimuli/Outdoor activity & sport item.png","stimuli/Electronic device & accessory.png","stimuli/Hand labour tool & accessory.png",4,1,4,"stimuli/m5.jpg","Hand labour tool & accessory","stimuli/objects/hammer01.jpg",1,4,1,1.01,137,4,"Hand labour tool & accessory",NA,0.00684557171635525,-0.012449847130197,NA,0.668630536119744,0.60265224584062,NA,0.248552275464543,-0.452034974084492,NA,0.0759716166993573,-0.138167424625931,0.351433286580218,NA,0.0838704617001926,0.351433286580218,0.430775878454213,0.133920373265376
"stimuli/m5.jpg","stimuli/m2.jpg",1,"stimuli/Kitchen & utensil.png","stimuli/Electronic device & accessory.png","stimuli/Hand labour tool & accessory.png","stimuli/Outdoor activity & sport item.png",3,1,4,"stimuli/m5.jpg","Hand labour tool & accessory","stimuli/objects/jigsaw.jpg",1,3,1,1.049,138,3,"Hand labour tool & accessory",NA,0.0037640504042897,-0.00684557171635525,NA,0.817795880874677,0.331369463880256,NA,0.136666933269316,-0.248552275464543,NA,0.041773135451718,-0.0759716166993573,0.711931665408258,NA,0.0606154239516939,0.711931665408258,0.149049721076987,0.0784031895630606
"stimuli/m2.jpg","stimuli/m5.jpg",2,"stimuli/Hand labour tool & accessory.png","stimuli/Electronic device & accessory.png","stimuli/Kitchen & utensil.png","stimuli/Outdoor activity & sport item.png",1,1,4,"stimuli/m5.jpg","Hand labour tool & accessory","stimuli/objects/level03a.jpg",1,1,1,0.618,139,1,"Hand labour tool & accessory",NA,0.00206967015073167,-0.0037640504042897,NA,0.899814724514774,0.182204119125323,NA,0.0751465687221361,-0.136666933269316,NA,0.0229690366123582,-0.041773135451718,0.845176322900434,NA,0.0408288125333949,0.845176322900434,0.066960745259665,0.0470341193065063
"stimuli/m5.jpg","stimuli/m2.jpg",1,"stimuli/Electronic device & accessory.png","stimuli/Outdoor activity & sport item.png","stimuli/Hand labour tool & accessory.png","stimuli/Kitchen & utensil.png",3,1,4,"stimuli/m5.jpg","Hand labour tool & accessory","stimuli/objects/toyhardhat.jpg",1,3,1,0.54,140,3,"Hand labour tool & accessory",NA,0.00113801200110071,-0.00206967015073167,NA,0.944912939003608,0.100185275485226,NA,0.041319481279226,-0.0751465687221361,NA,0.0126295677160656,-0.0229690366123582,0.892822819817215,NA,0.0315829135970323,0.892822819817215,0.0414562301821919,0.0341380364035609
"stimuli/m2.jpg","stimuli/m5.jpg",1,"stimuli/Outdoor activity & sport item.png","stimuli/Kitchen & utensil.png","stimuli/Hand labour tool & accessory.png","stimuli/Electronic device & accessory.png",2,1,4,"stimuli/m2.jpg","Kitchen & utensil","stimuli/objects/jar02.jpg",1,1,0,1.158,141,1,"Outdoor activity & sport item",NA,0.042701062559148,-0.0776592114122821,NA,0.136096622414312,-0.24751506728739,NA,0.8205770532753,0.326311424513324,NA,0.000625261751240771,-0.00113714581365185,0.058627113020908,NA,0.0779481211205182,0.146689191821347,0.716735574037226,0.058627113020908
"stimuli/m2.jpg","stimuli/m5.jpg",2,"stimuli/Hand labour tool & accessory.png","stimuli/Outdoor activity & sport item.png","stimuli/Kitchen & utensil.png","stimuli/Electronic device & accessory.png",1,1,4,"stimuli/m5.jpg","Hand labour tool & accessory","stimuli/objects/drill01b.jpg",1,1,1,0.939,142,1,"Hand labour tool & accessory",NA,0.000625738026028645,-0.00113801200110071,NA,0.969710276539912,0.0550870609963923,NA,0.0227195940176226,-0.041319481279226,NA,0.00694439141643691,-0.0126295677160656,0.912806079728432,NA,0.0272052422196666,0.912806079728432,0.0315944489667172,0.0283942290851843
"stimuli/m5.jpg","stimuli/m2.jpg",1,"stimuli/Hand labour tool & accessory.png","stimuli/Electronic device & accessory.png","stimuli/Kitchen & utensil.png","stimuli/Outdoor activity & sport item.png",3,0,4,"stimuli/m5.jpg","Kitchen & utensil","stimuli/objects/measuringcup01.jpg",1,1,0,0.885,143,1,"Hand labour tool & accessory",NA,0.000344063223269624,-0.000625738026028645,NA,0.533197008181706,-0.969710276539912,NA,0.462640541993926,0.977280405982377,NA,0.00381838660109784,-0.00694439141643691,0.922217069566951,NA,0.0250144634381174,0.922217069566951,0.0271586746819793,0.0256097923129523
"stimuli/m5.jpg","stimuli/m2.jpg",2,"stimuli/Kitchen & utensil.png","stimuli/Hand labour tool & accessory.png","stimuli/Electronic device & accessory.png","stimuli/Outdoor activity & sport item.png",4,0,4,"stimuli/m2.jpg","Outdoor activity & sport item","stimuli/objects/baseballglove.jpg",1,3,0,1.358,144,3,"Electronic device & accessory",NA,0.0234792590669018,-0.042701062559148,NA,0.0748329822324613,-0.136096622414312,NA,0.451195826603104,-0.8205770532753,NA,0.450491932097532,0.999374738248759,0.0468064145984508,NA,0.0468064145984508,0.066265969317034,0.846906907700812,0.040020708383703
"stimuli/m2.jpg","stimuli/m5.jpg",1,"stimuli/Outdoor activity & sport item.png","stimuli/Hand labour tool & accessory.png","stimuli/Kitchen & utensil.png","stimuli/Electronic device & accessory.png",3,1,4,"stimuli/m2.jpg","Kitchen & utensil","stimuli/objects/saladspinner.jpg",1,3,1,0.997,145,3,"Kitchen & utensil",NA,0.0129101144864272,-0.0234792590669018,NA,0.0411470551617083,-0.0748329822324613,NA,0.698238999408175,0.548804173396896,NA,0.24770383094369,-0.450491932097532,0.408625176596072,NA,0.0831514324467772,0.10066748498415,0.408625176596072,0.407555905973001
"stimuli/m5.jpg","stimuli/m2.jpg",1,"stimuli/Electronic device & accessory.png","stimuli/Hand labour tool & accessory.png","stimuli/Outdoor activity & sport item.png","stimuli/Kitchen & utensil.png",2,1,4,"stimuli/m5.jpg","Hand labour tool & accessory","stimuli/objects/knifesharpener.jpg",1,2,1,0.968,146,2,"Hand labour tool & accessory",NA,0.000189183806453316,-0.000344063223269624,NA,0.743327502379481,0.466802991818294,NA,0.254383766803952,-0.462640541993926,NA,0.0020995470101143,-0.00381838660109784,0.48876218962534,NA,0.06724756896604,0.48876218962534,0.37586732198082,0.0681229194278006
"stimuli/m2.jpg","stimuli/m5.jpg",1,"stimuli/Kitchen & utensil.png","stimuli/Electronic device & accessory.png","stimuli/Hand labour tool & accessory.png","stimuli/Outdoor activity & sport item.png",4,0,4,"stimuli/m2.jpg","Outdoor activity & sport item","stimuli/objects/exercisemachine.jpg",1,4,1,1.169,147,4,"Outdoor activity & sport item",NA,0.00709865058253095,-0.0129101144864272,NA,0.0226247851945988,-0.0411470551617083,NA,0.383928019004452,-0.698238999408175,NA,0.586348545218419,0.75229616905631,0.138299336530034,NA,0.0577095586888054,0.0641056298185029,0.739885474962658,0.138299336530034
"stimuli/m5.jpg","stimuli/m2.jpg",2,"stimuli/Electronic device & accessory.png","stimuli/Outdoor activity & sport item.png","stimuli/Hand labour tool & accessory.png","stimuli/Kitchen & utensil.png",4,1,4,"stimuli/m2.jpg","Kitchen & utensil","stimuli/objects/thermos.jpg",1,4,1,1.356,148,4,"Kitchen & utensil",NA,0.00390320629192285,-0.00709865058253095,NA,0.0124402804305202,-0.0226247851945988,NA,0.661251669660032,0.616071980995548,NA,0.322404843617525,-0.586348545218419,0.275414215491057,NA,0.0677323677265159,0.0717622629985382,0.275414215491057,0.585091153783889
"stimuli/m5.jpg","stimuli/m2.jpg",2,"stimuli/Hand labour tool & accessory.png","stimuli/Kitchen & utensil.png","stimuli/Outdoor activity & sport item.png","stimuli/Electronic device & accessory.png",2,1,4,"stimuli/m2.jpg","Kitchen & utensil","stimuli/objects/aluminiumfoil.jpg",1,3,0,0.835,149,3,"Outdoor activity & sport item",NA,0.00214618527566323,-0.00390320629192285,NA,0.00684031144865548,-0.0124402804305202,NA,0.813738597358894,0.338748330339968,NA,0.177274905916788,-0.322404843617525,0.194133507896566,NA,0.0593204196760544,0.0612358039893898,0.68531026843799,0.194133507896566
"stimuli/m5.jpg","stimuli/m2.jpg",1,"stimuli/Outdoor activity & sport item.png","stimuli/Electronic device & accessory.png","stimuli/Hand labour tool & accessory.png","stimuli/Kitchen & utensil.png",3,1,4,"stimuli/m5.jpg","Hand labour tool & accessory","stimuli/objects/wateringcan.jpg",1,3,1,0.869,150,3,"Hand labour tool & accessory",NA,0.000104023069609269,-0.000189183806453316,NA,0.858868147399535,0.256672497620519,NA,0.139873389682776,-0.254383766803952,NA,0.00115443984807942,-0.0020995470101143,0.776240699094889,NA,0.0488229192686942,0.776240699094889,0.125765037977248,0.049171343659169
"stimuli/m5.jpg","stimuli/m2.jpg",1,"stimuli/Kitchen & utensil.png","stimuli/Hand labour tool & accessory.png","stimuli/Electronic device & accessory.png","stimuli/Outdoor activity & sport item.png",2,1,4,"stimuli/m5.jpg","Hand labour tool & accessory","stimuli/objects/gardenshears01a.jpg",1,2,1,0.893,151,2,"Hand labour tool & accessory",NA,5.71972792692755e-05,-0.000104023069609269,NA,0.922398387037603,0.141131852600465,NA,0.0769096447747306,-0.139873389682776,NA,0.000634770908397564,-0.00115443984807942,0.86898510208371,NA,0.0355399336885592,0.86898510208371,0.0597957945891639,0.0356791696385664
"stimuli/m2.jpg","stimuli/m5.jpg",1,"stimuli/Kitchen & utensil.png","stimuli/Outdoor activity & sport item.png","stimuli/Electronic device & accessory.png","stimuli/Hand labour tool & accessory.png",1,1,4,"stimuli/m2.jpg","Kitchen & utensil","stimuli/objects/spoon01.jpg",1,1,1,1,152,1,"Kitchen & utensil",NA,0.00118008398556985,-0.00214618527566323,NA,0.00376115803626225,-0.00684031144865548,NA,0.897583819589563,0.186261402641106,NA,0.0974749383886047,-0.177274905916788,0.838986399404724,NA,0.0408994964938352,0.0416204318675742,0.838986399404724,0.0784936722338661
"stimuli/m5.jpg","stimuli/m2.jpg",2,"stimuli/Hand labour tool & accessory.png","stimuli/Outdoor activity & sport item.png","stimuli/Kitchen & utensil.png","stimuli/Electronic device & accessory.png",3,1,4,"stimuli/m2.jpg","Kitchen & utensil","stimuli/objects/corkscrew03a.jpg",1,3,1,1.068,153,3,"Kitchen & utensil",NA,0.000648871385331856,-0.00118008398556985,NA,0.00206807977676523,-0.00376115803626225,NA,0.943686271760372,0.102416180410437,NA,0.0535967770775306,-0.0974749383886047,0.891008699610241,NA,0.0316765050043578,0.0319823134542962,0.891008699610241,0.0453324819311055
"stimuli/m2.jpg","stimuli/m5.jpg",1,"stimuli/Hand labour tool & accessory.png","stimuli/Outdoor activity & sport item.png","stimuli/Kitchen & utensil.png","stimuli/Electronic device & accessory.png",3,1,4,"stimuli/m2.jpg","Kitchen & utensil","stimuli/objects/bottlecap.jpg",1,1,0,0.833,154,1,"Hand labour tool & accessory",NA,0.000356783144124414,-0.000648871385331856,NA,0.00113713753100247,-0.00206807977676523,NA,0.969035791263277,0.0563137282396277,NA,0.0294702880615961,-0.0535967770775306,0.0274044208040324,NA,0.0272600285413506,0.0274044208040324,0.912136705416706,0.0331988452379109
"stimuli/m2.jpg","stimuli/m5.jpg",1,"stimuli/Hand labour tool & accessory.png","stimuli/Outdoor activity & sport item.png","stimuli/Electronic device & accessory.png","stimuli/Kitchen & utensil.png",4,1,4,"stimuli/m2.jpg","Kitchen & utensil","stimuli/objects/pot01.jpg",1,4,1,0.819,155,4,"Kitchen & utensil",NA,0.000196177878711973,-0.000356783144124414,NA,0.000625257197010526,-0.00113713753100247,NA,0.982974271946416,0.0309642087367229,NA,0.0162042929778618,-0.0294702880615961,0.921927353923759,NA,0.0250443823128988,0.0251172369001109,0.921927353923759,0.0279110268632314
"stimuli/m5.jpg","stimuli/m2.jpg",1,"stimuli/Hand labour tool & accessory.png","stimuli/Outdoor activity & sport item.png","stimuli/Electronic device & accessory.png","stimuli/Kitchen & utensil.png",1,1,4,"stimuli/m5.jpg","Hand labour tool & accessory","stimuli/objects/gastank.jpg",1,1,1,0.647,156,1,"Hand labour tool & accessory",NA,3.14500309219483e-05,-5.71972792692755e-05,NA,0.957330608056187,0.0776016129623974,NA,0.0422889119423664,-0.0769096447747306,NA,0.000349029970524845,-0.000634770908397564,0.902854548307345,NA,0.0291435252045185,0.902854548307345,0.0387956763571387,0.0292062501309976
"stimuli/m5.jpg","stimuli/m2.jpg",1,"stimuli/Hand labour tool & accessory.png","stimuli/Outdoor activity & sport item.png","stimuli/Kitchen & utensil.png","stimuli/Electronic device & accessory.png",1,1,4,"stimuli/m5.jpg","Hand labour tool & accessory","stimuli/objects/stubbywrench01a.jpg",1,1,1,0.523,157,1,"Hand labour tool & accessory",NA,1.72928582902512e-05,-3.14500309219483e-05,NA,0.97653815508014,0.0426693919438133,NA,0.0232526372798539,-0.0422889119423664,NA,0.000191914781715668,-0.000349029970524845,0.917529395116497,NA,0.026003422362242,0.917529395116497,0.0304330017349725,0.0260341807862889
"stimuli/m5.jpg","stimuli/m2.jpg",2,"stimuli/Kitchen & utensil.png","stimuli/Hand labour tool & accessory.png","stimuli/Outdoor activity & sport item.png","stimuli/Electronic device & accessory.png",1,1,4,"stimuli/m2.jpg","Kitchen & utensil","stimuli/objects/potatomasher03b.jpg",1,1,1,1.175,158,1,"Kitchen & utensil",NA,0.000107868773314327,-0.000196177878711973,NA,0.000343798838535224,-0.000625257197010526,NA,0.990638371604477,0.0170257280535843,NA,0.00890996078367343,-0.0162042929778618,0.926824604854899,NA,0.0238901186588589,0.0239283066263226,0.926824604854899,0.0253569698599199
"stimuli/m2.jpg","stimuli/m5.jpg",2,"stimuli/Outdoor activity & sport item.png","stimuli/Kitchen & utensil.png","stimuli/Hand labour tool & accessory.png","stimuli/Electronic device & accessory.png",4,0,4,"stimuli/m5.jpg","Electronic device & accessory","stimuli/objects/airconditioner.jpg",1,3,0,0.933,159,3,"Hand labour tool & accessory",NA,0.450157639265301,0.99998270714171,NA,0.53695132996003,-0.97653815508014,NA,0.0127855060732073,-0.0232526372798539,NA,0.000105524701462136,-0.000191914781715668,0.924597307123644,NA,0.0243943328826205,0.924597307123644,0.0265981653045454,0.0244101946891899
"stimuli/m5.jpg","stimuli/m2.jpg",2,"stimuli/Outdoor activity & sport item.png","stimuli/Hand labour tool & accessory.png","stimuli/Kitchen & utensil.png","stimuli/Electronic device & accessory.png",3,1,4,"stimuli/m2.jpg","Kitchen & utensil","stimuli/objects/oven.jpg",1,3,1,0.907,160,3,"Kitchen & utensil",NA,5.93118466400648e-05,-0.000107868773314327,NA,0.000189038434012906,-0.000343798838535224,NA,0.994852491127543,0.00936162839552301,NA,0.00489915859180386,-0.00890996078367343,0.92938062033161,NA,0.0232745697358853,0.0232950190830189,0.92938062033161,0.0240497908494859
"stimuli/m2.jpg","stimuli/m5.jpg",1,"stimuli/Outdoor activity & sport item.png","stimuli/Electronic device & accessory.png","stimuli/Hand labour tool & accessory.png","stimuli/Kitchen & utensil.png",3,0,4,"stimuli/m2.jpg","Hand labour tool & accessory","stimuli/objects/aircompressor.jpg",1,4,0,1.496,161,4,"Kitchen & utensil",NA,3.26127297434216e-05,-5.93118466400648e-05,NA,0.450252073891146,0.999810961565987,NA,0.547021501869678,-0.994852491127543,NA,0.00269381150943181,-0.00489915859180386,0.93074633480175,NA,0.0229418403560754,0.0229529215330296,0.93074633480175,0.0233589033091452
"stimuli/m2.jpg","stimuli/m5.jpg",2,"stimuli/Outdoor activity & sport item.png","stimuli/Hand labour tool & accessory.png","stimuli/Kitchen & utensil.png","stimuli/Electronic device & accessory.png",2,1,4,"stimuli/m5.jpg","Hand labour tool & accessory","stimuli/objects/snowblower.jpg",1,4,0,0.99,162,4,"Electronic device & accessory",NA,0.247520019405012,-0.450157639265301,NA,0.74539182322704,0.46304867003997,NA,0.00703013441359829,-0.0127855060732073,NA,5.80229543504922e-05,-0.000105524701462136,0.36167139002698,NA,0.36167139002698,0.499604818075785,0.0709985343511391,0.0677252575460959
"stimuli/m2.jpg","stimuli/m5.jpg",2,"stimuli/Electronic device & accessory.png","stimuli/Kitchen & utensil.png","stimuli/Outdoor activity & sport item.png","stimuli/Hand labour tool & accessory.png",4,1,4,"stimuli/m5.jpg","Hand labour tool & accessory","stimuli/objects/paintroller01.jpg",1,3,0,1.415,163,3,"Outdoor activity & sport item",NA,0.136099345345443,-0.247520019405012,NA,0.860003218076287,0.25460817677296,NA,0.00386553254836171,-0.00703013441359829,NA,3.19040299087444e-05,-5.80229543504922e-05,0.0486190895128225,NA,0.122140295557915,0.779343196125378,0.0498974188038848,0.0486190895128225
"stimuli/m5.jpg","stimuli/m2.jpg",2,"stimuli/Outdoor activity & sport item.png","stimuli/Kitchen & utensil.png","stimuli/Electronic device & accessory.png","stimuli/Hand labour tool & accessory.png",2,1,4,"stimuli/m2.jpg","Kitchen & utensil","stimuli/objects/pastaspoon.jpg",1,3,0,0.926,164,3,"Electronic device & accessory",NA,1.79321704106074e-05,-3.26127297434216e-05,NA,0.247571944460554,-0.450252073891146,NA,0.75092892607518,0.452978498130322,NA,0.00148119729385519,-0.00269381150943181,0.0666029729193268,NA,0.0666029729193268,0.355899715606376,0.510231286599375,0.0672660248749217
"stimuli/m5.jpg","stimuli/m2.jpg",2,"stimuli/Kitchen & utensil.png","stimuli/Outdoor activity & sport item.png","stimuli/Hand labour tool & accessory.png","stimuli/Electronic device & accessory.png",4,0,4,"stimuli/m2.jpg","Electronic device & accessory","stimuli/objects/headphones02b.jpg",1,1,0,0.7,165,1,"Kitchen & utensil",NA,0.450157990792265,0.999982067829589,NA,0.136127896434293,-0.247571944460554,NA,0.412899673672694,-0.75092892607518,NA,0.000814439100747143,-0.00148119729385519,0.783641258308495,NA,0.0478827583841327,0.120331702295645,0.783641258308495,0.0481442810117273
"stimuli/m2.jpg","stimuli/m5.jpg",1,"stimuli/Kitchen & utensil.png","stimuli/Hand labour tool & accessory.png","stimuli/Electronic device & accessory.png","stimuli/Outdoor activity & sport item.png",4,1,5,"stimuli/m2.jpg","Outdoor activity & sport item","stimuli/objects/badmintonracket.jpg",1,1,0,1.044,167,1,"Kitchen & utensil",NA,0.24752021269277,-0.450157990792265,NA,0.0748501783108071,-0.136127896434293,NA,0.227033657379645,-0.412899673672694,NA,0.450595951616777,0.999185560899253,0.367462497172489,NA,0.422129382627994,0.131152956045272,0.367462497172489,0.0792551641542451
"stimuli/m5.jpg","stimuli/m2.jpg",2,"stimuli/Kitchen & utensil.png","stimuli/Hand labour tool & accessory.png","stimuli/Outdoor activity & sport item.png","stimuli/Electronic device & accessory.png",4,0,5,"stimuli/m2.jpg","Electronic device & accessory","stimuli/objects/djmixer02.jpg",1,1,0,0.523,168,1,"Kitchen & utensil",NA,0.586247582379923,0.75247978730723,NA,0.0411565104575304,-0.0748501783108071,NA,0.124834880891762,-0.227033657379645,NA,0.247761026270784,-0.450595951616777,0.202220260091381,NA,0.218244672274554,0.11476295634518,0.202220260091381,0.464772111288885
"stimuli/m5.jpg","stimuli/m2.jpg",2,"stimuli/Electronic device & accessory.png","stimuli/Kitchen & utensil.png","stimuli/Hand labour tool & accessory.png","stimuli/Outdoor activity & sport item.png",4,1,5,"stimuli/m2.jpg","Outdoor activity & sport item","stimuli/objects/shinpad.jpg",1,1,0,0.696,169,1,"Electronic device & accessory",NA,0.322349329012054,-0.586247582379923,NA,0.0226299842066809,-0.0411565104575304,NA,0.0686406926053316,-0.124834880891762,NA,0.586379994175934,0.752238973729216,0.627108136220449,NA,0.627108136220449,0.0824398162890436,0.112567543096438,0.17788450439407
"stimuli/m5.jpg","stimuli/m2.jpg",2,"stimuli/Hand labour tool & accessory.png","stimuli/Outdoor activity & sport item.png","stimuli/Kitchen & utensil.png","stimuli/Electronic device & accessory.png",2,1,5,"stimuli/m2.jpg","Outdoor activity & sport item","stimuli/objects/surfboard.jpg",1,4,0,1.113,170,4,"Electronic device & accessory",NA,0.177244381107199,-0.322349329012054,NA,0.0124431391170318,-0.0226299842066809,NA,0.0377422131353237,-0.0686406926053316,NA,0.772570266640445,0.413620005824066,0.227862614317123,NA,0.227862614317123,0.0746690504245424,0.0886181102051481,0.608850225053186
"stimuli/m2.jpg","stimuli/m5.jpg",2,"stimuli/Outdoor activity & sport item.png","stimuli/Kitchen & utensil.png","stimuli/Electronic device & accessory.png","stimuli/Hand labour tool & accessory.png",3,1,5,"stimuli/m5.jpg","Electronic device & accessory","stimuli/objects/alarmclock01.jpg",1,4,0,0.804,171,4,"Hand labour tool & accessory",NA,0.524982610196079,0.863900654654557,NA,0.472874377016095,-0.860003218076287,NA,0.00212547029734467,-0.00386553254836171,NA,1.75424904817764e-05,-3.19040299087444e-05,0.869882981186711,NA,0.0587736914148858,0.869882981186711,0.0359261824635587,0.0354171449348447
"stimuli/m5.jpg","stimuli/m2.jpg",2,"stimuli/Hand labour tool & accessory.png","stimuli/Kitchen & utensil.png","stimuli/Outdoor activity & sport item.png","stimuli/Electronic device & accessory.png",1,0,5,"stimuli/m2.jpg","Hand labour tool & accessory","stimuli/objects/sledgehammer.jpg",1,4,0,1.412,172,4,"Electronic device & accessory",NA,0.097458154264994,-0.177244381107199,NA,0.456990014057623,0.987556860882968,NA,0.0207526264419067,-0.0377422131353237,NA,0.424799205235477,-0.772570266640445,0.088437592954845,NA,0.088437592954845,0.0478868027723501,0.0526156384160069,0.811059965856798
"stimuli/m5.jpg","stimuli/m2.jpg",2,"stimuli/Electronic device & accessory.png","stimuli/Outdoor activity & sport item.png","stimuli/Hand labour tool & accessory.png","stimuli/Kitchen & utensil.png",3,0,5,"stimuli/m2.jpg","Hand labour tool & accessory","stimuli/objects/chainsaw.jpg",1,1,0,0.684,173,1,"Electronic device & accessory",NA,0.0535875482957896,-0.097458154264994,NA,0.701424944210799,0.543009985942377,NA,0.0114108704408289,-0.0207526264419067,NA,0.233576637052583,-0.424799205235477,0.111777279468947,NA,0.111777279468947,0.426167299528578,0.0840136404431223,0.378041780559353
"stimuli/m5.jpg","stimuli/m2.jpg",1,"stimuli/Outdoor activity & sport item.png","stimuli/Kitchen & utensil.png","stimuli/Hand labour tool & accessory.png","stimuli/Electronic device & accessory.png",4,1,5,"stimuli/m5.jpg","Electronic device & accessory","stimuli/objects/fan.jpg",1,4,1,1.049,174,4,"Electronic device & accessory",NA,0.73881080029236,0.475017389803921,NA,0.260010860120438,-0.472874377016095,NA,0.00116869381602002,-0.00212547029734467,NA,9.64577118262012e-06,-1.75424904817764e-05,0.474343962169266,NA,0.474343962169266,0.390709649349679,0.0677379092454385,0.0672084792356166
"stimuli/m2.jpg","stimuli/m5.jpg",1,"stimuli/Kitchen & utensil.png","stimuli/Electronic device & accessory.png","stimuli/Hand labour tool & accessory.png","stimuli/Outdoor activity & sport item.png",4,1,5,"stimuli/m2.jpg","Outdoor activity & sport item","stimuli/objects/podium.jpg",1,3,0,0.916,175,3,"Hand labour tool & accessory",NA,0.0294652135987049,-0.0535875482957896,NA,0.385679816709486,-0.701424944210799,NA,0.00627428844160403,-0.0114108704408289,NA,0.578580681250205,0.766423362947417,0.745388420405581,NA,0.0668459968846739,0.745388420405581,0.0571336172287555,0.130631965480989
"stimuli/m5.jpg","stimuli/m2.jpg",2,"stimuli/Electronic device & accessory.png","stimuli/Kitchen & utensil.png","stimuli/Outdoor activity & sport item.png","stimuli/Hand labour tool & accessory.png",3,1,5,"stimuli/m2.jpg","Outdoor activity & sport item","stimuli/objects/iceskate.jpg",1,3,1,1.017,176,3,"Outdoor activity & sport item",NA,0.0162015027749557,-0.0294652135987049,NA,0.21206676814784,-0.385679816709486,NA,0.00344992922779924,-0.00627428844160403,NA,0.768281799849406,0.421419318749795,0.576036789985057,NA,0.074600009140825,0.280932977939309,0.068430222934809,0.576036789985057
"stimuli/m5.jpg","stimuli/m2.jpg",1,"stimuli/Outdoor activity & sport item.png","stimuli/Electronic device & accessory.png","stimuli/Hand labour tool & accessory.png","stimuli/Kitchen & utensil.png",2,1,5,"stimuli/m5.jpg","Electronic device & accessory","stimuli/objects/filmroll.jpg",1,3,0,0.602,177,3,"Hand labour tool & accessory",NA,0.856384630314108,0.26118919970764,NA,0.142967457461263,-0.260010860120438,NA,0.000642608479313863,-0.00116869381602002,NA,5.30374531507472e-06,-9.64577118262012e-06,0.129787627794551,NA,0.77138485859988,0.129787627794551,0.0495203531744766,0.0493071604310922
"stimuli/m5.jpg","stimuli/m2.jpg",2,"stimuli/Electronic device & accessory.png","stimuli/Hand labour tool & accessory.png","stimuli/Kitchen & utensil.png","stimuli/Outdoor activity & sport item.png",3,0,5,"stimuli/m2.jpg","Kitchen & utensil","stimuli/objects/canister.jpg",1,4,0,0.982,178,4,"Outdoor activity & sport item",NA,0.00890842658538993,-0.0162015027749557,NA,0.116605308870868,-0.21206676814784,NA,0.452045080789514,0.996550070772201,NA,0.422441183754228,-0.768281799849406,0.803223995729096,NA,0.0488661610840811,0.101309000876492,0.0466008423103308,0.803223995729096
"stimuli/m2.jpg","stimuli/m5.jpg",2,"stimuli/Kitchen & utensil.png","stimuli/Hand labour tool & accessory.png","stimuli/Electronic device & accessory.png","stimuli/Outdoor activity & sport item.png",3,1,5,"stimuli/m5.jpg","Electronic device & accessory","stimuli/objects/chandelier.jpg",1,3,1,1.341,179,3,"Electronic device & accessory",NA,0.921032820525878,0.143615369685892,NA,0.0786109237263027,-0.142967457461263,NA,0.000353339473543514,-0.000642608479313863,NA,2.91627427549407e-06,-5.30374531507472e-06,0.867394139277793,NA,0.867394139277793,0.0609384820623026,0.0358761935693486,0.0357911850905559
"stimuli/m5.jpg","stimuli/m2.jpg",2,"stimuli/Kitchen & utensil.png","stimuli/Electronic device & accessory.png","stimuli/Hand labour tool & accessory.png","stimuli/Outdoor activity & sport item.png",4,1,5,"stimuli/m2.jpg","Outdoor activity & sport item","stimuli/objects/cooler01.jpg",1,4,1,0.972,180,4,"Outdoor activity & sport item",NA,0.00489831501000989,-0.00890842658538993,NA,0.0641156470465556,-0.116605308870868,NA,0.248557832655191,-0.452045080789514,NA,0.682428205288243,0.577558816245773,0.37716795535304,NA,0.0809113114457357,0.12081315665088,0.421107576550345,0.37716795535304
"stimuli/m2.jpg","stimuli/m5.jpg",2,"stimuli/Electronic device & accessory.png","stimuli/Outdoor activity & sport item.png","stimuli/Hand labour tool & accessory.png","stimuli/Kitchen & utensil.png",1,1,5,"stimuli/m5.jpg","Electronic device & accessory","stimuli/objects/lectern01.jpg",1,1,1,0.801,181,1,"Electronic device & accessory",NA,0.956579748757136,0.0789671794741218,NA,0.0432243633539958,-0.0786109237263027,NA,0.000194284370006,-0.000353339473543514,NA,1.60351886161197e-06,-2.91627427549407e-06,0.902217461148953,NA,0.902217461148953,0.0392134172773865,0.0293036604314941,0.0292654611421669
"stimuli/m5.jpg","stimuli/m2.jpg",2,"stimuli/Hand labour tool & accessory.png","stimuli/Electronic device & accessory.png","stimuli/Kitchen & utensil.png","stimuli/Outdoor activity & sport item.png",4,1,5,"stimuli/m2.jpg","Outdoor activity & sport item","stimuli/objects/fishinghook03.jpg",1,4,1,0.834,182,4,"Outdoor activity & sport item",NA,0.00269334766440553,-0.00489831501000989,NA,0.0352541083764112,-0.0641156470465556,NA,0.136669988900981,-0.248557832655191,NA,0.825382555058202,0.317571794711757,0.725018389157043,NA,0.0582157220756617,0.0725725266538554,0.14419336211344,0.725018389157043
"stimuli/m2.jpg","stimuli/m5.jpg",2,"stimuli/Hand labour tool & accessory.png","stimuli/Kitchen & utensil.png","stimuli/Electronic device & accessory.png","stimuli/Outdoor activity & sport item.png",3,1,5,"stimuli/m5.jpg","Electronic device & accessory","stimuli/objects/coffeemachine.jpg",1,3,1,1.131,183,3,"Electronic device & accessory",NA,0.976125293691017,0.0434202512428635,NA,0.0237669969871264,-0.0432243633539958,NA,0.000106827624012916,-0.000194284370006,NA,8.81697843427205e-07,-1.60351886161197e-06,0.917236475064602,NA,0.917236475064602,0.030614857704346,0.0260836843460084,0.0260649828850439
"stimuli/m2.jpg","stimuli/m5.jpg",1,"stimuli/Outdoor activity & sport item.png","stimuli/Electronic device & accessory.png","stimuli/Hand labour tool & accessory.png","stimuli/Kitchen & utensil.png",1,1,5,"stimuli/m2.jpg","Outdoor activity & sport item","stimuli/objects/kiddiepool.jpg",1,1,1,0.608,184,1,"Outdoor activity & sport item",NA,0.00148094224780045,-0.00269334766440553,NA,0.019384537389341,-0.0352541083764112,NA,0.0751482488669191,-0.136669988900981,NA,0.903986271495939,0.174617444941798,0.849905640834553,NA,0.0397552460197658,0.0448779323703921,0.0654611807752887,0.849905640834553
"stimuli/m5.jpg","stimuli/m2.jpg",2,"stimuli/Hand labour tool & accessory.png","stimuli/Electronic device & accessory.png","stimuli/Outdoor activity & sport item.png","stimuli/Kitchen & utensil.png",3,1,5,"stimuli/m2.jpg","Outdoor activity & sport item","stimuli/objects/snowboard.jpg",1,3,1,1.327,185,3,"Outdoor activity & sport item",NA,0.000814298863197201,-0.00148094224780045,NA,0.0106586241179817,-0.019384537389341,NA,0.0413204051099756,-0.0751482488669191,NA,0.947206671908846,0.0960137285040605,0.89475973788402,NA,0.031095517276817,0.0332384761782581,0.0409062686609044,0.89475973788402
"stimuli/m2.jpg","stimuli/m5.jpg",1,"stimuli/Hand labour tool & accessory.png","stimuli/Outdoor activity & sport item.png","stimuli/Electronic device & accessory.png","stimuli/Kitchen & utensil.png",2,1,5,"stimuli/m2.jpg","Outdoor activity & sport item","stimuli/objects/handgripper.jpg",1,3,0,1.307,186,3,"Electronic device & accessory",NA,0.000447743752053186,-0.000814298863197201,NA,0.00586066439485374,-0.0106586241179817,NA,0.0227201019876871,-0.0413204051099756,NA,0.970971489865406,0.0527933280911544,0.0269678777242048,NA,0.0269678777242048,0.0279744340266637,0.0313566583059053,0.913701029943226
"stimuli/m5.jpg","stimuli/m2.jpg",2,"stimuli/Hand labour tool & accessory.png","stimuli/Outdoor activity & sport item.png","stimuli/Electronic device & accessory.png","stimuli/Kitchen & utensil.png",2,1,5,"stimuli/m2.jpg","Outdoor activity & sport item","stimuli/objects/hockeypuck.jpg",1,2,1,0.609,187,2,"Outdoor activity & sport item",NA,0.000246192739009283,-0.000447743752053186,NA,0.00322249727252885,-0.00586066439485374,NA,0.0124926905473703,-0.0227201019876871,NA,0.984038619441092,0.029028510134594,0.922663062503123,NA,0.0248928439899592,0.0253994993282888,0.0270445941786288,0.922663062503123
"stimuli/m2.jpg","stimuli/m5.jpg",2,"stimuli/Electronic device & accessory.png","stimuli/Kitchen & utensil.png","stimuli/Outdoor activity & sport item.png","stimuli/Hand labour tool & accessory.png",4,0,5,"stimuli/m5.jpg","Hand labour tool & accessory","stimuli/objects/flooringstapler.jpg",1,1,0,0.587,188,1,"Electronic device & accessory",NA,0.536724317353481,-0.976125293691017,NA,0.463216458474561,0.976233003012874,NA,5.87393687505207e-05,-0.000106827624012916,NA,4.84803207317871e-07,-8.81697843427205e-07,0.92445143814507,NA,0.92445143814507,0.02668591655156,0.024436140188249,0.0244265051151211
"stimuli/m2.jpg","stimuli/m5.jpg",1,"stimuli/Outdoor activity & sport item.png","stimuli/Hand labour tool & accessory.png","stimuli/Electronic device & accessory.png","stimuli/Kitchen & utensil.png",1,1,5,"stimuli/m2.jpg","Outdoor activity & sport item","stimuli/objects/backpack01a.jpg",1,1,1,0.805,189,1,"Outdoor activity & sport item",NA,0.000135369537738839,-0.000246192739009283,NA,0.0017718961489374,-0.00322249727252885,NA,0.00686912924937285,-0.0124926905473703,NA,0.991223605063951,0.0159613805589084,0.927195409063346,NA,0.0238096073693036,0.0240748610249756,0.024920122542375,0.927195409063346
"stimuli/m5.jpg","stimuli/m2.jpg",1,"stimuli/Electronic device & accessory.png","stimuli/Kitchen & utensil.png","stimuli/Outdoor activity & sport item.png","stimuli/Hand labour tool & accessory.png",4,0,5,"stimuli/m5.jpg","Hand labour tool & accessory","stimuli/objects/ladder.jpg",1,1,0,0.981,190,1,"Electronic device & accessory",NA,0.295118869166141,-0.536724317353481,NA,0.704848566312203,0.536783541525439,NA,3.22979517057542e-05,-5.87393687505207e-05,NA,2.66569949759777e-07,-4.84803207317871e-07,0.492154020097205,NA,0.492154020097205,0.37434041959777,0.0667600177280282,0.0667455425769964
"stimuli/m5.jpg","stimuli/m2.jpg",1,"stimuli/Outdoor activity & sport item.png","stimuli/Electronic device & accessory.png","stimuli/Kitchen & utensil.png","stimuli/Hand labour tool & accessory.png",1,0,5,"stimuli/m5.jpg","Outdoor activity & sport item","stimuli/objects/downhillski.jpg",1,2,0,0.8,191,2,"Electronic device & accessory",NA,0.162271661860519,-0.295118869166141,NA,0.387562301721532,-0.704848566312203,NA,1.77590891181987e-05,-3.22979517057542e-05,NA,0.45014827732883,0.99999973343005,0.159675035608307,NA,0.159675035608307,0.733862107457223,0.0532346019604756,0.0532282549739943
